timestamp_s,ax,ay,az,gx,gy,gz,label
0.0,0.92,0.146,-0.285,0.915,0.183,-3.479,1
0.007855000000000167,0.924,0.147,-0.281,0.427,0.427,-3.356,1
0.01486500000000035,0.927,0.145,-0.277,1.037,0.732,-3.234,1
0.024316999999999922,0.934,0.151,-0.273,-0.671,1.464,-2.99,1
0.03326100000000043,0.935,0.153,-0.275,2.38,1.892,-2.502,1
0.040161000000000335,0.937,0.158,-0.279,5.798,1.77,-2.441,1
0.04766099999999973,0.933,0.156,-0.289,7.019,2.197,-2.197,1
0.05675200000000036,0.939,0.162,-0.297,5.676,2.685,-2.197,1
0.0643969999999996,0.943,0.163,-0.3,4.028,2.868,-1.953,1
0.07206099999999971,0.945,0.165,-0.299,2.563,3.356,-1.831,1
0.07955100000000037,0.937,0.169,-0.294,2.441,3.479,-2.136,1
0.08715000000000028,0.935,0.174,-0.295,4.638,3.601,-2.014,1
0.09631800000000013,0.945,0.179,-0.296,7.08,3.601,-1.892,1
0.10410599999999981,0.954,0.187,-0.301,9.521,3.417,-1.647,1
0.11172200000000032,0.964,0.196,-0.295,11.657,3.479,-1.892,1
0.12071400000000043,0.966,0.201,-0.297,12.451,3.662,-1.953,1
0.1282230000000002,0.962,0.202,-0.3,11.413,4.15,-1.953,1
0.13656299999999977,0.955,0.215,-0.306,9.948,4.76,-2.197,1
0.1438499999999996,0.958,0.224,-0.31,8.544,5.126,-2.563,1
0.153092,0.961,0.23,-0.314,8.3,5.065,-3.173,1
0.16025899999999993,0.955,0.231,-0.32,9.216,4.882,-3.601,1
0.16784200000000027,0.957,0.237,-0.32,10.131,4.821,-3.906,1
0.17700600000000044,0.974,0.235,-0.313,11.108,4.394,-4.577,1
0.185848,0.983,0.251,-0.307,14.404,4.272,-4.943,1
0.1935520000000004,0.989,0.262,-0.3,18.432,4.089,-5.432,1
0.20181299999999958,0.994,0.271,-0.304,21.362,3.784,-5.737,1
0.20871999999999957,0.991,0.283,-0.304,22.888,3.906,-6.164,1
0.2171960000000004,0.99,0.289,-0.309,23.01,4.211,-6.896,1
0.22609299999999966,0.992,0.308,-0.318,21.179,4.394,-7.873,1
0.23212600000000005,0.994,0.324,-0.329,19.287,4.516,-8.728,1
0.24088699999999985,0.995,0.33,-0.338,17.822,4.638,-9.887,1
0.24868100000000037,0.987,0.344,-0.347,17.211,4.516,-11.352,1
0.25794099999999975,0.987,0.351,-0.352,17.578,3.906,-12.512,1
0.26573199999999986,0.999,0.356,-0.363,19.226,3.112,-14.038,1
0.27324000000000037,1.018,0.359,-0.364,23.925,1.892,-15.441,1
0.28135900000000014,1.01,0.355,-0.362,28.747,1.037,-16.906,1
0.2883420000000001,1.019,0.352,-0.361,33.081,-0.183,-17.883,1
0.2968820000000001,1.039,0.358,-0.354,38.818,-1.281,-19.226,1
0.3039959999999997,1.062,0.361,-0.344,45.532,-2.441,-20.507,1
0.3109849999999996,1.071,0.359,-0.344,52.368,-3.601,-22.094,1
0.31846200000000024,1.08,0.35,-0.331,59.448,-4.394,-23.437,1
0.32682500000000037,1.085,0.345,-0.329,65.795,-5.187,-24.597,1
0.3350730000000004,1.082,0.337,-0.319,70.8,-5.798,-26.184,1
0.34160400000000024,1.08,0.328,-0.322,73.852,-6.103,-27.221,1
0.35003899999999977,1.07,0.321,-0.32,74.523,-6.225,-28.625,1
0.3580300000000003,1.066,0.307,-0.32,73.303,-6.408,-30.273,1
0.3658640000000002,1.058,0.31,-0.326,72.326,-6.713,-31.372,1
0.37378599999999995,1.031,0.32,-0.317,74.035,-7.141,-32.47,1
0.3822380000000001,1.056,0.307,-0.326,78.43,-8.3,-34.057,1
0.38898100000000024,1.048,0.296,-0.314,82.702,-9.094,-34.973,1
0.3974219999999997,1.041,0.279,-0.321,86.608,-9.948,-36.437,1
0.40563199999999977,1.037,0.26,-0.31,89.599,-10.559,-37.231,1
0.412814,1.044,0.235,-0.315,91.857,-11.169,-37.841,1
0.42226500000000033,1.056,0.215,-0.308,93.444,-11.84,-38.146,1
0.42961199999999966,1.055,0.192,-0.316,94.787,-12.573,-38.391,1
0.43707799999999963,1.047,0.182,-0.312,95.642,-13.122,-38.452,1
0.4449949999999996,1.035,0.172,-0.315,96.191,-13.977,-38.452,1
0.45439900000000044,1.041,0.154,-0.312,97.229,-15.075,-38.574,1
0.4615349999999996,1.023,0.155,-0.307,98.876,-15.808,-38.452,1
0.46936399999999967,1.001,0.161,-0.307,104.614,-16.235,-38.879,1
0.47804300000000044,0.973,0.167,-0.303,114.929,-18.188,-39.184,1
0.4847640000000002,1.02,0.16,-0.292,130.737,-19.714,-39.733,1
0.49285099999999993,1.062,0.126,-0.287,145.935,-20.935,-40.222,1
0.5005499999999996,1.096,0.088,-0.294,149.292,-20.69,-40.588,1
0.5090440000000003,1.108,0.055,-0.303,141.906,-20.446,-40.588,1
0.5175109999999998,1.089,0.025,-0.307,125.671,-19.042,-39.978,1
0.5258570000000002,1.067,0.024,-0.319,99.487,-17.639,-39.062,1
0.5365289999999998,1.043,0.03,-0.301,82.214,-16.479,-38.391,1
0.5437750000000001,1.015,0.048,-0.299,65.856,-15.197,-37.719,1
0.5521580000000004,1.0,0.064,-0.306,49.377,-14.282,-37.292,1
0.5605630000000001,0.989,0.075,-0.309,32.714,-12.695,-37.109,1
0.5697400000000004,0.964,0.104,-0.318,17.639,-12.268,-36.987,1
0.5778090000000002,0.945,0.134,-0.324,9.338,-11.962,-37.048,1
0.5858800000000004,0.932,0.151,-0.347,3.967,-12.512,-36.682,1
0.5934200000000001,0.916,0.169,-0.342,2.319,-13.488,-36.804,1
0.6026249999999997,0.908,0.189,-0.366,3.173,-14.587,-36.865,1
0.6115450000000004,0.905,0.183,-0.394,1.342,-16.174,-37.231,1
0.6190689999999996,0.918,0.192,-0.39,1.037,-17.7,-37.048,1
0.6269580000000001,0.945,0.216,-0.397,3.417,-19.653,-36.865,1
0.6349340000000003,0.949,0.239,-0.393,7.019,-21.667,-36.865,1
0.6432789999999997,0.951,0.26,-0.395,11.657,-23.681,-36.804,1
0.652056,0.956,0.272,-0.39,16.967,-26.855,-37.231,1
0.6598449999999998,0.972,0.28,-0.393,20.69,-28.686,-37.536,1
0.6666189999999999,0.976,0.278,-0.395,21.301,-30.578,-38.085,1
0.6758240000000004,0.965,0.285,-0.39,20.812,-33.081,-37.963,1
0.6839769999999996,0.979,0.306,-0.385,26.489,-36.254,-37.353,1
0.6930880000000004,1.022,0.329,-0.366,39.489,-40.344,-36.865,1
0.699764,1.075,0.36,-0.366,59.265,-44.311,-36.499,1
0.7091390000000004,1.083,0.398,-0.356,77.575,-48.767,-36.376,1
0.7180799999999996,1.078,0.429,-0.351,102.111,-53.039,-37.17,1
0.7248859999999997,1.083,0.354,-0.333,121.276,-59.997,-37.963,1
0.7334319999999996,0.839,0.181,-0.221,102.6,-57.922,-32.897,1
0.7410410000000001,0.816,0.156,-0.197,50.537,-52.734,-29.479,1
0.7489290000000004,0.976,0.12,-0.132,-4.333,-49.255,-26.0,1
0.7571070000000004,1.153,0.07,-0.099,-53.955,-44.189,-23.071,1
0.7638150000000001,1.254,0.059,-0.082,-92.224,-39.978,-22.399,1
0.7723019999999998,1.416,-0.007,-0.202,-141.906,-40.039,-23.742,1
0.780958,1.229,0.025,-0.135,-204.589,-40.283,-23.559,1
0.7897049999999997,1.003,0.064,-0.161,-235.961,-39.062,-24.78,1
0.7982190000000005,0.847,0.126,-0.082,-233.032,-36.437,-26.916,1
0.8050329999999999,0.878,0.124,-0.154,-205.2,-37.414,-28.503,1
0.8147450000000003,0.919,0.144,-0.154,-151.794,-40.71,-30.7,1
0.8229059999999997,0.918,0.152,-0.218,-95.947,-46.813,-33.63,1
0.8295719999999998,0.895,0.166,-0.21,-26.367,-51.696,-37.78,1
0.8376619999999999,0.863,0.123,-0.268,27.221,-58.227,-40.893,1
0.8449390000000001,0.863,0.042,-0.285,70.373,-60.791,-42.907,1
0.8552929999999996,0.915,-0.006,-0.314,91.918,-65.368,-44.311,1
0.8635630000000001,0.998,-0.038,-0.315,90.82,-63.842,-44.25,1
0.8699620000000001,1.083,-0.032,-0.338,76.66,-63.964,-44.921,1
0.878406,1.076,0.005,-0.329,61.34,-62.133,-46.386,1
0.8858420000000002,1.074,0.029,-0.337,47.729,-62.866,-49.072,1
0.8945049999999997,1.068,0.043,-0.317,45.715,-63.354,-51.147,1
0.9022990000000002,1.064,0.047,-0.313,49.987,-65.185,-53.71,1
0.9098249999999997,1.176,0.033,-0.292,60.241,-65.734,-56.274,1
0.9178329999999999,1.061,0.045,-0.292,67.749,-66.833,-58.41,1
0.9267099999999999,1.012,0.033,-0.304,68.542,-68.664,-61.096,1
0.9336549999999999,1.006,0.024,-0.233,69.091,-68.786,-63.598,1
0.9429290000000004,0.967,0.024,-0.226,64.697,-69.702,-66.65,1
0.9496690000000001,0.917,0.026,-0.16,61.34,-69.458,-69.091,1
0.9589239999999997,0.866,0.02,-0.125,57.006,-69.763,-72.143,1
0.96692,0.813,0.003,-0.041,51.33,-69.213,-75.439,1
0.9745569999999999,0.792,-0.041,-0.007,43.823,-68.725,-77.392,1
0.984394,0.691,-0.063,0.078,35.156,-68.115,-78.918,1
0.9924080000000002,0.492,-0.055,0.222,29.846,-65.429,-81.176,1
1.0001499999999997,0.646,-0.082,0.359,32.897,-62.133,-84.228,1
1.0087159999999997,0.721,-0.107,0.449,39.978,-57.861,-87.829,1
1.0154490000000003,0.83,-0.145,0.59,54.199,-54.443,-91.308,1
1.023364,0.801,-0.171,0.723,72.998,-51.33,-94.055,1
1.0319539999999998,0.823,-0.22,0.85,101.623,-48.339,-96.801,1
1.0407950000000001,0.797,-0.305,0.949,119.201,-44.677,-97.9,1
1.048088,0.754,-0.395,1.065,121.887,-38.391,-97.595,1
1.0553350000000004,0.78,-0.479,1.119,108.032,-28.747,-96.252,1
1.0632149999999996,0.694,-0.531,1.177,83.862,-19.958,-94.909,1
1.0719060000000002,0.645,-0.588,1.229,62.377,-9.582,-92.59,1
1.0805230000000003,0.626,-0.629,1.22,48.278,-0.061,-89.599,1
1.0876840000000003,0.592,-0.701,1.189,37.109,10.925,-86.425,1
1.094938,0.548,-0.769,1.147,24.353,20.263,-83.312,1
1.1034050000000004,0.512,-0.839,1.098,5.615,30.517,-80.322,1
1.1112039999999999,0.455,-0.898,1.054,-19.104,42.907,-76.171,1
1.119548,0.403,-0.926,1.006,-33.447,52.917,-72.326,1
1.1272630000000001,0.349,-0.954,0.943,-35.461,63.293,-67.565,1
1.137263,0.286,-0.98,0.905,-28.686,70.861,-62.683,1
1.1440260000000002,0.195,-1.022,0.805,-16.723,80.078,-56.335,1
1.15393,0.158,-1.075,0.742,-10.986,87.219,-50.842,1
1.1628980000000002,0.041,-1.129,0.653,-16.235,95.947,-44.189,1
1.1704800000000004,-0.023,-1.22,0.581,-40.344,107.299,-37.353,1
1.1792480000000003,-0.095,-1.245,0.55,-67.993,117.004,-30.456,1
1.1888059999999996,-0.208,-1.235,0.531,-72.448,125.061,-24.536,1
1.196091,-0.291,-1.255,0.517,-62.744,130.737,-19.592,1
1.2042380000000001,-0.358,-1.286,0.517,-44.921,136.596,-12.451,1
1.2136370000000003,-0.523,-1.28,0.496,-14.404,142.395,-5.065,1
1.221089,-0.498,-1.377,0.451,5.676,145.69,2.685,1
1.2294780000000003,-0.648,-1.491,0.395,13.366,152.587,13.793,1
1.2384700000000004,-0.687,-1.562,0.449,-2.502,160.156,25.207,1
1.2465539999999997,-0.807,-1.591,0.368,-9.582,168.64,34.79,1
1.2535410000000002,-0.871,-1.626,0.393,-15.563,174.804,45.043,1
1.262537,-0.991,-1.661,0.364,-17.15,182.8,59.265,1
1.2714910000000001,-1.068,-1.681,0.359,-11.352,188.293,71.289,1
1.2807969999999997,-1.19,-1.703,0.326,-3.173,195.556,86.975,1
1.2889990000000004,-1.351,-1.729,0.289,4.394,201.293,103.759,1
1.2969739999999996,-1.517,-1.78,0.263,4.028,207.702,121.032,1
1.3047149999999998,-1.622,-1.735,0.251,16.845,214.05,135.986,1
1.3135450000000004,-1.895,-1.724,0.175,27.526,219.909,153.869,1
1.32076,-2.2,-1.709,0.159,27.526,224.121,169.189,1
1.3288710000000004,-2.518,-1.699,0.123,-6.286,235.351,187.622,1
1.3372169999999999,-2.716,-1.61,0.138,-13.732,245.239,202.331,1
1.347365,-3.007,-1.547,0.084,-13.122,254.333,219.97,1
1.3563720000000004,-3.351,-1.501,-0.021,-10.07,264.77,241.516,1
1.362806,-3.577,-1.481,-0.079,-8.361,272.155,259.277,1
1.372039,-3.823,-1.439,-0.155,-7.263,278.503,278.137,1
1.378908,-4.152,-1.364,-0.221,2.685,284.179,301.086,1
1.3892410000000002,-4.475,-1.327,-0.281,16.479,287.048,321.899,1
1.3958320000000004,-4.98,-1.338,-0.379,37.902,290.588,349.914,1
1.405977,-5.354,-1.337,-0.462,59.326,290.832,375.976,1
1.4130589999999996,-5.836,-1.336,-0.592,91.247,289.062,409.057,1
1.420509,-6.317,-1.355,-0.735,127.441,282.165,445.739,1
1.4304579999999998,-6.812,-1.359,-0.87,163.879,271.972,479.797,1
1.4384129999999997,-7.467,-1.357,-1.053,206.97,253.112,523.376,1
1.4461320000000004,-8.052,-1.338,-1.191,252.929,232.788,565.551,1
1.4554669999999996,-8.717,-1.373,-1.303,288.879,198.059,616.333,1
1.4631660000000002,-9.627,-1.237,-1.48,341.369,161.987,661.437,1
1.4705120000000003,-10.34,-1.079,-1.505,381.042,113.83,706.359,1
1.4787429999999997,-11.163,-0.876,-1.553,447.692,53.894,758.3,1
1.4856999999999996,-12.132,-0.697,-1.525,500.427,-13.61,800.231,1
1.4945709999999996,-13.452,-0.5,-1.441,539.55,-83.068,838.439,1
1.5023600000000004,-14.691,-0.257,-1.33,569.58,-173.767,875.305,1
1.509621,-15.883,0.001,-1.235,593.078,-253.478,898.559,1
1.5188569999999997,-15.996,0.208,-1.124,606.75,-340.27,914.306,1
1.5265829999999996,-15.999,0.562,-0.843,651.428,-444.396,921.997,1
1.533481,-15.999,0.808,-0.539,721.435,-550.781,915.405,1
1.5429680000000001,-15.999,1.248,-0.031,840.026,-655.273,893.371,1
1.5508240000000004,-15.999,1.708,0.605,1026.794,-824.157,823.181,1
1.560117,-15.999,2.076,1.312,1204.528,-947.143,733.703,1
1.5689200000000003,-15.999,2.277,1.876,1385.07,-1067.627,603.698,1
1.575462,-15.999,2.186,2.232,1506.896,-1169.555,403.259,1
1.5857840000000003,-15.999,1.676,2.303,1464.233,-1208.19,210.205,1
1.5923319999999999,-15.999,1.813,2.533,1240.173,-1166.931,8.117,1
1.600885,-15.999,2.002,2.404,1010.07,-1128.295,-137.695,1
1.6099699999999997,-15.999,1.872,2.693,805.358,-1042.419,-271.057,1
1.618627,-15.999,1.674,2.882,592.712,-972.595,-366.455,1
1.6272460000000004,-15.999,1.333,3.061,488.037,-888.061,-414.733,1
1.6358389999999998,-15.999,0.887,2.708,376.831,-824.035,-452.27,1
1.6445340000000002,-15.335,0.906,2.745,294.738,-746.459,-472.228,1
1.6521290000000004,-13.977,1.02,2.604,268.005,-696.472,-488.098,1
1.6616749999999998,-13.123,0.904,2.5,294.494,-641.174,-502.014,1
1.6705620000000003,-12.125,0.692,2.348,299.987,-600.891,-513.183,1
1.6787859999999997,-11.135,0.491,2.283,277.587,-536.254,-521.789,1
1.6876980000000001,-10.455,0.41,2.249,257.446,-487.06,-524.536,1
1.6971369999999997,-9.803,0.383,2.209,265.93,-443.481,-523.986,1
1.7051879999999997,-9.156,0.243,2.179,286.926,-390.258,-522.888,1
1.7129399999999997,-8.466,0.019,2.04,282.104,-346.069,-519.531,1
1.721272,-7.703,-0.145,1.94,250.915,-299.865,-511.718,1
1.7293640000000003,-6.799,-0.349,1.85,228.332,-261.718,-501.953,1
1.736606,-6.281,-0.58,1.731,216.735,-228.82,-492.736,1
1.745977,-5.91,-0.669,1.765,187.194,-183.532,-476.989,1
1.7548060000000003,-5.408,-0.74,1.518,151.855,-151.977,-460.693,1
1.7620550000000001,-5.13,-0.787,1.534,133.056,-123.474,-444.152,1
1.7706599999999995,-4.734,-0.823,1.355,124.267,-101.928,-427.856,1
1.7782420000000005,-4.451,-0.875,1.354,127.38,-78.186,-408.813,1
1.7873040000000007,-4.03,-0.976,1.178,125.488,-55.786,-389.221,1
1.795878,-3.677,-1.056,1.11,113.342,-37.841,-372.924,1
1.8037419999999997,-3.365,-1.111,0.978,85.449,-18.554,-353.637,1
1.8118149999999993,-3.014,-1.134,0.935,59.448,-2.563,-335.388,1
1.8214699999999997,-2.619,-1.187,0.833,45.104,8.605,-319.946,1
1.8303960000000004,-2.327,-1.209,0.804,38.208,18.493,-301.574,1
1.8390470000000008,-2.099,-1.233,0.737,40.161,27.099,-283.386,1
1.8480349999999994,-1.882,-1.239,0.714,45.593,33.203,-264.77,1
1.8543509999999994,-1.723,-1.223,0.646,48.583,39.245,-246.398,1
1.8637510000000006,-1.564,-1.215,0.629,52.978,42.968,-230.651,1
1.871765,-1.37,-1.212,0.562,47.607,49.438,-212.463,1
1.8791510000000002,-1.216,-1.163,0.508,37.414,53.405,-197.814,1
1.8873549999999994,-1.124,-1.075,0.461,29.052,57.434,-181.64,1
1.8948719999999994,-1.068,-0.995,0.432,23.132,59.387,-169.311,1
1.9030079999999998,-1.021,-0.923,0.424,20.263,61.523,-158.081,1
1.909319,-0.931,-0.866,0.413,19.165,62.988,-148.01,1
1.916677,-0.821,-0.818,0.408,20.446,64.758,-138.366,1
1.9247560000000004,-0.72,-0.766,0.391,23.254,66.101,-130.615,1
1.9327710000000007,-0.646,-0.689,0.378,34.545,66.711,-120.056,1
1.9401100000000007,-0.57,-0.636,0.357,48.461,66.955,-113.037,1
1.9480389999999996,-0.47,-0.622,0.311,58.288,67.138,-103.271,1
1.9567340000000009,-0.372,-0.6,0.284,55.725,68.969,-95.214,1
1.9646410000000003,-0.271,-0.558,0.25,48.828,69.763,-86.73,1
1.9720840000000006,-0.184,-0.515,0.242,46.691,70.312,-80.2,1
1.9804809999999993,-0.094,-0.47,0.238,48.767,70.251,-73.73,1
1.9882019999999994,-0.026,-0.426,0.233,55.175,70.007,-67.016,1
1.9972600000000007,0.034,-0.39,0.229,62.438,69.213,-61.95,1
2.0046339999999994,0.084,-0.367,0.226,71.105,68.603,-57.128,1
2.0135109999999994,0.195,-0.348,0.222,80.078,67.565,-51.574,1
2.0222949999999997,0.264,-0.323,0.224,86.608,67.382,-47.058,1
2.029591,0.314,-0.295,0.191,90.209,67.321,-42.236,1
2.0392100000000006,0.332,-0.277,0.166,88.5,67.199,-38.33,1
2.0465479999999996,0.389,-0.269,0.152,78.491,66.955,-34.118,1
2.0536949999999994,0.466,-0.244,0.132,68.786,66.772,-30.639,1
2.0628969999999995,0.534,-0.225,0.122,60.668,65.002,-27.526,1
2.0698620000000005,0.586,-0.229,0.116,55.847,63.781,-24.536,1
2.0777490000000007,0.705,-0.23,0.12,53.1,62.438,-21.423,1
2.085623,0.786,-0.236,0.108,50.109,62.683,-19.226,1
2.0946809999999996,0.818,-0.239,0.095,43.334,62.011,-17.272,1
2.1015250000000005,0.858,-0.239,0.087,32.409,62.011,-16.174,1
2.110684000000001,0.864,-0.244,0.084,21.972,62.072,-14.892,1
2.1173230000000007,0.898,-0.247,0.075,13.183,62.255,-13.671,1
2.1248000000000005,0.926,-0.243,0.071,7.934,61.828,-12.084,1
2.133915,0.937,-0.235,0.064,6.225,60.913,-10.314,1
2.1430860000000003,0.929,-0.225,0.044,7.385,59.387,-9.033,1
2.1503700000000006,0.897,-0.215,0.028,11.901,57.006,-7.507,1
2.159089,0.88,-0.203,0.012,17.333,53.955,-6.164,1
2.1671239999999994,0.881,-0.191,0.011,22.521,51.696,-4.882,1
2.174988000000001,0.906,-0.188,0.0,25.268,49.377,-4.455,1
2.1824790000000007,0.933,-0.185,-0.003,24.108,47.912,-4.577,1
2.1904520000000005,0.977,-0.186,-0.014,20.568,46.874,-4.394,1
2.199992999999999,0.996,-0.187,-0.019,18.31,45.532,-4.638,1
2.207248999999999,1.014,-0.19,-0.02,18.31,44.799,-4.638,1
2.2148509999999995,1.037,-0.2,-0.027,18.798,42.297,-4.211,1
2.2225479999999997,1.054,-0.201,-0.008,22.583,42.419,-3.906,1
2.231489,1.05,-0.209,-0.024,26.306,40.649,-3.295,1
2.2387200000000007,1.055,-0.226,-0.043,27.404,39.489,-2.929,1
2.2478750000000005,1.044,-0.228,-0.027,26.794,37.963,-2.624,1
2.2553090000000005,1.019,-0.243,-0.034,24.963,37.475,-2.136,1
2.2625709999999994,1.05,-0.256,-0.033,19.714,36.315,-1.464,1
2.2714929999999995,1.071,-0.278,-0.025,13.854,36.865,-0.732,1
2.2784510000000004,1.106,-0.29,-0.013,6.958,36.926,0.305,1
2.286695999999999,1.136,-0.3,-0.01,0.366,37.841,1.647,1
2.295147,1.145,-0.299,-0.016,-5.615,38.146,3.051,1
2.3038109999999996,1.158,-0.309,-0.031,-10.314,38.269,4.76,1
2.311159999999999,1.142,-0.311,-0.033,-13.549,37.353,6.835,1
2.3198740000000004,1.117,-0.306,-0.041,-14.831,35.949,8.605,1
2.3265320000000003,1.099,-0.296,-0.044,-12.207,34.423,10.62,1
2.3362920000000003,1.09,-0.288,-0.044,-5.187,32.043,13.183,1
2.342938,1.079,-0.276,-0.042,3.54,29.907,15.136,1
2.3515429999999995,1.061,-0.268,-0.045,17.089,26.977,17.517,1
2.3595869999999994,1.044,-0.254,-0.049,30.517,24.353,19.47,1
2.3679699999999997,1.037,-0.25,-0.047,43.823,21.728,21.179,1
2.375279000000001,1.041,-0.25,-0.047,57.495,19.226,23.62,1
2.384219,1.034,-0.25,-0.059,66.04,17.272,25.695,1
2.3917459999999995,1.025,-0.25,-0.062,72.875,15.441,27.954,1
2.399424,1.01,-0.241,-0.068,77.941,13.671,30.456,1
2.4065399999999997,1.0,-0.237,-0.07,82.519,11.596,33.02,1
2.4147239999999996,0.99,-0.229,-0.067,84.96,9.948,34.912,1
2.4224890000000006,0.979,-0.221,-0.068,86.608,8.361,36.926,1
2.4315999999999995,0.967,-0.211,-0.066,87.036,7.202,38.757,1
2.4391,0.954,-0.202,-0.057,86.547,6.042,40.466,1
2.4482409999999994,0.942,-0.194,-0.048,84.472,5.615,41.992,1
2.4563120000000005,0.928,-0.188,-0.04,80.932,5.615,43.579,1
2.464288,0.921,-0.187,-0.036,75.439,5.92,44.982,1
2.4706969999999995,0.929,-0.187,-0.036,68.786,6.286,46.752,1
2.4787160000000004,0.925,-0.185,-0.029,59.936,7.263,48.522,1
2.4872820000000004,0.916,-0.179,-0.027,51.94,8.056,50.292,1
2.4968520000000005,0.89,-0.161,-0.023,44.006,8.911,52.124,1
2.5037350000000007,0.858,-0.153,-0.022,38.574,9.704,53.466,1
2.5112249999999996,0.844,-0.145,-0.01,34.851,10.192,55.48,1
2.5195360000000004,0.847,-0.132,0.0,33.447,11.474,57.25,1
2.528581000000001,0.847,-0.131,0.006,32.775,12.39,59.143,1
2.5359990000000003,0.845,-0.132,0.002,31.982,14.099,61.584,1
2.5447299999999995,0.824,-0.122,0.0,30.09,15.624,63.11,1
2.5511370000000007,0.807,-0.123,-0.002,26.428,16.662,64.758,1
2.559379,0.791,-0.124,-0.006,21.24,18.005,66.65,1
2.5689670000000007,0.774,-0.127,-0.01,14.404,19.287,69.091,1
2.575875,0.778,-0.131,-0.004,8.972,20.69,71.105,1
2.583686,0.795,-0.124,-0.002,4.211,22.583,73.913,1
2.591305,0.812,-0.128,0.001,2.563,23.559,76.599,1
2.601330000000001,0.859,-0.127,0.005,3.356,25.329,79.284,1
2.6085879999999992,0.87,-0.12,0.013,7.446,26.611,82.702,1
2.618207,0.898,-0.11,0.022,14.526,28.747,86.12,1
2.6253379999999993,0.915,-0.097,0.02,23.986,30.09,89.416,1
2.6337340000000005,0.903,-0.088,0.013,31.616,31.066,91.308,1
2.6425079999999994,0.881,-0.082,0.012,38.024,32.104,93.872,1
2.6494660000000003,0.84,-0.074,0.013,42.541,33.142,95.764,1
2.658232999999999,0.81,-0.067,0.014,46.203,34.362,98.022,1
2.6672089999999997,0.791,-0.059,0.011,47.302,35.949,99.853,1
2.674740999999999,0.774,-0.055,0.008,46.752,37.231,101.867,1
2.6819260000000007,0.779,-0.053,0.003,46.02,39.001,104.248,1
2.689349,0.786,-0.05,-0.002,43.579,40.405,105.895,1
2.697361000000001,0.786,-0.038,-0.013,40.039,42.175,107.604,1
2.7060779999999998,0.764,-0.035,-0.035,33.569,43.762,109.497,1
2.713414,0.73,-0.019,-0.049,26.489,45.288,110.9,1
2.7218470000000003,0.703,0.0,-0.07,18.981,46.081,112.304,1
2.7304429999999993,0.666,0.015,-0.075,12.512,47.607,113.83,1
2.7381139999999995,0.639,0.032,-0.101,4.699,49.56,115.417,1
2.746657000000001,0.599,0.064,-0.123,-3.234,50.842,116.638,1
2.7536780000000007,0.555,0.096,-0.136,-9.155,51.696,117.858,1
2.7613330000000005,0.512,0.101,-0.158,-14.709,52.917,119.201,1
2.768891,0.502,0.17,-0.167,-18.127,54.565,119.873,1
2.7761829999999996,0.485,0.201,-0.203,-15.197,52.673,119.873,1
2.785394,0.465,0.217,-0.183,-5.065,53.405,120.544,1
2.7921200000000006,0.443,0.224,-0.233,4.333,52.001,121.948,1
2.801037000000001,0.437,0.228,-0.244,8.605,51.086,123.474,1
2.8080529999999992,0.402,0.247,-0.252,8.056,51.086,124.816,1
2.816013,0.339,0.256,-0.271,0.976,50.048,126.22,1
2.8234309999999994,0.319,0.259,-0.277,-10.498,50.842,127.319,1
2.832960999999999,0.274,0.306,-0.263,-31.799,53.222,128.784,1
2.8408510000000007,0.284,0.301,-0.296,-43.273,51.208,127.807,1
2.8481120000000004,0.249,0.316,-0.213,-52.185,56.152,130.249,1
2.8571679999999997,0.304,0.354,-0.359,-48.217,53.649,129.577,1
2.8642439999999993,0.207,0.378,-0.249,-37.597,51.513,129.699,1
2.8719990000000006,0.204,0.349,-0.305,-26.794,54.504,132.324,1
2.8788110000000007,0.14,0.367,-0.276,-39.672,52.795,136.047,1
2.8876120000000007,0.172,0.31,-0.397,-44.86,54.87,135.986,1
2.895339,0.112,0.454,-0.27,-54.443,54.87,136.23,1
2.903283,0.069,0.407,-0.323,-64.27,55.114,138.305,1
2.909877,0.098,0.483,-0.35,-59.265,55.725,136.779,1
2.9185529999999993,0.019,0.506,-0.3,-49.499,53.588,136.352,1
2.925165,0.021,0.504,-0.312,-35.949,55.603,137.39,1
2.933592000000001,0.013,0.523,-0.334,-26.977,52.734,137.756,1
2.941618,-0.03,0.539,-0.349,-20.629,54.077,139.16,1
2.951891,-0.015,0.579,-0.393,-21.179,52.368,139.404,1
2.960941,-0.09,0.563,-0.359,-21.667,52.001,140.686,1
2.9697820000000004,-0.124,0.687,-0.34,-57.617,59.692,145.446,1
2.977264999999999,-0.05,0.698,-0.434,-86.364,55.358,141.845,1
2.985759,-0.131,0.729,-0.268,-84.96,63.232,140.991,1
2.9929520000000007,-0.1,0.739,-0.4,-67.81,60.791,138.732,1
3.0037210000000005,-0.133,0.67,-0.292,-40.039,61.523,138.366,1
3.0104489999999995,-0.093,0.637,-0.376,-24.108,60.729,139.282,1
3.0202310000000008,-0.148,0.608,-0.308,-16.113,60.424,140.014,1
3.027132,-0.157,0.585,-0.331,-12.329,61.889,141.479,1
3.0357330000000005,-0.176,0.551,-0.283,-7.446,60.241,142.456,1
3.0452080000000006,-0.206,0.517,-0.238,2.624,62.866,144.47,1
3.0534549999999996,-0.222,0.475,-0.209,13.488,61.462,146.118,1
3.061210000000001,-0.25,0.437,-0.16,25.146,63.537,148.498,1
3.0701590000000003,-0.265,0.424,-0.164,41.198,63.415,151.855,1
3.0782419999999995,-0.32,0.414,-0.15,58.471,64.331,155.334,1
3.085241999999999,-0.371,0.408,-0.161,75.5,63.842,159.606,1
3.093559000000001,-0.442,0.413,-0.178,93.749,63.293,164.978,1
3.102925000000001,-0.526,0.423,-0.2,104.553,62.561,170.532,1
3.1099270000000008,-0.633,0.437,-0.231,105.773,62.499,175.842,1
3.1183200000000006,-0.714,0.451,-0.236,89.843,63.049,181.274,1
3.1267519999999998,-0.785,0.458,-0.215,67.138,66.101,186.035,1
3.133692999999999,-0.862,0.51,-0.248,34.423,71.899,191.04,1
3.1423059999999996,-0.961,0.57,-0.297,2.319,75.622,194.03,1
3.1494400000000002,-1.069,0.621,-0.307,-30.517,81.604,196.777,1
3.1567559999999997,-1.113,0.708,-0.348,-58.227,88.073,198.12,1
3.164842,-1.181,0.795,-0.386,-75.5,92.346,198.364,1
3.1735869999999995,-1.244,0.846,-0.399,-82.946,97.473,198.486,1
3.1820570000000004,-1.154,0.913,-0.427,-73.669,101.806,197.937,1
3.1890909999999995,-1.383,0.973,-0.461,-61.218,105.285,197.875,1
3.1977729999999998,-1.445,1.044,-0.551,-50.292,107.91,197.265,1
3.2054069999999992,-1.484,1.08,-0.593,-45.959,108.52,195.983,1
3.2140509999999995,-1.581,1.127,-0.648,-50.109,112.06,194.519,1
3.2223109999999995,-1.644,1.167,-0.725,-61.462,113.403,192.382,1
3.2289969999999997,-1.681,1.205,-0.76,-76.538,115.478,189.514,1
3.2368799999999993,-1.673,1.245,-0.818,-93.811,117.614,185.729,1
