timestamp_s,ax,ay,az,gx,gy,gz,label
0.0,0.645,0.545,0.562,0.976,-1.22,-1.098,1
0.006610999999999478,0.645,0.545,0.566,1.342,-1.159,-0.915,1
0.01606099999999966,0.644,0.543,0.569,0.793,-1.098,-0.976,1
0.02379899999999946,0.641,0.538,0.575,0.793,-0.915,-0.976,1
0.03181199999999951,0.643,0.533,0.575,1.708,-0.976,-0.671,1
0.04032299999999989,0.639,0.525,0.582,2.014,-1.037,-0.732,1
0.04761499999999952,0.641,0.519,0.575,1.281,-0.61,-0.549,1
0.0549419999999996,0.645,0.519,0.576,0.366,-0.488,-0.427,1
0.06243299999999952,0.646,0.517,0.576,-0.549,-0.244,-0.305,1
0.07095800000000008,0.646,0.519,0.566,-0.061,-0.488,-0.122,1
0.07898199999999989,0.65,0.511,0.562,0.183,-0.61,0.122,1
0.08668500000000012,0.645,0.516,0.56,0.305,-0.854,0.0,1
0.09464000000000006,0.649,0.513,0.567,0.61,-0.915,0.366,1
0.1023259999999997,0.648,0.514,0.576,1.159,-1.037,0.61,1
0.10953899999999983,0.645,0.51,0.585,1.525,-0.915,0.854,1
0.11725299999999983,0.639,0.516,0.588,1.586,-0.793,1.342,1
0.12661099999999958,0.637,0.517,0.588,1.22,-0.183,1.525,1
0.13386399999999998,0.636,0.516,0.584,0.549,-0.183,1.403,1
0.14084399999999953,0.636,0.516,0.585,-0.488,0.427,1.953,1
0.1496599999999999,0.638,0.514,0.583,-0.427,0.549,2.136,1
0.15664199999999973,0.641,0.516,0.582,-0.61,0.854,2.624,1
0.16542600000000007,0.644,0.516,0.571,-1.159,1.159,2.929,1
0.17337999999999987,0.644,0.52,0.566,-1.22,1.342,3.051,1
0.18021200000000004,0.645,0.521,0.563,-0.366,1.159,3.356,1
0.18757799999999936,0.644,0.526,0.563,0.549,1.098,3.417,1
0.19519099999999945,0.648,0.531,0.559,0.488,0.976,3.54,1
0.20360099999999992,0.652,0.54,0.563,0.122,0.976,3.784,1
0.21059499999999964,0.656,0.547,0.559,-0.366,1.098,3.784,1
0.21938299999999966,0.651,0.556,0.561,-0.244,0.976,3.662,1
0.22660500000000017,0.655,0.558,0.557,-0.549,0.793,3.54,1
0.23560499999999962,0.653,0.56,0.555,-0.488,0.915,3.662,1
0.2430059999999994,0.654,0.567,0.551,-0.549,0.732,3.356,1
0.2499399999999996,0.651,0.572,0.545,0.488,0.183,2.99,1
0.25900699999999954,0.649,0.575,0.543,1.708,0.061,2.929,1
0.2661899999999999,0.645,0.579,0.537,1.831,-0.244,2.563,1
0.2742279999999999,0.645,0.581,0.535,1.098,-0.305,1.892,1
0.2809059999999999,0.646,0.587,0.542,0.366,-0.671,1.892,1
0.2884289999999998,0.642,0.59,0.546,0.793,-1.159,1.464,1
0.29612499999999997,0.644,0.59,0.551,1.403,-1.159,1.159,1
0.30526699999999973,0.646,0.594,0.554,1.647,-1.586,0.671,1
0.3117429999999999,0.637,0.589,0.562,0.915,-1.525,0.61,1
0.3200099999999999,0.642,0.588,0.563,-0.183,-1.281,0.183,1
0.3281009999999993,0.645,0.582,0.564,-0.427,-1.22,-0.061,1
0.33715099999999953,0.649,0.578,0.56,-0.183,-1.22,-0.366,1
0.34372500000000006,0.65,0.572,0.561,0.244,-1.464,-0.427,1
0.3526219999999993,0.65,0.57,0.562,1.22,-1.525,-0.305,1
0.3602999999999996,0.647,0.563,0.567,2.502,-1.647,-0.549,1
0.367337,0.647,0.56,0.572,2.685,-1.77,-0.427,1
0.3762849999999993,0.643,0.554,0.578,2.136,-1.708,-0.549,1
0.38335700000000017,0.647,0.551,0.584,1.708,-1.464,-0.61,1
0.3924769999999995,0.645,0.546,0.582,1.159,-1.159,-0.488,1
0.40101799999999965,0.645,0.544,0.581,0.732,-1.037,-0.549,1
0.4084059999999994,0.642,0.541,0.582,1.098,-0.976,-0.427,1
0.41700599999999977,0.638,0.541,0.583,1.953,-0.854,-0.732,1
0.42422000000000004,0.639,0.537,0.585,2.441,-0.915,-0.488,1
0.431489,0.634,0.532,0.581,1.708,-0.732,-0.488,1
0.44030199999999997,0.636,0.526,0.58,0.427,-0.366,-0.366,1
0.44846899999999934,0.637,0.522,0.576,-0.305,-0.305,-0.122,1
0.45539799999999975,0.639,0.518,0.569,0.183,-0.183,-0.122,1
0.463514,0.639,0.516,0.566,-0.183,-0.305,0.122,1
0.4711080000000001,0.638,0.516,0.566,0.183,-0.549,0.488,1
0.4787099999999995,0.64,0.512,0.565,0.366,-0.549,0.61,1
0.485646,0.637,0.513,0.566,0.793,-0.549,1.159,1
0.49352600000000013,0.639,0.516,0.566,0.976,-0.61,1.342,1
0.502313,0.636,0.519,0.563,0.244,-0.61,1.464,1
0.5082139999999997,0.634,0.524,0.56,-0.183,-0.427,1.586,1
0.5188869999999994,0.64,0.533,0.561,-0.183,-0.793,1.953,1
0.5257480000000001,0.64,0.54,0.561,-0.061,-0.854,2.014,1
0.5325379999999997,0.644,0.545,0.56,-0.61,-0.671,2.075,1
0.5409269999999999,0.644,0.55,0.566,-0.793,-0.915,1.953,1
0.5488439999999999,0.645,0.559,0.568,-0.671,-0.915,2.014,1
0.555803,0.644,0.562,0.566,-0.244,-0.976,1.892,1
0.5649389999999999,0.638,0.567,0.562,-0.183,-0.915,1.586,1
0.5719199999999995,0.641,0.576,0.567,0.671,-0.854,1.647,1
0.5790329999999999,0.644,0.583,0.562,1.037,-1.098,1.464,1
0.5873679999999997,0.645,0.585,0.562,1.098,-1.22,1.159,1
0.5943719999999999,0.638,0.589,0.561,0.976,-1.464,1.037,1
0.6019189999999996,0.642,0.592,0.566,0.793,-1.159,0.732,1
0.6094619999999997,0.644,0.587,0.564,0.549,-1.281,0.61,1
0.6184819999999993,0.644,0.584,0.565,-0.305,-0.976,0.427,1
0.6258099999999995,0.647,0.584,0.566,-0.061,-1.281,0.061,1
0.6332459999999998,0.645,0.582,0.567,0.0,-1.22,-0.183,1
0.642385,0.649,0.581,0.564,0.427,-1.22,-0.366,1
0.6491749999999996,0.647,0.583,0.565,0.671,-1.281,-0.671,1
0.6582679999999996,0.644,0.58,0.564,1.159,-1.586,-0.915,1
0.6656009999999997,0.645,0.58,0.57,1.22,-1.708,-1.037,1
0.672904,0.64,0.569,0.573,0.61,-1.586,-1.281,1
0.6808899999999998,0.644,0.562,0.576,0.488,-1.525,-1.586,1
0.6902359999999996,0.645,0.561,0.584,0.244,-1.403,-1.708,1
0.697241,0.642,0.555,0.581,0.549,-1.281,-1.342,1
0.7047439999999998,0.645,0.553,0.58,0.61,-1.098,-1.586,1
0.7123539999999995,0.641,0.544,0.58,0.793,-1.159,-1.464,1
0.7212689999999995,0.647,0.541,0.584,0.854,-1.22,-1.464,1
0.7284199999999998,0.643,0.538,0.589,1.281,-1.098,-1.647,1
0.738175,0.637,0.534,0.591,1.037,-1.037,-1.403,1
0.7449589999999997,0.639,0.533,0.592,0.305,-0.793,-1.342,1
0.7533750000000001,0.639,0.536,0.592,0.122,-0.732,-1.281,1
0.760535,0.643,0.527,0.595,0.183,-0.61,-1.342,1
0.7693579999999995,0.645,0.52,0.595,0.366,-0.671,-1.098,1
0.7763489999999997,0.643,0.521,0.59,0.488,-0.549,-0.915,1
0.7840249999999997,0.641,0.523,0.585,0.244,-0.427,-0.732,1
0.792135,0.641,0.521,0.587,0.61,-0.183,-0.732,1
0.8014549999999998,0.637,0.524,0.583,1.281,-0.305,-0.427,1
0.8087159999999995,0.632,0.522,0.586,1.403,-0.244,-0.366,1
0.8167869999999997,0.63,0.525,0.589,1.525,0.0,-0.183,1
0.8242079999999996,0.63,0.528,0.588,1.403,0.0,0.0,1
0.8313549999999994,0.628,0.535,0.589,0.915,0.183,0.183,1
0.8405179999999994,0.633,0.533,0.591,-0.305,0.366,0.366,1
0.8470199999999997,0.64,0.534,0.584,-1.037,0.488,0.427,1
0.8561559999999995,0.637,0.537,0.578,-1.22,0.61,0.427,1
0.8624169999999998,0.644,0.531,0.569,-0.793,0.671,0.427,1
0.8717179999999995,0.645,0.53,0.563,-0.61,0.427,0.427,1
0.8786309999999995,0.642,0.53,0.561,0.0,0.427,0.732,1
0.8870119999999995,0.637,0.533,0.558,0.244,0.122,0.793,1
0.89405,0.638,0.526,0.559,0.427,0.061,0.915,1
0.9024369999999999,0.636,0.528,0.554,0.183,0.0,1.159,1
0.9091369999999994,0.628,0.53,0.559,0.122,-0.061,1.098,1
0.9173329999999993,0.632,0.524,0.561,0.488,-0.305,1.342,1
0.9248149999999997,0.626,0.526,0.564,-0.305,-0.244,1.403,1
0.9331860000000001,0.635,0.524,0.565,-0.549,-0.305,1.708,1
0.942107,0.633,0.527,0.565,-1.281,-0.305,1.77,1
0.9489409999999996,0.636,0.526,0.557,-1.342,-0.122,1.77,1
0.9566019999999993,0.638,0.525,0.56,-1.098,-0.244,2.136,1
0.9647519999999998,0.64,0.526,0.562,-0.122,-0.549,1.953,1
0.9734509999999998,0.636,0.522,0.562,1.342,-0.671,2.258,1
0.9816500000000001,0.637,0.523,0.559,1.953,-0.671,2.746,1
0.9876119999999995,0.643,0.53,0.555,2.319,-0.854,2.929,1
0.9953389999999995,0.638,0.542,0.56,2.38,-1.098,3.112,1
1.0033589999999997,0.641,0.541,0.556,2.014,-0.915,3.295,1
1.0115759999999998,0.639,0.542,0.553,1.708,-1.159,3.112,1
1.0187019999999993,0.638,0.545,0.551,1.22,-0.976,3.112,1
1.0261149999999999,0.636,0.55,0.543,1.708,-1.22,2.929,1
1.0338180000000001,0.636,0.547,0.536,2.014,-1.281,2.807,1
1.0422449999999994,0.636,0.545,0.525,1.525,-1.525,2.929,1
1.0496409999999994,0.639,0.548,0.519,0.915,-2.136,2.868,1
1.0572929999999996,0.634,0.552,0.518,1.525,-2.868,2.868,1
1.066636,0.634,0.563,0.522,1.281,-3.173,2.746,1
1.073595,0.631,0.562,0.529,0.61,-3.417,2.685,1
1.0828749999999996,0.635,0.562,0.532,0.488,-3.479,2.502,1
1.089836,0.632,0.563,0.538,0.732,-3.967,2.624,1
1.0986029999999998,0.629,0.566,0.545,0.854,-4.516,2.38,1
1.1060119999999998,0.626,0.567,0.546,0.488,-4.516,2.258,1
1.1136949999999999,0.629,0.567,0.558,0.427,-4.76,2.38,1
1.1217509999999997,0.629,0.567,0.559,1.77,-4.882,1.953,1
1.1286040000000002,0.624,0.568,0.57,2.563,-5.187,1.77,1
1.137492,0.631,0.563,0.572,2.502,-5.004,1.953,1
1.1449739999999995,0.64,0.557,0.569,0.976,-4.943,1.647,1
1.152113,0.643,0.562,0.578,-0.427,-4.638,1.953,1
1.1613169999999995,0.638,0.562,0.578,-0.732,-4.821,1.953,1
1.1683240000000001,0.634,0.558,0.59,-1.403,-4.821,1.708,1
1.1761,0.64,0.551,0.591,-1.22,-5.004,1.647,1
1.1844969999999995,0.638,0.546,0.603,-0.671,-5.065,1.586,1
1.1915749999999994,0.637,0.539,0.612,0.244,-4.943,1.464,1
1.1991049999999994,0.636,0.528,0.616,0.732,-4.76,1.525,1
1.2067699999999997,0.634,0.519,0.619,1.281,-4.394,1.647,1
1.2157729999999995,0.634,0.502,0.619,1.159,-4.272,1.831,1
1.222855,0.639,0.489,0.622,0.244,-4.089,2.258,1
1.230162,0.64,0.476,0.626,0.915,-3.906,2.929,1
1.2377639999999994,0.633,0.473,0.643,2.746,-3.723,3.173,1
1.2454749999999999,0.614,0.459,0.646,4.272,-3.356,3.784,1
1.252872,0.604,0.443,0.653,3.479,-3.234,4.699,1
1.2614489999999998,0.599,0.431,0.666,2.685,-2.807,5.31,1
1.2694869999999998,0.598,0.411,0.679,1.586,-2.197,6.286,1
1.2766639999999994,0.59,0.384,0.688,0.671,-1.342,7.019,1
1.284001,0.589,0.354,0.697,0.366,-0.732,8.3,1
1.2925779999999998,0.601,0.319,0.703,-0.183,-0.244,9.338,1
1.2992979999999994,0.594,0.285,0.713,0.122,0.732,10.986,1
1.3069129999999998,0.594,0.257,0.733,1.831,1.464,12.756,1
1.3153509999999997,0.588,0.231,0.753,5.676,2.136,15.075,1
1.3228330000000001,0.577,0.208,0.782,8.544,2.685,17.639,1
1.3299969999999997,0.559,0.185,0.827,8.911,3.54,20.08,1
1.3408470000000001,0.577,0.153,0.889,10.803,4.638,22.094,1
1.34659,0.501,0.085,0.96,10.742,6.958,26.184,1
1.3564789999999993,0.533,0.018,1.044,2.929,8.728,29.052,1
1.3637489999999994,0.505,-0.041,1.172,0.61,11.352,32.836,1
1.3704399999999994,0.505,-0.128,1.341,7.812,13.854,37.048,1
1.3774920000000002,0.497,-0.222,1.492,20.812,16.54,41.687,1
1.3853489999999997,0.436,-0.334,1.687,31.127,20.324,47.79,1
1.3940799999999998,0.367,-0.425,1.929,38.452,25.756,54.809,1
1.4018350000000002,0.264,-0.495,2.265,52.551,34.057,63.964,1
1.4092820000000001,0.127,-0.56,2.576,66.711,41.87,72.875,1
1.4192770000000001,0.0,-0.606,2.906,77.026,51.574,82.153,1
1.4272329999999993,-0.185,-0.604,3.27,81.115,66.833,93.261,1
1.4341349999999995,-0.351,-0.592,3.541,78.491,81.97,103.149,1
1.4433859999999994,-0.475,-0.566,3.839,75.5,102.172,115.234,1
1.4509039999999995,-0.638,-0.525,4.069,76.721,121.276,125.427,1
1.4596010000000001,-0.744,-0.478,4.195,81.42,144.226,137.634,1
1.4675099999999999,-0.876,-0.405,4.313,87.463,164.611,147.766,1
1.4747959999999996,-1.057,-0.282,4.437,96.984,189.392,158.813,1
1.4825219999999995,-1.234,-0.153,4.514,100.219,211.914,167.48,1
1.4918699999999996,-1.428,-0.014,4.566,97.961,235.656,175.659,1
1.4989749999999997,-1.68,0.237,4.595,95.092,261.291,182.861,1
1.5073809999999996,-1.93,0.53,4.542,101.318,290.344,190.307,1
1.514405,-2.184,0.88,4.437,111.877,314.086,195.129,1
1.521706,-2.47,1.261,4.289,121.887,336.73,198.486,1
1.529287,-2.741,1.672,4.094,127.502,358.764,199.218,1
1.537579,-3.032,2.132,3.869,132.507,380.371,198.303,1
1.5470749999999995,-3.313,2.651,3.531,134.338,399.658,194.396,1
1.5543769999999997,-3.516,3.074,3.19,133.483,421.02,186.035,1
1.5615069999999998,-3.614,3.448,2.791,132.995,437.194,175.292,1
1.568828,-3.684,3.722,2.349,131.286,450.622,162.048,1
1.5765959999999994,-3.697,3.897,1.704,122.863,462.829,146.606,1
1.5843059999999998,-3.671,3.939,1.062,96.191,472.534,128.723,1
1.5919929999999995,-3.588,3.905,0.435,59.265,478.637,105.651,1
1.6016059999999994,-3.545,3.819,-0.121,39.184,477.233,84.228,1
1.608536,-3.418,3.649,-0.609,45.715,468.017,60.546,1
1.6165379999999994,-3.411,3.437,-0.855,67.077,460.144,43.518,1
1.6240619999999995,-3.395,3.188,-1.175,74.707,453.186,30.7,1
1.633222,-3.357,3.001,-1.459,62.744,445.739,19.592,1
1.640618,-3.279,2.821,-1.807,48.583,432.434,7.629,1
1.6496979999999999,-3.165,2.683,-2.023,52.673,420.532,-2.38,1
1.657991,-2.892,2.402,-2.407,53.649,405.029,-10.559,1
1.6648230000000002,-2.696,2.11,-2.541,40.527,388.122,-16.235,1
1.673895,-2.422,1.971,-2.796,24.353,371.52,-21.118,1
1.680384,-2.098,1.792,-2.899,24.353,351.867,-26.367,1
1.6898549999999997,-1.833,1.605,-3.02,21.484,332.336,-29.785,1
1.6972949999999996,-1.569,1.475,-3.146,7.507,313.476,-33.081,1
1.7062669999999995,-1.343,1.383,-3.23,1.403,291.381,-36.01,1
1.7142289999999996,-1.13,1.287,-3.281,-2.624,270.141,-39.062,1
1.72133,-0.914,1.166,-3.269,-3.906,249.572,-41.931,1
1.7295470000000002,-0.77,1.039,-3.226,-0.183,225.463,-44.799,1
1.738137,-0.574,0.863,-3.119,-0.244,203.124,-45.715,1
1.7469789999999996,-0.402,0.76,-3.012,0.244,184.509,-45.227,1
1.7546779999999993,-0.281,0.637,-2.843,1.281,164.001,-43.64,1
1.7624399999999998,-0.23,0.557,-2.637,4.272,148.437,-41.931,1
1.7716079999999996,-0.087,0.461,-2.414,15.686,134.887,-39.001,1
1.780304,0.021,0.374,-2.309,11.23,121.032,-34.423,1
1.7877739999999998,0.092,0.358,-2.193,8.117,109.924,-30.578,1
1.7950179999999998,0.163,0.33,-2.115,7.568,97.29,-26.794,1
1.8029459999999995,0.191,0.327,-2.043,8.85,86.669,-23.559,1
1.8097329999999996,0.213,0.338,-1.994,17.089,75.622,-20.385,1
1.8174579999999994,0.255,0.344,-1.944,26.672,64.27,-17.395,1
1.8259989999999995,0.274,0.341,-1.891,28.625,53.833,-14.282,1
1.8343679999999996,0.294,0.333,-1.812,21.789,44.494,-11.23,1
1.8420489999999994,0.321,0.359,-1.704,8.3,34.667,-7.568,1
1.8512879999999994,0.337,0.381,-1.595,-0.854,27.16,-5.187,1
1.8582839999999994,0.353,0.398,-1.47,-9.155,19.104,-2.136,1
1.867349,0.363,0.424,-1.375,-14.343,13.0,0.0,1
1.8741889999999994,0.394,0.469,-1.264,-10.742,6.347,1.708,1
1.8821079999999997,0.406,0.499,-1.182,1.342,-1.586,4.089,1
1.8911179999999996,0.409,0.51,-1.119,12.878,-7.934,5.737,1
1.8987419999999995,0.412,0.518,-1.036,19.836,-12.817,6.896,1
1.9067849999999993,0.429,0.522,-0.959,23.071,-17.456,8.422,1
1.9137879999999994,0.45,0.538,-0.896,24.475,-20.996,9.765,1
1.9233219999999998,0.469,0.557,-0.83,24.047,-23.559,11.108,1
1.9311660000000002,0.478,0.578,-0.773,23.803,-26.733,12.39,1
1.9382489999999999,0.478,0.602,-0.719,21.423,-28.564,13.122,1
1.9455739999999997,0.481,0.631,-0.672,16.113,-29.907,13.732,1
1.954523,0.501,0.671,-0.617,8.178,-30.7,14.343,1
1.9616470000000001,0.517,0.716,-0.572,-3.051,-30.883,14.282,1
1.9707539999999995,0.529,0.756,-0.536,-8.789,-31.188,13.488,1
1.9789409999999998,0.554,0.796,-0.503,-8.056,-31.738,12.573,1
1.9868749999999995,0.569,0.816,-0.494,-3.112,-32.897,11.657,1
1.994395,0.57,0.827,-0.472,4.516,-33.935,10.498,1
2.003157,0.578,0.833,-0.459,9.948,-35.034,9.338,1
2.0103349999999995,0.59,0.828,-0.435,14.099,-35.583,8.056,1
2.019455,0.598,0.826,-0.418,14.038,-35.461,6.713,1
2.0264049999999996,0.597,0.833,-0.407,12.695,-35.278,5.554,1
2.033989,0.601,0.849,-0.392,12.268,-35.034,4.333,1
2.0424239999999996,0.599,0.86,-0.376,12.878,-34.973,2.929,1
2.0493119999999996,0.601,0.856,-0.364,12.145,-34.667,1.342,1
2.0569319999999998,0.598,0.851,-0.351,8.483,-33.691,-0.488,1
2.0655849999999996,0.599,0.851,-0.336,3.112,-32.287,-1.892,1
2.073701,0.596,0.852,-0.342,1.77,-32.409,-3.784,1
2.0820799999999995,0.603,0.842,-0.318,2.197,-31.799,-5.065,1
2.088661,0.606,0.826,-0.309,3.051,-31.494,-6.164,1
2.0980659999999993,0.621,0.816,-0.292,6.652,-30.822,-6.958,1
2.1047469999999997,0.638,0.785,-0.287,7.446,-30.151,-8.056,1
2.111866,0.639,0.762,-0.284,3.295,-28.503,-8.666,1
2.121251,0.648,0.746,-0.282,-2.319,-27.282,-8.666,1
2.128171,0.664,0.744,-0.267,-6.103,-26.123,-8.972,1
2.136774,0.673,0.744,-0.262,-7.019,-25.085,-8.911,1
2.1438109999999995,0.679,0.737,-0.256,-7.324,-23.742,-9.033,1
2.151961,0.682,0.732,-0.263,-10.192,-22.399,-8.666,1
2.16094,0.692,0.737,-0.263,-14.953,-20.812,-8.483,1
2.169656,0.699,0.74,-0.272,-18.249,-19.348,-8.361,1
2.1767319999999994,0.695,0.744,-0.288,-19.165,-19.042,-8.117,1
2.1856529999999994,0.687,0.74,-0.3,-19.653,-18.005,-8.483,1
2.193732,0.689,0.734,-0.317,-21.362,-17.761,-8.483,1
2.202872,0.679,0.737,-0.314,-20.751,-17.456,-8.483,1
2.209836,0.677,0.728,-0.313,-19.165,-17.395,-8.911,1
2.2187279999999996,0.684,0.715,-0.318,-16.54,-17.639,-9.277,1
2.2265879999999996,0.679,0.702,-0.317,-14.16,-17.578,-9.521,1
2.235221,0.674,0.687,-0.317,-13.671,-17.578,-9.948,1
2.2427909999999995,0.676,0.687,-0.321,-13.427,-17.7,-10.131,1
2.2510059999999994,0.675,0.678,-0.321,-14.526,-17.944,-10.253,1
2.25859,0.68,0.675,-0.33,-16.418,-18.249,-10.559,1
2.266655,0.682,0.661,-0.329,-18.188,-18.493,-10.681,1
2.2760419999999995,0.685,0.661,-0.33,-18.737,-18.859,-10.498,1
2.2833369999999995,0.682,0.657,-0.323,-17.517,-19.165,-10.498,1
2.2927479999999996,0.681,0.645,-0.314,-16.357,-19.348,-10.192,1
2.3001199999999997,0.687,0.631,-0.302,-15.869,-19.287,-9.826,1
2.3078659999999998,0.681,0.624,-0.278,-14.404,-18.554,-9.887,1
2.316954,0.684,0.616,-0.264,-9.765,-18.859,-9.887,1
2.324883,0.691,0.589,-0.23,-4.821,-18.127,-9.399,1
2.3334839999999994,0.699,0.575,-0.216,-3.54,-17.395,-8.728,1
2.3406779999999996,0.706,0.568,-0.202,-3.479,-16.479,-8.056,1
2.349792,0.722,0.567,-0.189,-3.54,-15.563,-7.873,1
2.3579729999999994,0.728,0.566,-0.173,-2.929,-14.465,-7.263,1
2.3651039999999997,0.731,0.548,-0.175,-3.906,-13.0,-6.591,1
2.374607,0.739,0.544,-0.188,-7.324,-11.779,-5.981,1
2.381481,0.738,0.535,-0.201,-10.498,-10.681,-4.943,1
2.3903789999999994,0.754,0.524,-0.222,-13.244,-9.155,-4.089,1
2.3992329999999997,0.764,0.522,-0.258,-14.892,-8.056,-2.929,1
2.4063469999999993,0.757,0.525,-0.29,-14.77,-7.69,-1.708,1
2.4156899999999997,0.752,0.542,-0.324,-12.329,-7.812,-0.488,1
2.422791,0.742,0.581,-0.32,-6.103,-8.972,0.366,1
2.4305499999999993,0.727,0.608,-0.317,0.488,-9.887,0.915,1
2.4391469999999993,0.702,0.616,-0.309,2.258,-10.437,1.037,1
2.4472329999999998,0.684,0.624,-0.287,1.831,-10.803,1.037,1
2.4543469999999994,0.674,0.628,-0.259,3.601,-10.986,0.732,1
2.4618599999999997,0.673,0.628,-0.251,8.178,-10.925,0.549,1
2.470821,0.678,0.618,-0.242,11.84,-10.803,0.488,1
2.4779839999999993,0.667,0.603,-0.254,13.061,-10.131,0.427,1
2.4852619999999996,0.666,0.584,-0.263,12.39,-9.704,0.488,1
2.493068,0.665,0.576,-0.273,11.535,-9.155,1.098,1
2.502394,0.667,0.582,-0.271,11.718,-9.094,1.77,1
2.510846,0.657,0.597,-0.235,10.742,-8.911,2.868,1
2.5182919999999998,0.653,0.61,-0.209,6.53,-8.728,3.662,1
2.527534,0.653,0.623,-0.178,-0.366,-7.812,4.394,1
2.534523,0.659,0.636,-0.162,-7.507,-5.92,4.943,1
2.5432829999999997,0.668,0.645,-0.153,-10.986,-4.638,5.065,1
2.550052,0.67,0.646,-0.144,-10.437,-2.868,5.432,1
2.55856,0.676,0.651,-0.146,-8.117,-1.77,5.126,1
2.5670849999999996,0.679,0.651,-0.152,-5.615,-0.427,5.432,1
2.57414,0.681,0.655,-0.163,-2.563,0.61,5.615,1
2.5816289999999995,0.677,0.658,-0.186,-0.061,1.403,5.676,1
2.590839,0.677,0.666,-0.195,3.601,2.319,5.493,1
2.5981999999999994,0.671,0.677,-0.203,7.446,2.441,5.493,1
2.6049949999999997,0.666,0.685,-0.202,10.559,2.868,5.493,1
2.6131589999999996,0.67,0.679,-0.205,11.779,3.295,5.126,1
2.621047,0.666,0.674,-0.209,10.009,4.15,5.004,1
2.6295129999999993,0.665,0.66,-0.214,7.385,5.371,4.821,1
2.63622,0.668,0.659,-0.229,4.638,5.981,4.943,1
2.6438429999999995,0.677,0.663,-0.243,1.708,6.958,5.065,1
2.651432,0.683,0.661,-0.257,-1.525,7.812,5.126,1
2.6605979999999994,0.687,0.665,-0.274,-4.394,8.361,5.126,1
2.668908,0.694,0.667,-0.289,-5.737,8.728,5.371,1
2.676368,0.702,0.666,-0.299,-5.92,8.789,5.371,1
2.6836889999999993,0.696,0.664,-0.298,-4.699,8.422,5.554,1
2.6908119999999993,0.678,0.676,-0.306,-2.319,8.544,5.859,1
2.700048,0.68,0.678,-0.307,-0.549,8.422,5.737,1
2.707255,0.677,0.691,-0.307,3.112,8.361,6.103,1
2.714786,0.675,0.69,-0.314,5.859,8.3,6.103,1
2.7224269999999997,0.669,0.692,-0.317,6.286,8.544,6.103,1
2.7323129999999995,0.672,0.695,-0.315,5.371,8.911,5.859,1
2.7393099999999997,0.666,0.709,-0.323,3.845,8.972,5.615,1
2.7460499999999994,0.67,0.711,-0.335,1.892,9.216,5.554,1
2.753705,0.666,0.715,-0.345,-1.831,9.094,5.187,1
2.7615049999999997,0.664,0.71,-0.348,-4.882,9.338,4.821,1
2.7693779999999997,0.665,0.708,-0.356,-7.507,9.216,4.394,1
2.7780689999999995,0.663,0.706,-0.359,-7.934,8.85,4.333,1
2.785335,0.664,0.705,-0.365,-6.347,8.544,4.272,1
2.7929389999999996,0.669,0.715,-0.37,-3.784,7.873,4.455,1
2.8010919999999997,0.661,0.724,-0.379,-1.892,7.263,4.15,1
2.810262,0.663,0.722,-0.38,-2.746,6.835,3.845,1
2.8178029999999996,0.66,0.727,-0.368,-4.516,6.774,3.417,1
2.824795,0.671,0.729,-0.368,-6.53,6.408,3.051,1
2.8325569999999995,0.671,0.731,-0.356,-8.605,6.469,2.563,1
2.84033,0.669,0.736,-0.354,-9.887,6.225,2.197,1
2.8493379999999995,0.675,0.744,-0.348,-10.498,6.164,1.708,1
2.856369,0.677,0.752,-0.345,-10.314,5.737,1.342,1
2.8645949999999996,0.679,0.754,-0.339,-10.62,5.798,0.854,1
2.872904,0.687,0.75,-0.345,-11.962,5.615,0.61,1
2.879727,0.689,0.75,-0.346,-12.939,5.432,0.122,1
2.887753,0.682,0.748,-0.346,-13.793,5.737,-0.549,1
2.8953989999999994,0.683,0.75,-0.349,-14.404,5.615,-0.915,1
2.904001,0.681,0.759,-0.345,-13.305,5.432,-1.403,1
2.9111719999999996,0.682,0.759,-0.342,-12.39,5.249,-1.892,1
2.919524,0.67,0.761,-0.341,-10.681,5.92,-2.502,1
2.927365,0.666,0.757,-0.334,-10.437,5.676,-3.173,1
2.9360919999999995,0.657,0.753,-0.321,-11.047,6.042,-3.784,1
2.9433729999999994,0.66,0.759,-0.309,-10.803,6.164,-4.272,1
2.9511319999999994,0.656,0.749,-0.308,-10.986,6.835,-5.065,1
2.960006,0.663,0.753,-0.309,-12.512,7.263,-5.432,1
2.968864,0.663,0.75,-0.319,-13.488,7.568,-5.981,1
2.975944,0.666,0.75,-0.321,-14.099,8.239,-6.591,1
2.983531,0.666,0.745,-0.333,-13.427,8.361,-7.202,1
2.992387,0.654,0.735,-0.349,-11.962,8.605,-7.69,1
3.0003639999999994,0.656,0.716,-0.362,-11.962,8.972,-8.361,1
3.0089829999999997,0.661,0.709,-0.368,-11.901,9.094,-8.789,1
3.015987,0.645,0.699,-0.378,-11.352,9.033,-9.033,1
3.0237479999999994,0.666,0.687,-0.385,-8.605,8.85,-9.216,1
3.0315779999999997,0.657,0.675,-0.405,-5.371,8.422,-9.216,1
3.0406259999999996,0.654,0.654,-0.421,-3.112,8.3,-9.338,1
3.0481179999999997,0.652,0.628,-0.433,-3.234,7.873,-9.277,1
3.056153,0.654,0.601,-0.45,-6.286,7.812,-9.033,1
3.0639449999999995,0.661,0.585,-0.459,-10.253,7.263,-8.666,1
3.0716779999999995,0.66,0.578,-0.458,-11.901,6.286,-7.751,1
3.0812529999999994,0.658,0.573,-0.456,-10.009,5.798,-7.263,1
3.0883439999999993,0.654,0.566,-0.461,-7.08,4.882,-6.347,1
3.0952,0.654,0.552,-0.46,-5.371,4.272,-5.859,1
3.102932,0.655,0.543,-0.461,-4.211,3.54,-4.882,1
3.1105799999999997,0.659,0.542,-0.465,-3.479,3.112,-4.028,1
3.119553,0.664,0.548,-0.459,-1.098,2.441,-3.356,1
3.1267769999999997,0.655,0.55,-0.458,1.098,1.77,-2.685,1
3.1357469999999994,0.645,0.549,-0.458,2.868,1.22,-2.075,1
3.1435309999999994,0.641,0.536,-0.459,2.99,0.854,-1.403,1
3.1509169999999997,0.64,0.533,-0.465,2.014,0.488,-0.732,1
3.1581859999999997,0.643,0.529,-0.459,0.61,0.0,0.0,1
