timestamp_s,ax,ay,az,gx,gy,gz,label
0.0,-0.762,-0.057,0.01,97.656,-41.198,-52.001,1
0.008376999999999999,-0.425,-0.12,0.051,105.285,-34.667,-38.696,1
0.014898999999999999,-0.125,-0.134,-0.018,108.581,-25.695,-24.902,1
0.022578,0.024,-0.128,-0.146,96.069,-22.705,-13.427,1
0.030588,0.056,-0.051,-0.231,65.551,-23.254,-4.089,1
0.038597000000000006,-0.005,0.071,-0.265,21.301,-20.812,5.981,1
0.046512,-0.075,0.331,-0.359,-39.184,-21.118,13.854,1
0.054108,-0.223,0.621,-0.359,-78.063,-22.644,16.723,1
0.062213000000000004,-0.356,0.902,-0.379,-87.585,-24.841,17.395,1
0.06996100000000001,-0.413,1.143,-0.376,-63.293,-30.7,15.869,1
0.07677300000000001,-0.418,1.315,-0.385,-13.793,-36.56,12.634,1
0.084706,-0.415,1.428,-0.412,42.114,-44.433,8.3,1
0.093095,-0.372,1.485,-0.433,91.979,-50.537,3.173,1
0.09969,-0.343,1.517,-0.46,125.549,-56.518,-2.685,1
0.10723300000000001,-0.34,1.534,-0.457,139.343,-59.509,-8.605,1
0.114593,-0.343,1.509,-0.457,132.385,-60.791,-14.709,1
0.122723,-0.303,1.502,-0.421,113.647,-60.058,-20.69,1
0.13075900000000001,-0.252,1.467,-0.39,88.195,-57.739,-25.756,1
0.138194,-0.182,1.453,-0.359,57.617,-56.03,-30.151,1
0.146596,-0.162,1.466,-0.325,33.935,-53.039,-35.156,1
0.154719,-0.174,1.481,-0.324,21.606,-51.757,-39.489,1
0.161671,-0.183,1.479,-0.331,9.826,-50.476,-43.334,1
0.16985,-0.204,1.491,-0.358,-5.676,-50.048,-47.912,1
0.176948,-0.257,1.509,-0.371,-17.089,-50.231,-51.391,1
0.185229,-0.298,1.543,-0.379,-19.47,-51.757,-54.626,1
0.193384,-0.297,1.572,-0.371,-9.582,-54.199,-57.922,1
0.201316,-0.291,1.577,-0.374,7.568,-56.762,-61.34,1
0.209734,-0.289,1.58,-0.376,27.77,-60.119,-65.185,1
0.21657400000000002,-0.281,1.577,-0.387,41.381,-62.194,-68.176,1
0.22470500000000002,-0.288,1.57,-0.4,45.898,-62.988,-71.716,1
0.232626,-0.3,1.578,-0.42,39.245,-62.927,-75.256,1
0.239065,-0.324,1.586,-0.442,23.742,-62.622,-79.04,1
0.24727500000000002,-0.344,1.604,-0.454,6.835,-62.377,-82.763,1
0.25424,-0.362,1.621,-0.463,-7.873,-62.499,-86.547,1
0.262742,-0.375,1.638,-0.454,-14.221,-63.659,-89.599,1
0.271005,-0.377,1.659,-0.45,-11.962,-65.185,-92.895,1
0.27853100000000003,-0.372,1.673,-0.44,-3.845,-67.138,-95.825,1
0.287238,-0.38,1.688,-0.445,6.896,-68.908,-99.243,1
0.294689,-0.377,1.69,-0.436,14.16,-70.129,-102.539,1
0.30343,-0.363,1.691,-0.429,19.47,-70.556,-105.59,1
0.310065,-0.352,1.687,-0.447,19.104,-70.922,-109.191,1
0.317919,-0.367,1.686,-0.45,13.854,-70.678,-112.548,1
0.326278,-0.362,1.702,-0.462,3.723,-70.129,-115.417,1
0.33332,-0.371,1.715,-0.479,-13.061,-69.641,-118.713,1
0.34056000000000003,-0.379,1.751,-0.476,-29.907,-69.396,-122.192,1
0.349392,-0.395,1.777,-0.479,-44.799,-69.763,-125.854,1
0.356174,-0.408,1.799,-0.481,-57.067,-69.946,-129.089,1
0.364127,-0.428,1.794,-0.501,-68.603,-71.289,-131.896,1
0.371132,-0.384,1.842,-0.458,-67.749,-73.852,-135.131,1
0.379473,-0.387,1.836,-0.462,-57.8,-74.89,-137.573,1
0.386425,-0.383,1.857,-0.463,-45.349,-78.735,-141.235,1
0.394341,-0.403,1.854,-0.441,-33.203,-78.857,-144.165,1
0.401324,-0.384,1.841,-0.472,-36.621,-80.383,-147.644,1
0.409151,-0.399,1.83,-0.438,-51.635,-79.162,-151.0,1
0.417085,-0.452,1.824,-0.44,-69.091,-77.514,-154.968,1
0.425413,-0.525,1.736,-0.518,-90.332,-76.965,-158.386,1
0.432089,-0.491,1.793,-0.409,-115.905,-76.538,-162.475,1
0.440108,-0.534,1.757,-0.455,-118.591,-75.195,-165.71,1
0.44697,-0.556,1.737,-0.397,-129.15,-79.711,-169.555,1
0.455745,-0.539,1.693,-0.355,-125.732,-77.453,-171.264,1
0.464198,-0.528,1.69,-0.38,-128.723,-81.604,-174.987,1
0.472162,-0.593,1.696,-0.455,-129.699,-75.012,-176.513,1
0.480406,-0.517,1.592,-0.558,-164.062,-83.374,-180.725,1
0.488648,-0.554,1.526,-0.505,-192.626,-75.927,-181.762,1
0.49742899999999995,-0.64,1.502,-0.605,-218.872,-81.97,-183.776,1
0.5058619999999999,-0.716,1.498,-0.554,-231.079,-80.749,-183.166,1
0.5146219999999999,-0.679,1.501,-0.627,-222.412,-89.05,-183.227,1
0.521632,-0.625,1.465,-0.602,-193.908,-93.139,-182.8,1
0.530484,-0.593,1.423,-0.665,-171.997,-100.463,-182.617,1
0.5374199999999999,-0.577,1.4,-0.665,-156.127,-104.858,-181.945,1
0.546229,-0.545,1.381,-0.719,-143.981,-111.572,-181.03,1
0.5546639999999999,-0.534,1.374,-0.719,-132.568,-117.248,-179.87,1
0.5617949999999999,-0.509,1.348,-0.745,-116.943,-123.291,-178.649,1
0.570108,-0.57,1.302,-0.748,-98.327,-130.004,-177.246,1
0.5771959999999999,-0.522,1.239,-0.735,-74.646,-137.39,-175.598,1
0.585536,-0.441,1.159,-0.694,-56.152,-142.883,-174.133,1
0.592594,-0.412,1.075,-0.628,-37.902,-147.949,-173.4,1
0.601169,-0.439,0.983,-0.563,-26.367,-150.024,-172.241,1
0.609486,-0.423,0.887,-0.509,-35.339,-150.085,-171.813,1
0.617745,-0.416,0.814,-0.42,-57.678,-148.986,-171.203,1
0.6258929999999999,-0.437,0.783,-0.314,-84.167,-147.094,-171.081,1
0.6353329999999999,-0.455,0.754,-0.191,-102.294,-145.263,-170.776,1
0.6423709999999999,-0.45,0.727,-0.087,-109.558,-144.47,-170.898,1
0.6499229999999999,-0.455,0.668,0.034,-111.022,-143.615,-170.837,1
0.65774,-0.403,0.603,0.115,-110.534,-142.761,-171.081,1
0.66616,-0.34,0.531,0.209,-110.412,-141.357,-170.898,1
0.673959,-0.287,0.432,0.296,-110.961,-139.648,-169.921,1
0.682167,-0.201,0.321,0.408,-112.243,-136.596,-167.785,1
0.691021,-0.162,0.239,0.492,-115.783,-133.422,-165.039,1
0.699519,-0.07,0.208,0.568,-117.614,-128.723,-161.743,1
0.7076859999999999,-0.078,0.171,0.605,-119.873,-125.549,-158.569,1
0.714298,-0.062,0.122,0.633,-122.314,-121.643,-155.517,1
0.722599,-0.068,0.096,0.655,-124.877,-117.797,-151.123,1
0.731012,-0.076,0.103,0.644,-121.215,-114.013,-146.972,1
0.739833,-0.067,0.117,0.608,-113.586,-112.121,-143.737,1
0.746516,-0.054,0.137,0.557,-98.022,-109.68,-140.808,1
0.7552129999999999,-0.076,0.141,0.506,-87.097,-108.825,-138.183,1
0.7632639999999999,-0.129,0.154,0.434,-85.083,-107.177,-136.352,1
0.771307,-0.183,0.166,0.333,-99.792,-106.872,-135.07,1
0.7781269999999999,-0.194,0.186,0.286,-114.318,-106.75,-133.422,1
0.788268,-0.212,0.227,0.215,-114.257,-109.252,-132.934,1
0.794967,-0.292,0.24,0.149,-97.106,-114.074,-133.544,1
0.802894,-0.407,0.196,0.12,-85.388,-116.76,-134.521,1
0.8110329999999999,-0.443,0.091,0.048,-93.017,-118.896,-135.62,1
0.81897,-0.475,0.0,0.004,-115.051,-121.52,-136.108,1
0.82541,-0.492,-0.066,-0.014,-134.643,-124.389,-135.925,1
0.83315,-0.55,-0.145,-0.038,-146.057,-129.028,-134.399,1
0.8419319999999999,-0.599,-0.22,-0.058,-148.986,-134.948,-132.812,1
0.8485499999999999,-0.666,-0.314,-0.055,-144.47,-141.296,-131.103,1
0.8573949999999999,-0.703,-0.422,-0.045,-142.333,-146.85,-127.563,1
0.8639549999999999,-0.74,-0.507,-0.076,-143.798,-152.465,-123.474,1
0.872508,-0.801,-0.584,-0.094,-145.69,-158.386,-118.53,1
0.879103,-0.865,-0.659,-0.129,-147.277,-164.611,-112.854,1
0.887214,-0.932,-0.744,-0.181,-157.653,-171.874,-105.651,1
0.8950469999999999,-1.023,-0.791,-0.204,-168.09,-177.673,-96.984,1
0.902102,-1.091,-0.794,-0.248,-164.489,-186.035,-88.012,1
0.909909,-1.199,-0.819,-0.264,-144.836,-195.861,-78.674,1
0.918183,-1.294,-0.842,-0.266,-113.281,-207.214,-69.335,1
0.926573,-1.39,-0.918,-0.256,-80.322,-220.214,-58.471,1
0.9355479999999999,-1.531,-0.946,-0.26,-59.936,-230.285,-50.292,1
0.9432459999999999,-1.699,-1.028,-0.279,-46.997,-242.736,-39.672,1
0.951266,-1.779,-1.094,-0.29,-45.227,-251.953,-29.296,1
0.9594969999999999,-1.914,-1.156,-0.296,-47.912,-263.183,-17.639,1
0.9673449999999999,-2.057,-1.236,-0.312,-66.162,-274.78,-2.685,1
0.974008,-2.33,-1.239,-0.295,-91.186,-285.4,11.657,1
0.9823019999999999,-2.416,-1.229,-0.223,-103.881,-295.837,27.893,1
0.9902359999999999,-2.593,-1.306,-0.213,-128.967,-305.053,46.936,1
0.9985109999999999,-2.825,-1.355,-0.145,-178.222,-311.767,69.091,1
1.006407,-2.913,-1.3,-0.023,-212.768,-318.969,98.449,1
1.0147169999999999,-3.209,-1.251,0.09,-222.045,-325.073,125.305,1
1.023545,-3.353,-1.264,0.23,-216.979,-331.481,158.752,1
1.030418,-3.573,-1.211,0.348,-217.651,-335.266,187.133,1
1.037928,-3.843,-1.187,0.454,-223.022,-337.585,216.735,1
1.046527,-3.974,-1.156,0.551,-233.581,-336.12,247.924,1
1.054646,-4.396,-1.149,0.688,-266.113,-332.458,282.287,1
1.061412,-4.714,-1.001,0.729,-304.199,-320.739,323.974,1
1.069742,-5.096,-0.875,0.864,-311.828,-314.209,360.9,1
1.078336,-5.158,-1.08,1.016,-359.497,-292.48,411.987,1
1.0872979999999999,-5.532,-0.995,1.088,-404.602,-271.362,455.627,1
1.093925,-6.101,-0.791,1.377,-410.888,-246.582,499.389,1
1.1023049999999999,-6.664,-0.662,1.515,-366.577,-219.97,546.569,1
1.109245,-7.174,-0.584,1.735,-314.331,-197.082,583.19,1
1.117478,-7.66,-0.576,1.846,-279.663,-172.546,617.065,1
1.125343,-8.385,-0.536,1.908,-284.057,-143.188,650.756,1
1.133168,-9.117,-0.418,1.842,-322.387,-108.886,684.997,1
1.1412149999999999,-10.071,-0.151,1.797,-369.14,-68.298,719.116,1
1.1482649999999999,-10.825,0.136,1.722,-392.028,-19.104,757.324,1
1.1566319999999999,-11.582,0.44,1.658,-367.614,19.836,786.987,1
1.164495,-12.29,0.732,1.563,-324.768,53.161,811.706,1
1.172209,-12.883,0.995,1.496,-274.414,81.298,832.336,1
1.178811,-13.37,1.233,1.44,-226.867,105.773,849.06,1
1.1870669999999999,-13.858,1.442,1.41,-192.504,128.784,862.792,1
1.193724,-14.373,1.626,1.377,-181.823,154.479,873.596,1
1.2012319999999999,-15.27,1.855,1.355,-207.031,185.974,882.568,1
1.209511,-15.871,2.09,1.308,-243.164,226.989,885.559,1
1.216594,-15.996,2.278,1.207,-292.663,272.277,884.399,1
1.2243,-15.999,2.391,1.052,-327.758,321.716,879.577,1
1.232821,-15.999,2.448,0.806,-386.474,372.497,868.286,1
1.2405059999999999,-15.999,2.526,0.671,-467.651,432.8,849.304,1
1.24766,-15.999,2.629,0.479,-543.212,502.014,821.777,1
1.255302,-15.999,2.705,0.247,-599.182,573.181,786.498,1
1.262159,-15.999,2.94,0.108,-588.745,635.925,745.117,1
1.270649,-15.999,2.729,-0.173,-577.575,697.021,703.979,1
1.2776699999999999,-15.999,2.549,-0.464,-646.545,748.535,657.47,1
1.286255,-15.999,2.479,-0.622,-735.229,813.842,597.717,1
1.292991,-15.999,2.383,-1.049,-843.566,862.121,520.019,1
1.300899,-15.999,2.246,-1.384,-940.49,913.207,425.964,1
1.307825,-15.999,2.211,-1.809,-1019.897,943.664,316.223,1
1.31619,-15.999,2.171,-2.022,-1078.796,961.486,195.19,1
1.3227929999999999,-15.273,1.961,-2.258,-1119.69,956.603,70.007,1
1.332299,-13.872,1.651,-2.408,-1133.667,931.64,-52.856,1
1.3386689999999999,-12.432,1.236,-2.457,-1136.108,882.385,-166.259,1
1.346932,-11.082,0.994,-2.103,-1105.957,814.086,-265.625,1
1.354076,-9.953,0.905,-1.747,-948.913,721.313,-352.233,1
1.3622189999999998,-8.884,0.777,-1.461,-727.905,634.033,-398.681,1
1.370317,-7.781,0.512,-1.304,-484.741,557.678,-421.569,1
1.378628,-6.915,0.093,-1.387,-276.55,488.464,-425.537,1
1.386278,-6.467,-0.14,-1.563,-193.847,444.763,-418.762,1
1.3948779999999998,-6.116,-0.239,-1.726,-162.353,406.616,-410.095,1
1.401872,-5.751,-0.305,-1.818,-154.907,374.816,-403.564,1
1.409868,-5.443,-0.478,-1.932,-189.575,346.496,-398.62,1
1.418644,-5.211,-0.652,-2.002,-260.253,325.317,-397.338,1
1.426533,-4.754,-0.865,-2.019,-355.468,303.649,-397.216,1
1.434853,-4.434,-0.995,-1.954,-441.589,277.16,-396.606,1
1.441651,-3.986,-1.036,-1.813,-473.266,236.938,-393.249,1
1.450073,-3.608,-1.048,-1.687,-422.485,195.861,-386.779,1
1.458296,-3.359,-1.066,-1.595,-316.406,153.503,-376.953,1
1.4649729999999999,-3.113,-1.146,-1.542,-195.19,116.699,-364.135,1
1.474446,-3.044,-1.294,-1.589,-124.267,90.026,-350.158,1
1.48119,-2.713,-1.441,-1.626,-101.989,64.392,-332.092,1
1.489266,-2.471,-1.463,-1.536,-85.937,48.583,-316.589,1
1.497716,-2.142,-1.521,-1.49,-73.059,34.729,-301.391,1
1.5041179999999998,-1.892,-1.558,-1.416,-69.763,21.545,-283.874,1
1.512073,-1.698,-1.56,-1.345,-75.561,14.526,-271.301,1
1.5205359999999999,-1.487,-1.608,-1.32,-92.468,6.408,-255.676,1
1.528498,-1.351,-1.558,-1.251,-109.985,-1.77,-237.792,1
1.5362689999999999,-1.208,-1.529,-1.205,-100.952,-12.207,-222.473,1
1.544951,-1.078,-1.511,-1.128,-63.964,-24.169,-205.261,1
1.553123,-0.962,-1.547,-1.112,-33.569,-33.142,-190.856,1
1.559838,-0.89,-1.54,-1.069,-14.282,-39.428,-177.307,1
1.568989,-0.814,-1.584,-1.028,-10.498,-44.128,-162.841,1
1.5770899999999999,-0.759,-1.563,-0.999,-11.596,-47.119,-147.033,1
1.583885,-0.683,-1.554,-0.963,-15.502,-49.438,-133.85,1
1.592616,-0.613,-1.51,-0.935,-20.385,-50.781,-121.154,1
1.599583,-0.52,-1.453,-0.916,-27.832,-52.734,-106.872,1
1.609264,-0.478,-1.391,-0.903,-35.339,-53.71,-94.97,1
1.616045,-0.406,-1.301,-0.892,-40.405,-55.419,-84.35,1
1.62405,-0.361,-1.229,-0.865,-38.024,-57.861,-72.448,1
1.632511,-0.307,-1.166,-0.848,-34.484,-60.119,-63.293,1
1.640239,-0.241,-1.088,-0.822,-32.348,-61.645,-53.344,1
1.648506,-0.202,-1.027,-0.824,-33.203,-62.744,-45.654,1
1.6562759999999999,-0.177,-0.954,-0.824,-34.118,-64.086,-38.635,1
1.664497,-0.097,-0.894,-0.848,-35.583,-65.002,-31.494,1
1.672173,-0.08,-0.856,-0.872,-48.4,-66.528,-25.939,1
1.679104,-0.038,-0.808,-0.87,-60.729,-67.077,-21.057,1
1.687055,0.024,-0.745,-0.855,-60.241,-69.091,-16.418,1
1.6950209999999999,0.058,-0.709,-0.833,-49.926,-71.96,-12.084,1
1.701972,0.113,-0.701,-0.818,-37.353,-74.951,-7.507,1
1.7107459999999999,0.168,-0.71,-0.786,-26.794,-78.063,-3.479,1
1.719496,0.221,-0.719,-0.728,-19.897,-78.491,1.525,1
1.7261849999999999,0.278,-0.716,-0.695,-20.69,-78.735,5.737,1
1.734685,0.328,-0.701,-0.656,-24.353,-78.002,10.498,1
1.7429919999999999,0.344,-0.66,-0.628,-28.564,-77.514,14.77,1
1.749676,0.372,-0.616,-0.576,-29.479,-76.843,18.859,1
1.7584899999999999,0.403,-0.578,-0.516,-30.151,-75.378,23.559,1
1.765137,0.43,-0.555,-0.464,-33.691,-73.181,27.099,1
1.773331,0.458,-0.527,-0.417,-39.55,-70.495,30.456,1
1.780476,0.488,-0.511,-0.369,-45.776,-67.565,33.996,1
1.789687,0.507,-0.489,-0.328,-50.476,-64.88,37.658,1
1.7964529999999999,0.552,-0.46,-0.285,-52.49,-62.194,41.076,1
1.8046799999999998,0.577,-0.421,-0.255,-49.865,-59.387,45.043,1
1.813463,0.596,-0.397,-0.235,-45.959,-57.067,47.851,1
1.820157,0.618,-0.378,-0.214,-44.494,-54.748,50.903,1
1.82839,0.651,-0.355,-0.196,-44.738,-52.429,53.466,1
1.837953,0.679,-0.33,-0.171,-43.334,-50.17,55.969,1
1.846238,0.706,-0.299,-0.148,-41.687,-47.79,58.776,1
1.8539459999999999,0.716,-0.262,-0.139,-41.625,-45.349,60.791,1
1.8604559999999999,0.709,-0.226,-0.143,-42.297,-43.212,62.377,1
1.8692119999999999,0.699,-0.179,-0.137,-43.457,-40.893,64.147,1
1.875969,0.693,-0.152,-0.145,-45.227,-38.879,65.246,1
1.8854659999999999,0.685,-0.129,-0.147,-48.034,-35.949,66.65,1
1.892239,0.695,-0.107,-0.157,-50.231,-33.508,67.993,1
1.900644,0.706,-0.073,-0.165,-51.086,-30.883,68.908,1
1.909035,0.721,-0.046,-0.179,-52.856,-28.808,70.007,1
1.9161169999999998,0.73,-0.024,-0.185,-55.175,-26.123,71.166,1
1.924586,0.737,-0.006,-0.2,-57.739,-24.23,71.411,1
1.930685,0.745,0.015,-0.206,-61.645,-21.911,72.082,1
1.938921,0.744,0.028,-0.222,-66.528,-19.897,72.57,1
1.947323,0.775,0.041,-0.231,-70.19,-18.005,73.12,1
1.9542089999999999,0.784,0.062,-0.241,-71.35,-16.418,73.669,1
1.9626029999999999,0.77,0.082,-0.242,-71.35,-14.648,73.73,1
1.971069,0.764,0.084,-0.252,-72.265,-12.512,74.096,1
1.977736,0.759,0.084,-0.258,-74.89,-10.314,74.707,1
1.9858099999999999,0.766,0.094,-0.278,-77.209,-8.3,75.378,1
1.994392,0.769,0.106,-0.293,-76.599,-6.713,76.11,1
2.002755,0.76,0.112,-0.296,-72.265,-5.371,76.66,1
2.0112769999999998,0.725,0.123,-0.304,-65.246,-4.577,76.477,1
2.018278,0.794,0.104,-0.313,-59.814,-3.051,77.148,1
2.025294,0.821,0.095,-0.336,-57.556,-1.647,77.453,1
2.035327,0.867,0.087,-0.364,-59.448,-0.244,77.819,1
2.041916,0.905,0.065,-0.393,-65.856,1.098,78.552,1
2.048515,0.887,0.051,-0.423,-77.27,3.723,79.467,1
2.055763,0.852,0.056,-0.457,-88.073,4.821,80.383,1
2.063616,0.882,0.058,-0.466,-95.092,6.469,81.237,1
2.070602,0.874,0.057,-0.494,-101.501,7.446,81.848,1
2.078492,0.911,0.058,-0.479,-104.736,8.605,82.763,1
2.085568,0.92,0.059,-0.503,-106.201,8.789,83.862,1
2.092587,1.038,0.033,-0.513,-108.154,8.3,85.998,1
2.100892,1.067,0.071,-0.529,-107.116,9.338,87.89,1
2.107628,1.042,0.109,-0.564,-103.82,7.934,89.782,1
2.11607,1.014,0.166,-0.589,-96.191,7.019,91.064,1
2.122674,0.995,0.205,-0.635,-81.298,4.272,92.651,1
2.129652,0.962,0.241,-0.687,-68.481,1.892,93.566,1
2.137646,0.936,0.268,-0.736,-59.814,-0.549,93.688,1
2.146324,0.929,0.297,-0.781,-52.734,-2.807,93.566,1
2.1538589999999997,0.95,0.332,-0.853,-53.161,-5.554,93.444,1
2.1616269999999997,0.98,0.365,-0.901,-60.18,-7.446,92.346,1
2.169074,1.008,0.387,-0.934,-72.143,-9.765,90.698,1
2.175833,0.995,0.424,-0.954,-83.557,-12.023,88.806,1
2.183977,0.958,0.478,-0.957,-85.571,-14.831,86.853,1
2.190712,0.907,0.535,-0.971,-78.796,-17.761,84.472,1
2.198509,0.884,0.563,-0.987,-64.331,-22.094,81.848,1
2.2052169999999998,0.875,0.576,-0.992,-51.757,-26.245,78.979,1
2.213498,0.928,0.563,-1.002,-51.879,-30.029,76.049,1
2.2217,0.955,0.58,-0.984,-63.598,-32.47,73.181,1
2.2287,0.936,0.605,-0.961,-75.5,-34.423,69.702,1
2.235278,0.914,0.617,-0.929,-83.618,-36.437,65.49,1
2.243991,0.899,0.622,-0.911,-88.134,-38.757,61.157,1
2.250915,0.878,0.604,-0.887,-89.05,-41.809,56.823,1
2.258134,0.859,0.571,-0.867,-89.66,-44.128,53.222,1
2.266126,0.882,0.541,-0.866,-91.369,-47.424,50.598,1
2.274778,0.89,0.529,-0.842,-92.651,-50.354,48.095,1
2.281497,0.898,0.512,-0.82,-93.749,-53.405,45.715,1
2.289479,0.893,0.492,-0.792,-95.092,-56.518,43.579,1
2.296701,0.883,0.474,-0.751,-96.557,-59.204,41.564,1
2.303266,0.889,0.451,-0.699,-97.656,-62.316,40.039,1
2.311705,0.905,0.436,-0.653,-98.205,-64.392,39.367,1
2.318297,0.922,0.434,-0.616,-98.205,-66.101,38.757,1
2.326465,0.93,0.425,-0.579,-98.876,-67.932,38.085,1
2.334671,0.938,0.42,-0.548,-99.914,-69.763,37.414,1
2.342843,0.947,0.411,-0.522,-100.891,-71.35,37.048,1
2.349855,0.945,0.396,-0.489,-101.623,-72.875,36.56,1
2.357141,0.949,0.383,-0.451,-103.088,-73.974,36.682,1
2.364967,0.934,0.369,-0.417,-103.82,-74.707,36.682,1
2.373649,0.914,0.356,-0.385,-102.416,-75.378,36.682,1
2.381479,0.894,0.334,-0.348,-100.891,-76.049,36.987,1
2.389988,0.897,0.322,-0.311,-101.013,-75.988,37.109,1
2.398154,0.873,0.323,-0.269,-100.769,-76.11,38.208,1
2.405282,0.855,0.334,-0.228,-98.022,-75.378,39.611,1
2.414833,0.837,0.343,-0.199,-95.458,-74.401,40.588,1
2.422109,0.793,0.345,-0.176,-94.726,-73.12,40.893,1
2.430279,0.78,0.34,-0.163,-95.581,-71.96,40.588,1
2.4385879999999998,0.767,0.312,-0.147,-96.191,-71.105,40.039,1
2.445628,0.75,0.289,-0.136,-95.153,-69.335,39.672,1
2.4540889999999997,0.721,0.241,-0.129,-94.787,-67.993,39.123,1
2.461083,0.703,0.189,-0.129,-95.947,-66.528,39.916,1
2.469319,0.691,0.135,-0.12,-95.214,-65.002,41.137,1
2.476309,0.677,0.102,-0.096,-90.454,-63.72,43.029,1
2.484782,0.667,0.063,-0.06,-83.129,-61.889,45.959,1
2.491179,0.726,0.052,-0.042,-75.439,-59.57,48.828,1
2.498178,0.753,0.047,-0.031,-66.223,-58.837,50.781,1
2.506637,0.715,0.045,0.005,-54.077,-58.166,52.795,1
2.513407,0.713,0.024,0.035,-44.006,-57.25,54.809,1
2.520294,0.711,0.007,0.051,-36.193,-56.213,57.373,1
2.527213,0.709,-0.022,0.069,-33.813,-54.748,60.729,1
2.535717,0.721,-0.037,0.083,-36.865,-52.49,64.392,1
2.542411,0.741,-0.031,0.094,-42.785,-49.743,68.237,1
2.55041,0.776,-0.019,0.099,-48.645,-47.363,72.021,1
2.558203,0.782,0.001,0.097,-57.067,-45.104,75.195,1
2.565236,0.753,0.015,0.102,-67.382,-42.297,78.063,1
2.573966,0.715,0.03,0.107,-77.148,-39.672,80.139,1
2.580568,0.703,0.045,0.109,-89.843,-36.071,82.885,1
2.588364,0.704,0.065,0.125,-97.106,-32.592,85.327,1
2.595388,0.72,0.094,0.14,-99.365,-29.296,88.195,1
2.603332,0.724,0.129,0.135,-96.252,-26.428,91.064,1
2.610258,0.71,0.172,0.132,-90.759,-24.536,93.627,1
2.61783,0.698,0.196,0.114,-83.618,-22.399,96.008,1
2.625832,0.689,0.214,0.092,-79.833,-20.263,98.388,1
2.634275,0.686,0.227,0.071,-79.345,-17.456,100.769,1
2.640792,0.667,0.25,0.043,-80.871,-15.441,102.233,1
2.647934,0.644,0.29,0.025,-80.871,-13.549,103.637,1
2.65615,0.628,0.327,0.01,-77.575,-12.084,105.346,1
2.664487,0.616,0.378,-0.005,-68.542,-11.657,105.895,1
2.6711869999999998,0.586,0.415,-0.023,-57.067,-11.169,106.018,1
2.681281,0.559,0.431,-0.037,-45.166,-10.498,105.407,1
2.687882,0.543,0.425,-0.052,-41.625,-9.216,104.919,1
2.6950309999999997,0.526,0.427,-0.056,-44.677,-7.507,104.553,1
2.702903,0.513,0.445,-0.053,-51.757,-4.638,104.614,1
2.710924,0.526,0.464,-0.066,-58.349,-2.136,104.858,1
2.718877,0.535,0.494,-0.081,-61.828,-0.244,104.675,1
2.724355,0.547,0.515,-0.094,-61.95,1.159,104.614,1
2.732596,0.584,0.537,-0.112,-58.715,2.38,104.736,1
2.739636,0.626,0.598,-0.112,-50.476,3.54,105.407,1
2.747511,0.651,0.663,-0.148,-37.292,2.441,105.224,1
2.754219,0.632,0.684,-0.141,-18.188,0.793,104.736,1
2.7611879999999998,0.625,0.676,-0.16,-4.211,0.793,104.553,1
2.76978,0.623,0.683,-0.161,-2.624,1.342,104.064,1
2.776485,0.618,0.683,-0.211,-6.591,2.38,102.783,1
2.7851749999999997,0.561,0.672,-0.182,-14.892,3.234,101.501,1
2.790723,0.555,0.667,-0.194,-24.291,6.347,100.83,1
2.798478,0.587,0.703,-0.209,-28.32,7.08,100.524,1
2.806672,0.607,0.756,-0.214,-24.047,8.056,100.036,1
2.8145599999999997,0.683,0.795,-0.242,-14.648,7.568,99.304,1
2.822121,0.585,0.829,-0.267,-8.789,6.652,98.449,1
2.829115,0.553,0.822,-0.263,-8.728,6.958,98.144,1
2.836548,0.575,0.835,-0.283,-10.314,6.896,97.229,1
2.844978,0.535,0.826,-0.294,-13.305,7.446,96.801,1
2.8534,0.485,0.829,-0.276,-27.587,9.155,97.717,1
