timestamp_s,ax,ay,az,gx,gy,gz,label
0.0,0.918,0.879,-0.523,42.297,13.793,-37.17,1
0.008399999999999963,0.907,0.89,-0.509,35.705,13.671,-39.123,1
0.015107999999999677,0.896,0.892,-0.498,32.348,12.878,-41.564,1
0.022228999999999388,0.88,0.89,-0.483,31.738,12.695,-43.395,1
0.030682999999999794,0.87,0.883,-0.467,31.677,11.718,-45.593,1
0.03806299999999929,0.856,0.869,-0.455,32.348,11.352,-48.034,1
0.046645999999999965,0.865,0.854,-0.44,33.508,10.559,-50.537,1
0.05462599999999984,0.853,0.842,-0.415,34.057,10.253,-53.039,1
0.06127400000000005,0.846,0.828,-0.394,32.714,9.887,-55.48,1
0.06828199999999995,0.844,0.823,-0.368,30.7,10.192,-57.617,1
0.07686100000000007,0.829,0.806,-0.344,29.602,10.314,-60.241,1
0.08338599999999996,0.82,0.791,-0.32,31.921,10.864,-62.866,1
0.09039899999999967,0.824,0.777,-0.302,35.156,10.62,-64.88,1
0.09845799999999993,0.827,0.762,-0.285,40.039,10.742,-67.687,1
0.10545999999999989,0.846,0.718,-0.272,45.654,10.803,-69.946,1
0.11480699999999988,0.869,0.693,-0.259,50.72,10.62,-71.96,1
0.12266699999999986,0.89,0.662,-0.248,54.199,10.925,-73.608,1
0.129772,0.903,0.637,-0.24,54.931,10.986,-75.195,1
0.1381919999999992,0.909,0.619,-0.228,54.87,11.23,-76.599,1
0.1462059999999994,0.909,0.604,-0.217,54.87,11.352,-77.514,1
0.15270899999999976,0.9,0.588,-0.208,55.725,11.718,-78.369,1
0.16113299999999953,0.892,0.573,-0.197,57.556,11.596,-78.918,1
0.16790799999999972,0.881,0.569,-0.191,61.096,11.535,-78.796,1
0.1749489999999998,0.861,0.56,-0.19,64.208,11.169,-79.284,1
0.18190599999999968,0.848,0.547,-0.183,68.054,11.23,-79.345,1
0.18995499999999943,0.834,0.525,-0.183,72.265,11.047,-79.223,1
0.19831099999999946,0.822,0.502,-0.183,74.951,10.681,-78.796,1
0.20499299999999998,0.8,0.485,-0.186,76.904,10.803,-78.125,1
0.2132839999999998,0.766,0.468,-0.189,76.965,10.62,-77.636,1
0.22025899999999954,0.73,0.466,-0.191,77.575,10.62,-77.026,1
0.22872899999999952,0.705,0.452,-0.193,80.566,10.375,-76.171,1
0.23575499999999927,0.684,0.432,-0.193,85.205,10.131,-75.622,1
0.24283499999999947,0.675,0.414,-0.2,89.416,9.582,-74.523,1
0.25074299999999994,0.665,0.393,-0.209,93.139,9.155,-73.486,1
0.2587349999999997,0.658,0.373,-0.212,93.933,9.46,-72.326,1
0.2656129999999992,0.654,0.348,-0.222,91.125,9.643,-71.289,1
0.2722819999999997,0.668,0.336,-0.229,86.303,9.948,-70.251,1
0.28065499999999943,0.687,0.349,-0.244,79.04,11.535,-68.908,1
0.2875439999999996,0.694,0.336,-0.254,70.373,10.62,-68.176,1
0.2955569999999996,0.688,0.33,-0.249,62.194,12.695,-67.016,1
0.3021539999999998,0.692,0.323,-0.278,52.551,12.878,-66.345,1
0.31032100000000007,0.692,0.32,-0.275,44.555,13.61,-65.429,1
0.3175939999999997,0.698,0.342,-0.291,42.785,13.916,-64.453,1
0.3256709999999998,0.725,0.352,-0.264,50.354,12.573,-63.781,1
0.33393599999999957,0.743,0.348,-0.296,60.546,13.732,-63.232,1
0.3409999999999993,0.754,0.345,-0.3,64.514,12.695,-62.988,1
0.3494159999999997,0.766,0.33,-0.309,65.49,14.404,-62.255,1
0.3559139999999994,0.795,0.326,-0.329,62.072,13.732,-61.889,1
0.3654459999999995,0.776,0.329,-0.321,55.908,16.418,-61.645,1
0.37199399999999994,0.728,0.337,-0.339,46.691,16.052,-61.645,1
0.3801709999999998,0.84,0.322,-0.325,40.283,17.639,-61.34,1
0.38714599999999955,0.808,0.326,-0.347,30.151,19.409,-61.157,1
0.39560899999999943,0.798,0.333,-0.34,17.333,18.859,-61.462,1
0.4022059999999996,0.767,0.29,-0.331,10.742,19.958,-60.058,1
0.4101839999999992,0.687,0.335,-0.327,6.225,21.057,-59.387,1
0.4186519999999998,0.649,0.321,-0.35,4.028,19.531,-58.166,1
0.4253209999999994,0.732,0.353,-0.333,10.864,19.531,-57.617,1
0.4332989999999999,0.797,0.32,-0.35,21.484,17.272,-57.434,1
0.4417369999999998,0.828,0.288,-0.355,31.555,17.7,-56.701,1
0.449732,0.86,0.263,-0.384,34.851,17.333,-55.847,1
0.4567609999999993,0.902,0.249,-0.394,32.348,17.944,-55.053,1
0.46519899999999925,0.883,0.247,-0.409,26.245,18.737,-54.626,1
0.4722269999999993,0.868,0.237,-0.411,16.357,19.226,-54.199,1
0.480575,0.835,0.25,-0.409,9.277,21.179,-54.504,1
0.4886019999999993,0.795,0.269,-0.414,4.089,21.362,-54.565,1
0.4950570000000001,0.789,0.281,-0.399,4.76,22.399,-55.114,1
0.5034369999999999,0.773,0.281,-0.398,8.728,22.155,-55.725,1
0.5120059999999995,0.767,0.272,-0.387,15.136,22.46,-56.274,1
0.5200569999999995,0.781,0.247,-0.384,25.085,22.277,-57.006,1
0.5266589999999995,0.812,0.221,-0.381,35.461,22.338,-57.678,1
0.5352289999999993,0.837,0.2,-0.369,47.058,22.338,-57.617,1
0.5419769999999993,0.842,0.183,-0.365,59.387,22.216,-57.922,1
0.5504569999999998,0.845,0.162,-0.346,71.594,22.277,-57.373,1
0.5572229999999996,0.852,0.129,-0.333,81.481,22.766,-56.884,1
0.5656629999999998,0.845,0.114,-0.318,92.163,23.681,-56.152,1
0.5735999999999999,0.858,0.091,-0.322,96.435,25.939,-55.114,1
0.5803589999999996,0.885,0.068,-0.345,90.637,27.893,-54.382,1
0.5887269999999996,0.863,0.059,-0.353,78.002,30.517,-53.344,1
0.5971479999999998,0.865,0.057,-0.376,60.913,32.592,-52.429,1
0.6036429999999999,0.864,0.065,-0.376,42.968,34.057,-51.391,1
0.6120339999999995,0.866,0.076,-0.393,27.404,35.4,-51.147,1
0.6181609999999997,0.859,0.073,-0.4,15.075,36.071,-50.659,1
0.625318,0.859,0.068,-0.404,6.103,36.193,-50.537,1
0.6339489999999994,0.867,0.067,-0.411,0.976,36.376,-50.537,1
0.6407579999999999,0.861,0.06,-0.417,-3.54,36.315,-50.476,1
0.6477189999999995,0.856,0.045,-0.414,-7.385,35.705,-50.476,1
0.6547069999999993,0.812,0.036,-0.415,-9.094,35.766,-50.292,1
0.6631609999999997,0.921,0.023,-0.431,-10.681,35.644,-49.865,1
0.6699189999999993,0.942,0.013,-0.445,-13.977,36.01,-48.95,1
0.676876,0.917,0.019,-0.485,-18.859,36.621,-47.79,1
0.6843649999999997,0.925,0.024,-0.526,-27.343,35.4,-47.18,1
0.6927079999999997,0.891,0.039,-0.563,-36.56,35.461,-46.447,1
0.6993739999999997,0.833,0.071,-0.623,-45.41,33.508,-45.898,1
0.7074239999999996,0.82,0.104,-0.662,-47.973,31.677,-45.776,1
0.7140359999999992,0.88,0.122,-0.717,-42.968,28.198,-46.691,1
0.7225549999999998,0.815,0.118,-0.73,-35.522,23.803,-48.522,1
0.7291509999999999,0.878,0.114,-0.746,-23.925,20.446,-48.645,1
0.7362169999999999,0.921,0.103,-0.77,-8.728,15.014,-49.072,1
0.7440629999999997,0.889,0.101,-0.754,7.141,8.3,-48.889,1
0.7524839999999999,0.928,0.118,-0.821,23.742,5.798,-48.522,1
0.7604519999999999,0.943,0.12,-0.879,34.851,-0.183,-48.889,1
0.767201,0.93,0.113,-0.9,35.583,-4.333,-49.194,1
0.7757069999999997,0.922,0.129,-0.937,33.569,-8.239,-49.743,1
0.7841059999999995,0.95,0.137,-0.968,28.808,-12.512,-50.72,1
0.7917989999999993,0.96,0.148,-0.999,24.78,-16.54,-51.757,1
0.7983699999999994,0.927,0.171,-1.007,22.949,-21.789,-52.612,1
0.8067349999999998,0.982,0.166,-1.016,23.071,-26.672,-53.833,1
0.8150909999999998,0.994,0.163,-1.014,25.329,-33.569,-55.053,1
0.8216839999999994,1.025,0.152,-0.995,30.944,-39.062,-55.908,1
0.8301869999999996,1.062,0.136,-0.972,37.231,-45.043,-56.457,1
0.8385569999999998,1.087,0.139,-0.935,43.64,-50.598,-56.823,1
0.8464479999999996,1.108,0.139,-0.885,49.072,-55.236,-57.434,1
0.8552969999999993,1.113,0.156,-0.836,54.504,-60.668,-57.922,1
0.8623430000000001,1.089,0.17,-0.791,60.119,-64.514,-58.593,1
0.8707739999999999,1.083,0.195,-0.751,64.086,-68.725,-59.936,1
0.8789509999999998,1.068,0.208,-0.73,65.429,-72.387,-61.706,1
0.8858689999999996,1.061,0.206,-0.705,61.523,-74.523,-63.232,1
0.8938259999999998,1.101,0.214,-0.672,54.016,-77.331,-64.514,1
0.9021849999999993,1.066,0.247,-0.632,51.086,-79.895,-67.565,1
0.9119999999999999,1.042,0.257,-0.562,56.091,-82.397,-69.641,1
0.9200059999999999,1.062,0.269,-0.515,64.514,-84.411,-72.753,1
0.9268909999999995,1.036,0.286,-0.445,75.561,-86.364,-76.904,1
0.9353299999999996,1.04,0.313,-0.366,85.144,-86.853,-80.871,1
0.9438139999999997,0.994,0.33,-0.297,94.909,-88.256,-84.899,1
0.9503399999999997,0.983,0.239,-0.204,96.435,-86.853,-87.646,1
0.9587469999999998,1.094,0.305,-0.105,92.041,-81.97,-91.735,1
0.9671909999999997,0.986,0.348,0.006,95.275,-80.627,-96.862,1
0.9736829999999994,0.913,0.333,0.101,98.815,-74.768,-100.708,1
0.9816579999999995,0.963,0.375,0.172,99.182,-69.641,-105.895,1
0.988645,0.923,0.385,0.28,102.844,-64.147,-110.961,1
0.9970719999999993,0.915,0.363,0.376,107.36,-58.41,-115.478,1
1.0053969999999994,0.931,0.329,0.466,109.13,-50.476,-119.995,1
1.0123689999999996,0.893,0.297,0.545,101.623,-40.649,-124.45,1
1.0208619999999993,0.883,0.248,0.604,93.933,-33.935,-127.746,1
1.029413,0.82,0.217,0.694,92.041,-23.925,-131.53,1
1.037452,0.82,0.168,0.751,99.243,-15.136,-133.911,1
1.044034,0.787,0.08,0.793,100.097,-5.432,-135.437,1
1.0520059999999996,0.765,0.023,0.799,88.134,6.225,-135.62,1
1.058541,0.649,0.009,0.775,70.434,16.662,-135.375,1
1.0669459999999997,0.639,-0.007,0.769,66.223,26.184,-134.765,1
1.07437,0.592,-0.027,0.732,78.918,33.569,-132.812,1
1.0828439999999997,0.463,-0.085,0.677,96.923,40.344,-130.432,1
1.0891459999999995,0.545,-0.229,0.574,110.656,48.95,-126.892,1
1.0970379999999995,0.59,-0.348,0.472,107.666,57.861,-122.68,1
1.1039789999999998,0.638,-0.395,0.384,113.342,65.795,-117.553,1
1.1120959999999993,0.648,-0.467,0.261,128.417,71.166,-111.633,1
1.119014,0.513,-0.511,0.22,146.911,76.416,-105.041,1
1.1260129999999995,0.27,-0.603,0.184,150.512,81.359,-99.182,1
1.1339249999999996,0.317,-0.8,0.215,109.374,93.811,-91.857,1
1.1406319999999992,0.239,-0.946,0.181,34.973,106.384,-82.519,1
1.147748,0.151,-0.86,0.281,-3.234,112.915,-75.012,1
1.1561049999999993,-0.088,-0.796,0.384,17.944,118.225,-68.725,1
1.1630069999999995,-0.291,-0.84,0.403,50.17,121.643,-62.683,1
1.1701249999999996,-0.465,-0.916,0.443,67.932,127.868,-56.884,1
1.1786959999999995,-0.67,-0.958,0.45,73.852,134.033,-51.696,1
1.185206,-0.833,-0.978,0.469,82.824,141.113,-45.41,1
1.193238,-1.015,-1.006,0.47,101.318,148.376,-38.146,1
1.2000479999999998,-1.215,-1.074,0.458,123.779,154.663,-29.479,1
1.2078629999999997,-1.391,-1.177,0.451,142.578,163.208,-18.737,1
1.2151679999999994,-1.522,-1.349,0.424,144.47,173.828,-5.554,1
1.2233549999999997,-1.6,-1.517,0.358,118.408,187.438,10.742,1
1.2299449999999998,-1.649,-1.599,0.286,87.646,201.11,28.747,1
1.2380079999999998,-1.797,-1.608,0.229,78.43,210.876,43.212,1
1.2446799999999998,-2.058,-1.636,0.169,80.932,221.984,64.025,1
1.2516309999999997,-2.178,-1.589,0.112,112.487,228.759,85.876,1
1.2596419999999995,-2.247,-1.708,-0.058,136.047,237.548,111.145,1
1.2666529999999998,-2.604,-1.755,-0.24,110.107,244.201,137.39,1
1.2746189999999995,-2.886,-1.689,-0.27,92.285,253.295,159.118,1
1.2809339999999994,-3.141,-1.65,-0.413,79.711,260.803,186.035,1
1.288176,-3.418,-1.686,-0.532,56.396,268.737,214.294,1
1.296125,-3.795,-1.734,-0.648,2.99,278.015,242.187,1
1.3031139999999999,-4.138,-1.741,-0.666,-56.945,294.494,270.874,1
1.311788,-4.591,-1.708,-0.787,-113.342,310.241,299.072,1
1.3203119999999995,-5.124,-1.646,-0.811,-149.475,329.345,328.063,1
1.3273929999999998,-5.705,-1.592,-0.894,-168.09,347.412,358.52,1
1.33556,-6.551,-1.585,-0.952,-178.894,367.492,390.197,1
1.3437739999999998,-7.285,-1.599,-1.08,-189.88,393.31,429.87,1
1.350486,-8.007,-1.621,-1.185,-184.387,415.1,466.186,1
1.359076,-8.891,-1.678,-1.334,-164.245,437.072,507.385,1
1.3661069999999995,-9.8,-1.7,-1.497,-119.995,455.749,552.795,1
1.3744879999999995,-10.808,-1.77,-1.729,-71.716,472.9,604.614,1
1.382561,-12.104,-1.826,-2.039,-36.926,487.304,661.254,1
1.3904689999999995,-13.869,-1.878,-2.442,2.99,495.666,722.656,1
1.397138,-15.519,-1.847,-2.746,76.477,492.492,800.231,1
1.4053419999999992,-15.992,-1.778,-3.059,161.01,477.966,872.07,1
1.4134899999999995,-15.999,-1.599,-3.387,258.605,444.091,949.34,1
1.4204309999999998,-15.999,-1.325,-3.68,373.352,389.221,1031.677,1
1.4287549999999998,-15.999,-0.915,-3.936,486.572,306.518,1115.966,1
1.435409,-15.999,-0.294,-4.0,608.886,193.42,1198.547,1
1.4433469999999993,-15.999,0.533,-3.839,735.412,47.424,1272.766,1
1.4503459999999997,-15.999,1.438,-3.419,819.335,-119.506,1328.735,1
1.4585409999999994,-15.999,2.33,-2.698,843.566,-294.433,1361.694,1
1.466519,-15.999,3.14,-1.803,825.805,-461.12,1366.638,1
1.4734479999999994,-15.999,3.868,-1.025,760.314,-613.952,1346.13,1
1.4820609999999999,-15.999,4.453,-0.154,693.054,-757.202,1305.786,1
1.4900669999999998,-15.999,5.003,0.916,686.584,-896.911,1248.779,1
1.498272,-15.999,5.251,1.841,778.137,-1073.242,1154.357,1
1.505083,-15.999,5.245,3.01,901.55,-1233.154,1042.968,1
1.5131739999999994,-15.999,4.367,4.199,955.2,-1377.319,911.376,1
1.5214159999999994,-15.999,4.469,5.355,1018.92,-1490.722,770.629,1
1.5288209999999998,-15.999,5.333,6.172,1231.506,-1594.482,546.325,1
1.536994,-15.999,4.817,6.407,1369.323,-1654.418,313.659,1
1.5435179999999997,-15.999,4.07,6.354,1297.546,-1648.498,78.063,1
1.5519309999999997,-15.999,4.16,6.264,1222.656,-1601.501,-132.08,1
1.558566,-15.999,4.136,5.913,1237.426,-1529.968,-305.419,1
1.567119,-15.999,3.254,5.602,1248.962,-1415.039,-508.483,1
1.573855,-15.999,2.22,5.083,1189.819,-1267.883,-685.79,1
1.5809409999999993,-15.999,0.721,4.395,1059.082,-1096.557,-818.969,1
1.588902,-15.999,0.033,3.841,902.526,-937.072,-903.686,1
1.5967599999999997,-15.999,-0.409,3.667,785.522,-787.841,-954.589,1
1.6039829999999995,-15.999,-0.938,3.181,632.751,-631.225,-982.177,1
1.6124579999999993,-15.999,-1.248,2.972,497.68,-536.56,-981.323,1
1.6192149999999996,-15.999,-1.487,2.972,318.542,-431.274,-956.665,1
1.6279779999999997,-15.999,-1.767,3.042,258.544,-375.427,-927.612,1
1.6346089999999993,-15.999,-2.08,3.082,280.7,-315.185,-891.235,1
1.6430249999999997,-14.745,-2.462,2.964,372.924,-252.929,-848.083,1
1.651415,-12.923,-2.864,2.792,467.285,-190.002,-811.34,1
1.6581669999999997,-11.536,-3.274,2.552,508.605,-125.061,-770.446,1
1.665267,-10.347,-3.577,2.287,504.455,-52.246,-723.266,1
1.6735489999999995,-9.388,-3.688,1.95,460.205,7.629,-672.546,1
1.6816709999999997,-8.477,-3.599,1.651,421.264,60.119,-619.262,1
1.6886139999999994,-7.466,-3.399,1.193,409.301,96.923,-566.345,1
1.6969379999999994,-6.893,-3.291,0.964,398.62,130.249,-512.207,1
1.7035739999999997,-6.395,-3.078,0.646,369.75,154.907,-458.618,1
1.7115339999999994,-5.93,-2.752,0.429,347.961,173.583,-406.005,1
1.7200309999999996,-5.477,-2.504,0.211,336.059,185.668,-356.14,1
1.726725,-5.035,-2.33,0.05,316.223,194.213,-301.513,1
1.7351299999999998,-4.695,-2.168,-0.094,288.879,196.533,-258.422,1
1.7421319999999998,-4.297,-2.087,-0.264,254.15,197.937,-219.848,1
1.7499779999999996,-3.896,-1.991,-0.339,210.632,195.251,-185.119,1
1.7585309999999996,-3.443,-1.894,-0.382,190.795,189.697,-154.113,1
1.7666509999999995,-3.067,-1.801,-0.42,188.964,180.419,-125.183,1
1.7746589999999998,-2.74,-1.676,-0.397,196.35,170.288,-93.933,1
1.7825959999999998,-2.455,-1.537,-0.379,207.458,160.095,-69.58,1
1.7911739999999998,-2.201,-1.446,-0.34,223.815,149.353,-43.212,1
1.7983719999999996,-1.953,-1.365,-0.311,234.191,140.136,-22.216,1
1.8068689999999998,-1.75,-1.283,-0.273,237.182,131.896,-2.502,1
1.8151399999999995,-1.555,-1.192,-0.24,229.248,124.389,15.502,1
1.8228459999999993,-1.405,-1.121,-0.214,213.073,117.431,31.738,1
1.829535,-1.256,-1.069,-0.188,191.406,109.802,48.828,1
1.8372439999999992,-1.089,-1.022,-0.172,172.729,103.515,62.194,1
1.8456069999999993,-1.008,-0.933,-0.146,152.587,96.618,73.791,1
1.8533299999999997,-0.865,-0.902,-0.142,128.54,91.979,83.312,1
1.8615339999999998,-0.782,-0.837,-0.118,99.731,85.021,91.735,1
1.8693169999999997,-0.665,-0.76,-0.064,82.214,78.186,100.036,1
1.8772799999999998,-0.61,-0.677,-0.012,84.411,69.274,105.712,1
1.8841319999999993,-0.579,-0.616,0.048,100.341,60.974,111.083,1
1.8925769999999993,-0.458,-0.58,0.086,121.032,50.842,115.295,1
1.8991619999999996,-0.421,-0.538,0.148,142.517,42.114,119.079,1
1.907127,-0.302,-0.525,0.171,158.569,33.447,121.582,1
1.9138859999999998,-0.346,-0.51,0.229,155.761,28.381,123.046,1
1.9212819999999997,-0.322,-0.498,0.237,138.0,24.108,123.535,1
1.9296419999999994,-0.306,-0.474,0.311,114.868,21.484,124.267,1
1.9366269999999997,-0.229,-0.448,0.352,93.078,20.202,124.023,1
1.944947,-0.171,-0.404,0.436,74.89,18.859,123.413,1
1.952985,-0.209,-0.383,0.474,62.011,19.165,122.009,1
1.9594779999999998,-0.244,-0.384,0.524,55.358,18.31,119.995,1
1.9676619999999998,-0.18,-0.405,0.557,57.739,18.005,118.041,1
1.9757819999999997,-0.12,-0.443,0.585,65.612,16.174,116.638,1
1.9853049999999994,-0.039,-0.459,0.623,76.599,16.54,115.844,1
1.9918059999999995,0.052,-0.576,0.609,73.486,15.93,114.99,1
2.0007709999999994,0.121,-0.604,0.632,62.866,18.554,114.868,1
2.0090179999999993,0.21,-0.605,0.655,52.551,19.531,114.013,1
2.01556,0.242,-0.586,0.676,50.964,21.911,113.403,1
2.022575,0.255,-0.567,0.671,50.048,22.033,113.098,1
2.030963,0.251,-0.542,0.683,49.133,23.559,111.999,1
2.037878,0.25,-0.506,0.678,53.161,23.193,111.511,1
2.0461989999999997,0.286,-0.488,0.694,58.044,23.437,111.083,1
2.053077,0.22,-0.5,0.662,59.204,23.62,109.924,1
2.0615569999999996,0.3,-0.496,0.659,58.288,23.132,109.68,1
2.0682019999999994,0.312,-0.483,0.645,63.171,22.888,109.497,1
2.0766919999999995,0.389,-0.487,0.661,67.199,20.629,109.497,1
2.0832349999999993,0.377,-0.492,0.677,66.589,20.812,109.13,1
2.091228,0.348,-0.489,0.689,61.157,20.08,108.642,1
2.0979069999999993,0.361,-0.48,0.707,52.612,21.545,108.032,1
2.106459,0.353,-0.464,0.727,51.391,21.179,107.36,1
2.1129,0.405,-0.479,0.745,56.701,20.751,107.116,1
2.119586999999999,0.479,-0.49,0.748,62.255,21.118,106.933,1
2.1274219999999993,0.524,-0.496,0.746,65.429,20.446,106.933,1
2.1345089999999995,0.537,-0.485,0.752,70.983,20.996,106.994,1
2.1415299999999995,0.567,-0.48,0.756,77.026,20.751,107.055,1
2.1493969999999996,0.562,-0.463,0.759,82.336,22.033,106.933,1
2.157774,0.566,-0.451,0.74,83.679,22.399,106.201,1
2.1644069999999997,0.573,-0.421,0.742,84.655,23.315,106.14,1
2.1714129999999994,0.563,-0.393,0.729,85.083,23.559,105.529,1
2.1784719999999993,0.541,-0.383,0.73,85.205,23.925,104.309,1
2.18656,0.528,-0.373,0.722,83.984,25.573,103.515,1
2.193499,0.557,-0.365,0.703,83.984,25.329,102.111,1
2.2015129999999994,0.606,-0.374,0.696,85.571,26.062,101.379,1
2.208475999999999,0.649,-0.383,0.668,88.134,25.878,100.769,1
2.215864,0.666,-0.389,0.647,88.806,25.939,99.914,1
2.2241289999999996,0.683,-0.391,0.628,91.735,25.878,99.609,1
2.2309909999999995,0.728,-0.393,0.599,98.693,24.658,99.121,1
2.2379179999999996,0.809,-0.396,0.586,108.398,22.827,99.487,1
2.246237,0.838,-0.39,0.581,116.821,21.24,99.914,1
2.2546399999999993,0.82,-0.377,0.575,120.544,20.568,100.646,1
2.261164,0.805,-0.347,0.567,119.628,19.287,101.196,1
2.268967999999999,0.783,-0.301,0.571,120.666,18.554,101.318,1
2.2758779999999996,0.768,-0.256,0.563,123.474,17.089,100.708,1
2.283843,0.747,-0.232,0.56,125.061,16.54,99.853,1
2.290426,0.719,-0.224,0.543,122.985,15.869,98.754,1
2.2972319999999993,0.698,-0.214,0.536,119.445,15.624,97.656,1
2.3056459999999994,0.71,-0.212,0.514,115.6,16.296,96.496,1
2.3122299999999996,0.73,-0.207,0.491,114.685,16.479,95.581,1
2.3192999999999993,0.763,-0.204,0.462,120.117,16.235,94.36,1
2.3273589999999995,0.791,-0.212,0.433,124.877,15.38,93.933,1
2.3343599999999993,0.799,-0.206,0.411,131.164,14.465,93.078,1
2.342308,0.792,-0.202,0.372,136.108,13.366,92.041,1
2.348922,0.781,-0.2,0.349,139.404,12.207,91.613,1
2.356865,0.791,-0.204,0.32,138.732,11.23,91.43,1
2.3652819999999997,0.822,-0.207,0.307,132.141,10.498,91.308,1
2.3723409999999996,0.833,-0.185,0.316,122.985,9.521,91.369,1
2.378863999999999,0.809,-0.157,0.321,116.516,9.216,91.247,1
2.3858829999999998,0.794,-0.124,0.33,114.013,7.995,90.759,1
2.3947329999999996,0.764,-0.093,0.34,114.074,7.385,90.148,1
2.4023719999999997,0.732,-0.076,0.337,116.76,6.225,89.111,1
2.40895,0.71,-0.06,0.342,121.643,5.432,87.768,1
2.417643,0.732,-0.069,0.334,128.723,4.211,86.791,1
2.42436,0.773,-0.084,0.321,133.483,3.173,85.876,1
2.4329669999999997,0.799,-0.101,0.314,134.277,2.258,85.327,1
2.4397059999999993,0.818,-0.111,0.303,131.286,2.075,85.021,1
2.4478279999999994,0.837,-0.115,0.296,126.159,2.014,85.205,1
2.4561089999999997,0.842,-0.104,0.286,120.849,1.77,85.266,1
2.464371,0.836,-0.079,0.29,116.149,1.892,85.327,1
2.471489,0.83,-0.056,0.299,111.694,1.342,84.899,1
2.4803739999999994,0.817,-0.041,0.32,108.154,1.22,84.533,1
2.4878739999999997,0.825,-0.024,0.331,107.482,0.366,84.228,1
2.4949339999999998,0.839,-0.009,0.346,112.426,-0.305,83.74,1
2.5033699999999994,0.85,-0.016,0.351,114.257,-1.647,83.435,1
2.512696,0.836,-0.026,0.352,111.267,-1.647,82.946,1
2.5204269999999998,0.838,-0.025,0.354,103.027,-1.464,82.275,1
2.5273269999999997,0.866,-0.026,0.345,96.435,-1.098,81.97,1
2.5361839999999995,0.893,-0.01,0.35,92.834,-0.122,81.237,1
2.543474,0.907,0.003,0.334,91.491,0.366,80.932,1
2.552816,0.895,0.015,0.324,89.111,1.342,80.2,1
2.560338,0.89,0.019,0.304,85.632,2.38,79.467,1
2.5672749999999995,0.885,0.023,0.293,81.481,3.723,79.223,1
2.574686,0.886,0.032,0.272,76.782,5.004,78.491,1
2.5835909999999993,0.908,0.04,0.263,71.838,5.493,77.758,1
2.590883,0.935,0.058,0.262,71.289,6.53,77.575,1
2.59809,0.945,0.053,0.274,72.265,5.92,77.331,1
2.6070019999999996,0.945,0.07,0.276,72.875,7.019,77.331,1
2.6152559999999996,0.938,0.064,0.267,69.335,5.493,77.148,1
2.622865,0.937,0.075,0.272,67.199,7.141,77.27,1
2.630171,0.958,0.083,0.262,64.025,6.286,77.392,1
2.638769,0.968,0.07,0.273,60.363,8.239,77.392,1
2.6463579999999993,0.986,0.111,0.26,59.02,9.033,77.392,1
2.656173,1.005,0.133,0.26,63.049,9.948,77.331,1
2.662369,0.995,0.16,0.23,70.556,10.314,76.538,1
2.67176,0.988,0.166,0.223,76.965,10.681,76.232,1
2.679251,1.006,0.172,0.194,81.726,10.681,75.622,1
2.6879339999999994,1.026,0.173,0.186,84.106,10.62,75.5,1
2.6957199999999997,1.033,0.181,0.18,83.801,11.474,75.378,1
2.7032359999999995,1.026,0.19,0.178,79.895,12.084,75.195,1
2.7109049999999995,1.003,0.196,0.175,73.73,13.549,75.073,1
2.717872,0.97,0.214,0.177,67.504,14.709,74.34,1
2.7256079999999994,0.951,0.229,0.169,62.561,16.296,73.608,1
2.733752,0.943,0.24,0.169,59.753,17.639,72.753,1
2.7408719999999995,0.951,0.252,0.165,60.485,19.104,72.143,1
2.748526,0.975,0.261,0.158,63.842,20.08,71.716,1
2.7560389999999995,0.984,0.278,0.151,69.152,20.812,71.411,1
2.764938,0.981,0.296,0.134,74.584,21.545,70.8,1
2.7735469999999998,0.975,0.301,0.122,78.552,21.728,70.434,1
2.780913999999999,0.973,0.306,0.111,81.604,22.399,70.251,1
2.7883699999999996,0.969,0.305,0.102,79.956,23.01,69.58,1
2.7974769999999998,0.941,0.311,0.1,73.852,24.841,69.58,1
2.8058169999999993,0.911,0.322,0.093,63.72,26.916,68.969,1
2.8130039999999994,0.891,0.343,0.095,55.48,29.052,68.359,1
2.820278,0.897,0.371,0.091,51.635,31.005,68.054,1
2.827781,0.892,0.395,0.085,52.734,32.348,67.443,1
2.8365289999999996,0.878,0.415,0.077,57.861,33.569,66.589,1
2.8440639999999995,0.87,0.425,0.061,63.11,34.851,65.612,1
2.8501529999999997,0.861,0.419,0.043,65.856,36.315,64.392,1
2.8573829999999996,0.858,0.425,0.031,66.162,37.719,64.27,1
2.864889,0.855,0.431,0.015,64.575,39.123,63.72,1
2.872572,0.859,0.446,0.004,62.683,39.916,62.988,1
2.879975999999999,0.845,0.45,-0.006,60.729,40.771,62.316,1
2.8876209999999993,0.84,0.462,-0.008,59.692,41.32,61.828,1
2.8967589999999994,0.846,0.47,-0.014,61.096,41.87,61.645,1
2.9042259999999995,0.846,0.508,-0.022,64.086,42.541,61.096,1
2.9135459999999993,0.834,0.525,-0.03,66.589,43.151,60.18,1
2.9208869999999996,0.822,0.535,-0.042,67.443,44.311,59.326,1
2.928642,0.807,0.539,-0.059,65.551,45.898,58.166,1
2.9372669999999994,0.785,0.537,-0.074,60.974,47.546,57.25,1
2.944464,0.802,0.53,-0.09,55.419,49.255,56.335,1
2.95245,0.792,0.526,-0.105,49.682,51.025,55.236,1
2.9610519999999996,0.791,0.509,-0.118,48.583,51.94,54.687,1
2.9682309999999994,0.8,0.492,-0.127,49.926,52.368,54.504,1
2.9753659999999993,0.796,0.466,-0.144,51.025,53.588,54.748,1
2.9844269999999993,0.783,0.462,-0.166,49.377,53.771,55.053,1
2.9905859999999995,0.756,0.463,-0.185,45.654,54.687,54.87,1
2.999224,0.722,0.46,-0.203,41.564,55.236,54.87,1
3.007364,0.702,0.447,-0.214,37.902,55.908,54.687,1
3.0155279999999998,0.68,0.436,-0.218,35.888,56.64,54.809,1
3.0218619999999996,0.66,0.421,-0.225,33.63,57.128,54.687,1
3.0312289999999997,0.661,0.392,-0.227,31.066,57.861,54.443,1
3.0379109999999994,0.672,0.364,-0.222,28.808,58.166,54.443,1
3.045579,0.693,0.334,-0.208,27.893,58.349,54.992,1
3.0535629999999996,0.725,0.313,-0.2,27.648,58.105,56.152,1
3.0612059999999994,0.752,0.295,-0.186,27.343,58.105,57.861,1
