timestamp_s,ax,ay,az,gx,gy,gz,label
0.0,0.833,0.612,0.014,-3.234,2.563,-3.417,1
0.007624999999999993,0.834,0.607,0.013,-2.258,2.746,-3.662,1
0.015699999999999825,0.833,0.604,0.004,-0.854,2.563,-3.723,1
0.02273999999999976,0.834,0.597,0.002,0.122,2.441,-3.906,1
0.03189900000000012,0.83,0.595,-0.003,-0.427,2.319,-4.028,1
0.0387240000000002,0.829,0.585,-0.008,-1.22,2.38,-3.845,1
0.047553999999999874,0.825,0.582,-0.009,-2.258,2.563,-3.906,1
0.0561739999999995,0.822,0.576,-0.013,-2.99,2.502,-3.906,1
0.0627399999999998,0.823,0.573,-0.021,-3.662,2.746,-3.784,1
0.07058199999999992,0.819,0.569,-0.031,-4.882,2.441,-3.723,1
0.07892800000000033,0.815,0.569,-0.036,-5.737,2.563,-3.845,1
0.08735300000000024,0.817,0.566,-0.038,-4.699,2.38,-3.601,1
0.09465099999999982,0.822,0.563,-0.037,-2.746,1.831,-3.234,1
0.10375900000000016,0.821,0.561,-0.041,-0.366,1.525,-3.112,1
0.11219200000000029,0.825,0.554,-0.04,1.525,0.732,-2.868,1
0.1191810000000002,0.822,0.548,-0.045,2.38,0.366,-2.563,1
0.1281920000000003,0.822,0.551,-0.044,1.464,0.183,-2.075,1
0.13547400000000032,0.817,0.548,-0.046,0.183,-0.061,-1.708,1
0.14449000000000023,0.818,0.551,-0.049,-1.281,-0.366,-1.586,1
0.15166799999999991,0.821,0.556,-0.047,-1.77,-0.854,-1.281,1
0.16008099999999992,0.817,0.562,-0.041,-0.915,-1.22,-0.732,1
0.16918399999999956,0.82,0.562,-0.036,0.61,-1.403,-0.305,1
0.1758930000000003,0.816,0.56,-0.029,3.234,-1.953,0.0,1
0.18350899999999992,0.811,0.553,-0.023,4.089,-2.319,0.061,1
0.19240000000000013,0.812,0.551,-0.019,3.356,-2.441,0.549,1
0.20059700000000014,0.808,0.544,-0.012,2.258,-2.258,0.854,1
0.20910199999999968,0.806,0.55,-0.006,1.22,-2.258,1.22,1
0.21603100000000008,0.809,0.556,0.0,0.61,-2.197,1.525,1
0.22332899999999967,0.808,0.559,-0.002,0.976,-2.197,1.831,1
0.23241599999999973,0.809,0.563,0.003,1.098,-2.502,1.831,1
0.23933800000000005,0.806,0.569,0.007,2.075,-2.563,2.136,1
0.24685999999999986,0.805,0.567,0.005,2.197,-2.563,2.197,1
0.255814,0.809,0.57,0.005,2.197,-2.441,2.502,1
0.26291499999999957,0.809,0.568,0.01,1.647,-2.441,2.624,1
0.27103699999999975,0.81,0.566,0.012,1.098,-2.502,2.563,1
0.27803999999999984,0.813,0.568,0.009,0.61,-2.136,2.99,1
0.2867160000000002,0.812,0.572,0.02,0.244,-1.892,2.868,1
0.29358400000000007,0.812,0.574,0.014,-0.122,-1.831,3.051,1
0.30171499999999973,0.812,0.575,0.022,-0.183,-1.708,2.929,1
0.3090390000000003,0.814,0.576,0.02,0.183,-1.525,2.868,1
0.3163979999999995,0.82,0.58,0.016,1.037,-1.342,2.868,1
0.32510499999999976,0.824,0.577,0.011,1.037,-1.22,3.417,1
0.33252599999999966,0.82,0.582,0.012,1.22,-1.159,3.234,1
0.34019400000000033,0.82,0.579,0.015,0.915,-0.976,3.479,1
0.348935,0.815,0.582,0.013,0.61,-0.915,3.601,1
0.35547099999999965,0.823,0.58,0.016,0.122,-0.549,3.417,1
0.36299300000000034,0.829,0.581,0.018,-0.244,-0.427,3.479,1
0.3718180000000002,0.826,0.59,0.013,-0.366,-0.244,3.845,1
0.37897800000000004,0.824,0.588,0.014,0.061,-0.366,3.662,1
0.3862540000000001,0.827,0.595,0.009,0.366,-0.488,3.662,1
0.3952080000000002,0.825,0.599,0.009,0.976,-0.549,3.723,1
0.40299900000000033,0.829,0.603,0.009,1.708,-0.61,3.662,1
0.41087000000000007,0.83,0.601,0.003,1.098,-0.488,3.662,1
0.4180809999999999,0.823,0.606,0.007,-0.732,-0.488,3.662,1
0.4272299999999998,0.827,0.606,0.004,-1.831,-0.427,3.234,1
0.4347469999999998,0.833,0.612,0.001,-1.464,-0.366,3.356,1
0.44298899999999986,0.831,0.612,0.004,-0.732,-0.61,2.807,1
0.44992699999999974,0.823,0.612,0.003,0.732,-0.671,3.051,1
0.4573369999999999,0.826,0.619,0.01,1.892,-1.037,2.868,1
0.4649510000000001,0.827,0.617,0.007,2.319,-1.098,2.807,1
0.47367000000000026,0.828,0.621,0.008,2.136,-0.976,2.685,1
0.48053900000000027,0.824,0.616,0.007,0.854,-0.854,2.502,1
0.48829600000000006,0.829,0.62,0.016,0.976,-1.098,2.441,1
0.49710699999999974,0.835,0.616,0.02,1.342,-1.22,1.953,1
0.5041529999999996,0.841,0.615,0.021,2.075,-1.342,1.77,1
0.5117009999999995,0.837,0.615,0.019,1.586,-1.281,1.586,1
0.519164,0.835,0.616,0.025,0.793,-0.976,1.403,1
0.5276909999999999,0.831,0.615,0.021,0.122,-0.854,1.525,1
0.5344230000000003,0.831,0.616,0.027,0.366,-0.366,1.22,1
0.5432509999999997,0.829,0.616,0.029,1.281,-0.305,0.915,1
0.5502320000000003,0.83,0.619,0.028,2.319,-0.366,1.037,1
0.5571140000000003,0.828,0.615,0.032,3.112,-0.183,0.671,1
0.5658579999999995,0.831,0.613,0.032,3.051,0.0,0.671,1
0.573016,0.829,0.615,0.023,2.258,0.122,0.488,1
0.5798220000000001,0.831,0.614,0.024,1.22,0.366,0.305,1
0.5878319999999997,0.833,0.616,0.02,-0.122,0.488,0.0,1
0.5963839999999996,0.831,0.616,0.016,-0.854,0.488,-0.122,1
0.6039890000000003,0.826,0.616,0.021,-0.488,0.305,-0.61,1
0.6121609999999995,0.824,0.617,0.023,1.098,0.244,-0.549,1
0.6184669999999999,0.829,0.618,0.023,2.807,0.061,-0.793,1
0.6275849999999998,0.835,0.616,0.026,3.845,0.183,-0.854,1
0.6354819999999997,0.829,0.613,0.027,3.54,-0.061,-0.793,1
0.6426030000000003,0.835,0.612,0.031,2.136,0.488,-1.037,1
0.6505789999999996,0.833,0.614,0.029,1.159,0.427,-1.037,1
0.6585200000000002,0.83,0.616,0.03,-0.122,0.671,-1.22,1
0.6660120000000003,0.835,0.616,0.033,-0.732,0.671,-1.403,1
0.675427,0.845,0.623,0.031,-0.244,0.549,-1.525,1
0.6817159999999998,0.843,0.624,0.038,0.671,0.671,-1.647,1
0.6911649999999998,0.849,0.624,0.037,2.624,0.488,-1.953,1
0.6980519999999997,0.854,0.625,0.04,3.906,0.366,-2.197,1
0.7055030000000002,0.854,0.62,0.049,4.943,0.244,-2.441,1
0.7144430000000002,0.862,0.62,0.051,5.126,0.244,-2.502,1
0.7217519999999995,0.868,0.626,0.062,4.882,0.122,-2.624,1
0.7294859999999996,0.866,0.638,0.07,4.577,0.244,-2.624,1
0.7371819999999998,0.871,0.652,0.085,5.004,0.366,-2.929,1
0.7446099999999998,0.881,0.67,0.099,6.774,0.061,-3.173,1
0.752275,0.89,0.692,0.119,9.826,-0.305,-3.601,1
0.7603349999999995,0.899,0.712,0.139,13.916,-0.732,-4.089,1
0.7687379999999999,0.907,0.738,0.168,18.432,-1.22,-4.577,1
0.7760280000000002,0.928,0.767,0.219,24.047,-1.403,-5.187,1
0.7832780000000001,0.958,0.794,0.257,28.808,-1.342,-6.164,1
0.7920749999999996,0.978,0.835,0.312,32.226,-1.403,-7.141,1
0.7991700000000002,0.985,0.867,0.349,33.63,-0.366,-8.85,1
0.8077709999999998,1.01,0.905,0.392,32.958,0.122,-10.681,1
0.8145699999999998,1.028,0.952,0.44,32.348,1.342,-12.756,1
0.8228749999999998,1.048,1.02,0.496,34.545,1.892,-15.197,1
0.8314750000000002,1.059,1.097,0.565,42.907,2.563,-17.822,1
0.8383409999999998,1.058,1.154,0.629,54.931,3.417,-21.179,1
0.8468460000000002,1.061,1.182,0.694,66.589,4.76,-25.756,1
0.8539000000000003,1.076,1.207,0.765,71.777,6.896,-29.724,1
0.8630589999999998,1.063,1.231,0.851,74.279,10.07,-33.935,1
0.8701509999999999,1.047,1.267,0.956,75.561,14.221,-38.085,1
0.8787089999999997,1.019,1.302,1.044,76.232,20.324,-43.334,1
0.885732,0.98,1.341,1.129,77.636,26.184,-48.522,1
0.8946569999999996,0.943,1.376,1.192,81.176,32.47,-54.321,1
0.9013099999999996,0.914,1.392,1.25,85.815,39.55,-59.997,1
0.9101299999999997,0.893,1.4,1.282,89.477,46.386,-65.856,1
0.9183839999999996,0.867,1.401,1.297,92.59,55.053,-72.326,1
0.925541,0.827,1.394,1.308,93.627,62.622,-77.758,1
0.9323980000000001,0.796,1.37,1.305,94.36,70.251,-83.19,1
0.9408060000000003,0.752,1.345,1.295,94.97,78.247,-88.562,1
0.948474,0.694,1.312,1.286,95.336,87.097,-94.238,1
0.9566099999999995,0.636,1.278,1.26,95.581,95.214,-98.999,1
0.9654829999999999,0.6,1.244,1.226,96.191,102.6,-103.515,1
0.9725070000000002,0.553,1.202,1.171,99.365,111.45,-108.276,1
0.9807009999999998,0.51,1.175,1.111,101.44,118.774,-112.121,1
0.98956,0.465,1.16,1.048,103.21,125.793,-116.027,1
0.9962460000000002,0.422,1.145,0.968,107.543,132.019,-119.873,1
1.0045979999999997,0.371,1.129,0.899,113.586,138.854,-123.657,1
1.0128820000000003,0.321,1.096,0.811,115.722,144.836,-126.892,1
1.0202029999999995,0.262,1.051,0.734,113.037,150.756,-129.882,1
1.0284500000000003,0.197,1.011,0.657,110.107,156.616,-133.117,1
1.0354830000000002,0.117,0.959,0.579,109.619,162.963,-136.291,1
1.0437640000000004,0.048,0.916,0.507,111.145,168.334,-138.427,1
1.0510419999999998,-0.012,0.875,0.452,115.661,172.973,-140.563,1
1.060327,-0.068,0.84,0.397,122.497,177.856,-142.272,1
1.067952,-0.148,0.808,0.343,132.324,182.739,-143.432,1
1.075412,-0.223,0.759,0.272,146.24,188.354,-143.737,1
1.0831270000000002,-0.289,0.716,0.207,157.348,193.664,-143.371,1
1.0913129999999995,-0.346,0.676,0.145,169.982,198.547,-142.272,1
1.09884,-0.379,0.634,0.083,183.898,203.918,-140.625,1
1.105422,-0.427,0.583,0.019,195.19,209.716,-137.878,1
1.1132939999999998,-0.52,0.529,-0.044,200.927,215.881,-134.399,1
1.1228220000000002,-0.62,0.458,-0.103,198.547,222.961,-129.882,1
1.1303149999999995,-0.686,0.415,-0.15,185.668,232.543,-124.511,1
1.1394320000000002,-0.81,0.379,-0.215,168.212,241.638,-119.018,1
1.1480069999999998,-0.901,0.35,-0.274,153.198,249.816,-114.135,1
1.1548980000000002,-0.964,0.307,-0.356,138.244,258.178,-108.703,1
1.1637959999999996,-1.03,0.27,-0.439,128.967,265.38,-103.82,1
1.1709119999999995,-1.092,0.224,-0.533,120.788,271.24,-98.632,1
1.1785649999999999,-1.173,0.17,-0.633,113.159,277.221,-92.102,1
1.1874339999999997,-1.241,0.105,-0.738,106.628,281.921,-86.181,1
1.1944499999999998,-1.296,0.004,-0.862,95.336,285.705,-79.895,1
1.2034260000000003,-1.343,-0.07,-0.954,77.697,289.672,-71.655,1
1.2122510000000002,-1.37,-0.153,-1.037,64.208,291.809,-64.147,1
1.221044,-1.386,-0.242,-1.12,52.673,293.945,-54.748,1
1.2295530000000001,-1.386,-0.335,-1.251,41.259,294.433,-46.02,1
1.236434,-1.39,-0.402,-1.354,26.184,294.006,-35.644,1
1.2444360000000003,-1.387,-0.463,-1.473,17.639,292.358,-25.024,1
1.2531499999999998,-1.375,-0.525,-1.58,14.709,289.733,-15.136,1
1.2605899999999997,-1.374,-0.612,-1.7,7.263,286.987,-5.065,1
1.2696810000000003,-1.415,-0.698,-1.801,-11.047,283.508,7.08,1
1.2771150000000002,-1.437,-0.766,-1.953,-15.258,278.991,17.7,1
1.2859340000000001,-1.41,-0.88,-2.146,-9.704,270.874,31.494,1
1.2947920000000002,-1.348,-1.056,-2.379,-15.502,260.498,47.79,1
1.302086,-1.336,-1.148,-2.556,-29.846,252.441,62.133,1
1.3106919999999995,-1.368,-1.233,-2.836,-41.015,240.417,78.491,1
1.3174830000000002,-1.376,-1.348,-3.149,-48.889,225.952,92.773,1
1.3261669999999999,-1.341,-1.473,-3.401,-57.495,208.435,108.215,1
1.3353669999999997,-1.295,-1.578,-3.606,-56.091,188.171,124.572,1
1.3427369999999996,-1.282,-1.658,-3.737,-43.212,161.621,144.653,1
1.3506039999999997,-1.299,-1.752,-3.798,-38.33,134.887,166.198,1
1.3597190000000001,-1.374,-1.763,-3.804,-33.142,111.816,184.814,1
1.3676339999999998,-1.348,-1.751,-3.795,-10.864,85.876,203.796,1
1.374162,-1.4,-1.763,-3.775,17.822,52.978,226.806,1
1.3830599999999995,-1.509,-1.75,-3.698,34.423,25.512,246.704,1
1.3915680000000004,-1.625,-1.714,-3.6,45.166,-1.464,265.93,1
1.399012,-1.762,-1.645,-3.468,53.955,-31.433,288.146,1
1.4073779999999996,-1.902,-1.583,-3.378,58.654,-56.579,306.457,1
1.4164339999999997,-2.065,-1.498,-3.265,56.823,-85.449,326.843,1
1.4248750000000001,-2.295,-1.377,-3.15,65.307,-110.473,344.177,1
1.4333720000000003,-2.497,-1.309,-3.086,78.613,-139.587,363.22,1
1.440169,-2.759,-1.227,-3.009,79.772,-163.269,378.723,1
1.4489109999999998,-2.953,-1.098,-2.925,80.627,-190.124,395.935,1
1.4580640000000002,-3.154,-0.966,-2.825,82.885,-216.247,411.376,1
1.465154,-3.313,-0.824,-2.732,75.439,-236.145,423.889,1
1.4744969999999995,-3.517,-0.594,-2.639,57.739,-257.141,437.438,1
1.4831060000000003,-3.706,-0.34,-2.577,46.752,-274.23,447.814,1
1.4903129999999996,-3.95,-0.015,-2.536,42.907,-294.677,457.519,1
1.497929,-4.178,0.348,-2.541,46.752,-313.537,463.317,1
1.507142,-4.33,0.673,-2.523,53.039,-338.561,466.491,1
1.5144149999999996,-4.471,1.012,-2.446,57.128,-361.511,466.979,1
1.5235890000000003,-4.558,1.455,-2.238,60.546,-389.892,463.745,1
1.5312900000000003,-4.682,1.91,-1.95,71.228,-413.085,458.74,1
1.5382889999999998,-4.966,2.52,-1.593,90.698,-434.448,449.34,1
1.5458280000000002,-5.006,2.975,-1.23,114.746,-456.237,429.016,1
1.5541330000000002,-5.105,3.338,-0.895,129.76,-467.651,410.034,1
1.56257,-4.871,3.592,-0.649,144.836,-483.886,376.647,1
1.5703180000000003,-4.631,3.876,-0.365,176.025,-499.938,343.017,1
1.5783649999999998,-4.473,4.198,-0.018,236.083,-517.272,302.856,1
1.5852719999999998,-4.246,4.455,0.405,309.692,-535.156,255.004,1
1.5931559999999996,-4.088,4.509,0.787,371.459,-547.851,199.34,1
1.6018600000000003,-3.812,4.354,1.288,401.367,-549.926,140.38,1
1.6084269999999998,-3.645,4.159,1.708,395.568,-544.189,82.58,1
1.6157310000000003,-3.429,3.953,2.117,375.244,-529.052,28.93,1
1.6243309999999997,-3.366,3.664,2.431,346.923,-506.774,-20.141,1
1.633102,-3.128,3.3,2.736,288.818,-473.083,-68.42,1
1.6401000000000003,-2.832,2.917,2.962,214.111,-432.311,-105.346,1
1.6487350000000003,-2.527,2.612,3.049,164.733,-400.329,-128.784,1
1.6559549999999996,-2.111,2.313,3.2,142.272,-370.117,-146.24,1
1.663513,-1.786,2.038,3.28,136.901,-336.242,-162.109,1
1.6729830000000003,-1.478,1.749,3.349,133.911,-305.664,-172.668,1
1.6801529999999998,-1.205,1.464,3.31,123.474,-276.306,-180.48,1
1.689292,-0.89,1.175,3.211,112.854,-242.614,-186.279,1
1.6964689999999996,-0.684,0.962,3.044,105.102,-216.979,-189.025,1
1.7052459999999998,-0.479,0.73,2.854,98.388,-193.481,-190.307,1
1.7130929999999998,-0.331,0.521,2.673,85.021,-168.029,-189.147,1
1.7210339999999995,-0.148,0.307,2.493,64.086,-148.071,-186.096,1
1.7295249999999998,0.0,0.169,2.35,43.273,-127.563,-180.48,1
1.7379769999999999,0.101,0.046,2.208,27.648,-112.121,-174.133,1
1.7449310000000002,0.194,-0.022,2.054,15.563,-97.9,-167.175,1
1.7541859999999998,0.262,-0.039,1.92,12.084,-84.716,-159.24,1
1.761603,0.308,-0.061,1.825,17.15,-74.768,-152.832,1
1.770085,0.344,-0.114,1.72,25.146,-63.537,-146.057,1
1.7780259999999997,0.398,-0.179,1.647,25.024,-53.466,-139.587,1
1.7856050000000003,0.462,-0.218,1.563,19.287,-43.457,-132.629,1
1.7933750000000002,0.483,-0.208,1.491,13.427,-33.203,-124.938,1
1.8023069999999999,0.504,-0.195,1.421,13.366,-25.39,-119.323,1
1.8096379999999996,0.53,-0.183,1.363,18.859,-18.127,-113.22,1
1.8190429999999997,0.564,-0.199,1.325,21.057,-11.718,-108.154,1
1.8258359999999998,0.614,-0.22,1.275,17.089,-4.089,-102.111,1
1.8346489999999998,0.639,-0.23,1.232,7.629,2.624,-96.74,1
1.8434220000000003,0.66,-0.229,1.18,-2.99,9.033,-91.064,1
1.850518,0.659,-0.222,1.152,-12.329,15.747,-84.899,1
1.859776,0.668,-0.211,1.1,-15.624,20.69,-79.101,1
1.8667249999999997,0.687,-0.199,1.056,-16.296,25.756,-73.059,1
1.8759699999999997,0.693,-0.169,0.988,-14.343,29.785,-68.115,1
1.8841400000000004,0.699,-0.135,0.93,-9.46,32.714,-63.171,1
1.8920560000000002,0.718,-0.108,0.876,-5.065,35.095,-59.326,1
1.900519,0.75,-0.094,0.816,-3.967,37.78,-55.358,1
1.9075220000000002,0.783,-0.085,0.775,-7.019,39.916,-52.062,1
1.9174369999999996,0.801,-0.069,0.746,-10.864,41.503,-48.217,1
1.92448,0.806,-0.052,0.721,-13.427,43.457,-43.945,1
1.9331990000000001,0.802,-0.041,0.702,-13.305,44.921,-39.978,1
1.9406030000000003,0.788,-0.028,0.68,-12.084,46.264,-36.682,1
1.950157,0.774,-0.012,0.654,-9.643,47.607,-32.592,1
1.9580950000000001,0.757,0.014,0.623,-8.117,48.583,-29.113,1
1.9650670000000003,0.755,0.036,0.588,-4.699,49.499,-25.878,1
1.972619,0.768,0.059,0.562,-0.793,49.926,-23.376,1
1.9807259999999998,0.787,0.077,0.52,2.685,50.292,-20.935,1
1.9884630000000003,0.799,0.097,0.48,3.967,50.72,-18.798,1
1.996061,0.803,0.111,0.448,1.892,51.208,-16.784,1
2.0050549999999996,0.799,0.114,0.417,-4.455,51.513,-14.892,1
2.0122039999999997,0.8,0.117,0.391,-11.413,51.94,-13.732,1
2.019528,0.804,0.127,0.37,-17.089,52.062,-12.329,1
2.027469,0.818,0.129,0.353,-19.531,51.635,-10.925,1
2.035191,0.828,0.131,0.337,-18.127,50.292,-9.887,1
2.044435,0.826,0.135,0.326,-13.305,48.95,-8.056,1
2.052169,0.833,0.134,0.32,-7.324,47.485,-6.652,1
2.059265,0.826,0.136,0.32,-0.244,45.898,-4.882,1
2.0683869999999995,0.815,0.143,0.331,9.399,44.067,-3.112,1
2.075766,0.808,0.147,0.337,17.089,42.419,-0.915,1
2.0836439999999996,0.797,0.148,0.347,24.108,41.442,0.915,1
2.09082,0.791,0.148,0.356,29.296,40.649,3.295,1
2.098217,0.797,0.141,0.358,32.043,40.344,5.126,1
2.10743,0.805,0.146,0.355,32.409,40.466,7.385,1
2.1151219999999995,0.811,0.155,0.353,31.127,40.466,9.643,1
2.1220860000000004,0.812,0.171,0.335,27.709,40.893,11.962,1
2.1292429999999998,0.809,0.177,0.321,24.108,41.198,13.427,1
2.1370620000000002,0.8,0.18,0.316,19.165,41.442,14.709,1
2.1441239999999997,0.796,0.192,0.309,14.892,41.748,15.808,1
2.1534199999999997,0.803,0.199,0.302,11.535,41.564,16.845,1
2.1609160000000003,0.805,0.205,0.298,9.948,41.687,18.066,1
2.168882,0.804,0.212,0.296,10.559,41.503,18.981,1
2.1769480000000003,0.803,0.221,0.3,13.305,41.137,19.592,1
2.1838569999999997,0.805,0.229,0.294,18.249,40.832,20.751,1
2.191389,0.818,0.231,0.285,23.315,40.954,21.606,1
2.2002319999999997,0.827,0.238,0.267,26.733,40.832,22.949,1
2.2074169999999995,0.834,0.246,0.238,25.634,41.198,23.742,1
2.2142720000000002,0.837,0.263,0.207,20.629,41.687,24.719,1
2.22178,0.841,0.289,0.173,13.854,42.297,25.329,1
2.230748,0.858,0.323,0.138,8.056,41.992,25.512,1
2.2378,0.88,0.351,0.105,4.882,41.564,25.146,1
2.24639,0.897,0.362,0.092,4.394,40.344,24.475,1
2.253526,0.901,0.364,0.083,5.554,39.55,23.986,1
2.2620699999999996,0.913,0.359,0.078,6.652,38.513,23.681,1
2.2698039999999997,0.921,0.338,0.077,7.385,37.658,23.62,1
2.277799,0.918,0.325,0.068,6.53,37.414,23.803,1
2.284651,0.923,0.324,0.05,3.662,37.109,24.291,1
2.2921189999999996,0.919,0.345,0.018,1.464,36.499,24.719,1
2.299231,0.924,0.373,-0.019,0.976,35.4,25.207,1
2.3074339999999998,0.935,0.414,-0.07,2.99,33.752,25.146,1
2.314958,0.918,0.435,-0.096,5.981,31.005,24.963,1
2.323151,0.919,0.448,-0.121,7.812,28.747,24.353,1
2.3299190000000003,0.943,0.455,-0.133,8.056,26.245,23.742,1
2.3377619999999997,0.935,0.45,-0.119,7.812,23.559,22.888,1
2.3460729999999996,0.934,0.434,-0.095,9.094,21.362,22.888,1
2.352918,0.957,0.425,-0.073,12.512,19.531,22.705,1
2.3611509999999996,0.991,0.425,-0.056,17.395,17.578,23.376,1
2.3689660000000003,1.007,0.436,-0.055,21.301,15.563,23.986,1
2.377802,0.988,0.46,-0.063,20.202,13.793,24.841,1
2.385058,0.973,0.484,-0.083,13.671,12.451,25.085,1
2.3932900000000004,0.966,0.525,-0.085,7.08,10.986,24.963,1
2.400188,0.943,0.569,-0.078,4.638,9.338,24.414,1
2.409028,0.923,0.589,-0.07,5.859,7.507,23.681,1
2.4160709999999996,0.923,0.595,-0.053,7.934,6.042,22.583,1
2.4240969999999997,0.909,0.6,-0.035,8.972,4.394,21.301,1
2.432352,0.888,0.605,-0.022,7.812,3.417,20.019,1
2.439376,0.87,0.618,-0.022,4.333,2.563,18.798,1
2.446586,0.871,0.615,-0.011,0.366,2.075,17.333,1
2.4554039999999997,0.863,0.618,0.015,-2.014,1.342,15.869,1
2.463806,0.862,0.616,0.028,-3.173,0.976,14.831,1
2.4712639999999997,0.854,0.614,0.053,-4.638,0.305,13.427,1
2.4790590000000003,0.847,0.604,0.066,-6.835,0.183,12.084,1
2.48604,0.837,0.589,0.089,-8.3,0.183,10.864,1
2.493945,0.828,0.574,0.113,-7.69,0.244,10.07,1
2.502345,0.839,0.562,0.128,-5.859,0.671,9.277,1
2.509714,0.843,0.547,0.143,-4.577,1.037,8.911,1
2.5172049999999997,0.842,0.545,0.139,-5.31,1.464,7.995,1
2.525361,0.854,0.547,0.141,-5.31,2.075,7.507,1
2.5329129999999997,0.856,0.55,0.129,-4.699,2.075,6.469,1
2.5420689999999997,0.858,0.545,0.128,-4.333,2.136,5.981,1
2.549257,0.867,0.532,0.122,-4.15,1.953,5.371,1
2.5567029999999997,0.877,0.524,0.118,-4.638,2.075,5.126,1
2.5656749999999997,0.889,0.52,0.111,-6.347,1.831,4.943,1
2.5728299999999997,0.897,0.515,0.115,-7.69,1.403,4.882,1
2.5802449999999997,0.9,0.511,0.126,-8.361,1.525,4.638,1
2.588444,0.91,0.505,0.127,-8.3,1.159,4.821,1
2.596146,0.917,0.509,0.137,-7.08,0.671,4.882,1
2.6040010000000002,0.916,0.495,0.145,-5.126,0.671,4.577,1
2.6133610000000003,0.923,0.489,0.143,-4.028,0.793,4.638,1
2.620843,0.917,0.485,0.145,-3.784,0.671,4.76,1
2.628515,0.927,0.478,0.141,-4.089,0.854,4.882,1
2.6361410000000003,0.927,0.481,0.138,-3.479,0.61,5.065,1
2.643471,0.923,0.487,0.141,-2.502,0.366,5.065,1
2.652589,0.925,0.487,0.145,-1.953,0.427,5.31,1
2.659547,0.919,0.494,0.15,-2.136,0.366,5.249,1
2.6668399999999997,0.916,0.497,0.151,-2.197,0.122,5.249,1
2.6751750000000003,0.916,0.499,0.147,-2.197,0.305,4.882,1
2.6837419999999996,0.912,0.497,0.15,-2.868,0.305,4.76,1
2.6904570000000003,0.918,0.493,0.153,-3.967,0.183,4.577,1
2.6981640000000002,0.919,0.494,0.164,-3.906,-0.061,4.638,1
2.705769,0.922,0.499,0.186,-2.38,-0.183,4.699,1
2.7144380000000004,0.926,0.507,0.216,-0.549,-0.305,4.638,1
2.722073,0.922,0.523,0.24,2.075,-0.366,4.821,1
2.729629,0.928,0.557,0.273,5.249,-0.366,4.394,1
2.737113,0.938,0.575,0.308,7.629,0.0,4.089,1
2.7446349999999997,0.954,0.612,0.338,8.605,0.366,3.723,1
2.753223,0.959,0.663,0.386,9.521,0.671,2.868,1
2.7600879999999997,0.971,0.721,0.458,13.061,1.098,1.403,1
2.7693380000000003,1.002,0.785,0.547,19.531,1.708,-0.366,1
2.776346,1.012,0.848,0.666,26.245,3.112,-2.38,1
2.7834579999999995,1.017,0.92,0.799,33.203,5.31,-4.516,1
2.7908920000000004,1.039,0.972,0.928,41.015,8.239,-7.263,1
2.8000350000000003,1.052,1.009,1.038,48.95,12.817,-10.131,1
2.8074630000000003,1.071,1.048,1.184,53.039,17.883,-13.305,1
2.816994,1.06,1.085,1.295,52.551,26.123,-17.089,1
2.8241499999999995,1.035,1.138,1.396,50.354,35.4,-21.728,1
2.832212,1.028,1.175,1.465,52.185,43.334,-25.817,1
2.8403840000000002,1.006,1.199,1.52,58.227,52.917,-31.616,1
2.849921,0.979,1.189,1.542,59.692,61.828,-35.949,1
2.857901,0.949,1.201,1.544,57.006,72.448,-41.564,1
2.8643140000000002,0.924,1.208,1.519,54.87,81.665,-46.386,1
2.8725949999999996,0.897,1.208,1.478,53.588,90.454,-51.635,1
2.8794589999999998,0.876,1.201,1.422,51.757,98.449,-56.701,1
2.8885680000000002,0.838,1.2,1.354,51.208,106.75,-62.011,1
2.8952489999999997,0.817,1.188,1.293,53.527,113.952,-67.138,1
2.90224,0.782,1.178,1.233,58.776,120.422,-71.777,1
2.909956,0.74,1.187,1.166,67.626,125.976,-76.538,1
2.9174239999999996,0.704,1.195,1.097,79.345,130.92,-80.993,1
2.92504,0.666,1.201,1.023,92.224,135.437,-85.021,1
2.933657,0.627,1.252,0.964,109.13,138.916,-89.233,1
2.9409460000000003,0.608,1.314,0.912,133.667,141.54,-92.712,1
2.9485590000000004,0.588,1.346,0.849,161.01,144.836,-96.374,1
2.9576649999999995,0.543,1.338,0.77,171.813,148.132,-99.365,1
2.9644500000000003,0.513,1.318,0.712,170.898,152.526,-102.111,1
2.971786,0.474,1.303,0.649,161.621,157.592,-105.285,1
2.9805099999999998,0.415,1.287,0.586,149.353,162.597,-108.825,1
2.9871179999999997,0.343,1.271,0.505,139.16,166.931,-112.548,1
2.9958609999999997,0.284,1.266,0.432,134.826,170.715,-116.577,1
3.0028490000000003,0.207,1.252,0.342,136.23,173.645,-120.849,1
3.011889,0.131,1.227,0.24,138.061,176.452,-125.976,1
3.0182969999999996,0.041,1.189,0.145,137.573,178.894,-130.554,1
3.0274669999999997,-0.004,1.155,0.058,139.587,181.274,-134.704,1
3.03407,-0.031,1.132,-0.061,144.409,182.373,-138.0,1
3.0437830000000003,-0.087,1.079,-0.181,150.695,183.288,-142.028,1
3.0509129999999995,-0.126,1.015,-0.296,151.977,184.753,-144.897,1
3.0600499999999995,-0.149,0.95,-0.437,147.338,185.241,-147.705,1
3.06708,-0.186,0.895,-0.541,140.441,185.424,-150.024,1
3.076294,-0.217,0.822,-0.659,127.38,185.546,-152.526,1
3.0834390000000003,-0.22,0.755,-0.764,115.356,184.753,-154.235,1
3.092949,-0.185,0.673,-0.921,103.271,182.739,-155.334,1
3.1018549999999996,-0.132,0.582,-1.072,91.491,179.382,-156.494,1
3.108473,-0.088,0.505,-1.172,83.435,173.95,-156.799,1
3.117425,-0.031,0.415,-1.284,86.303,167.541,-156.188,1
3.1251869999999995,0.024,0.333,-1.375,95.153,159.057,-154.663,1
3.1331930000000003,0.07,0.249,-1.444,100.769,151.367,-152.465,1
3.140512,0.122,0.172,-1.511,106.689,142.15,-148.437,1
3.1486599999999996,0.194,0.106,-1.551,111.816,134.277,-145.08,1
3.156294,0.214,0.058,-1.608,111.022,126.525,-141.296,1
