timestamp_s,ax,ay,az,gx,gy,gz,label
0.0,0.327,0.626,-0.7,160.095,97.595,-74.096,1
0.0066829999999997725,0.335,0.629,-0.684,147.888,99.243,-73.547,1
0.014888000000000012,0.318,0.64,-0.662,138.427,99.731,-73.364,1
0.021511999999999976,0.299,0.636,-0.614,137.573,100.402,-73.547,1
0.029916000000000054,0.289,0.615,-0.564,145.812,99.853,-73.303,1
0.036680000000000046,0.282,0.572,-0.495,161.315,99.609,-72.509,1
0.045560000000000045,0.282,0.518,-0.437,178.71,100.463,-70.861,1
0.0524009999999997,0.306,0.489,-0.423,186.34,103.637,-68.542,1
0.05945799999999979,0.316,0.458,-0.446,171.325,107.299,-67.077,1
0.06688500000000008,0.357,0.486,-0.531,136.535,116.882,-64.575,1
0.07481800000000005,0.566,0.698,-0.951,81.237,130.31,-64.636,1
0.08148399999999967,0.699,0.636,-1.217,1.831,124.572,-72.143,1
0.08991499999999997,0.51,0.473,-0.962,-50.659,130.371,-75.622,1
0.09616599999999975,0.353,0.435,-0.937,-88.439,140.136,-78.491,1
0.10458899999999982,0.192,0.631,-0.921,-97.473,133.789,-83.496,1
0.11117099999999969,0.179,0.78,-0.68,-67.626,131.042,-87.219,1
0.11941599999999974,0.28,0.87,-0.588,-16.296,125.122,-89.965,1
0.12646500000000005,0.328,0.925,-0.544,49.621,120.056,-92.163,1
0.13421199999999978,0.323,0.931,-0.618,113.281,115.112,-92.956,1
0.14288999999999996,0.272,0.857,-0.724,160.461,111.389,-92.773,1
0.1499189999999997,0.21,0.733,-0.842,179.321,111.694,-92.59,1
0.15784699999999985,0.153,0.627,-0.973,169.25,113.586,-92.224,1
0.1658529999999998,0.107,0.549,-1.045,140.197,115.478,-92.224,1
0.17422000000000004,0.055,0.524,-1.061,98.083,118.53,-92.59,1
0.1808209999999999,0.038,0.529,-1.062,66.711,120.605,-93.444,1
0.18955300000000008,0.036,0.558,-1.07,47.729,121.032,-94.787,1
0.196307,0.054,0.584,-1.09,43.701,119.262,-96.313,1
0.20471400000000006,0.055,0.591,-1.122,52.124,116.21,-97.778,1
0.21128899999999984,0.046,0.572,-1.178,70.068,111.755,-98.693,1
0.21994500000000006,0.033,0.566,-1.2,90.27,107.238,-99.304,1
0.2267859999999997,0.056,0.558,-1.219,112.243,102.355,-99.121,1
0.2346969999999997,0.059,0.563,-1.228,132.568,97.839,-97.9,1
0.24151299999999987,0.069,0.584,-1.234,150.207,93.994,-96.313,1
0.24987000000000004,0.094,0.615,-1.258,162.658,90.576,-94.665,1
0.2583169999999999,0.086,0.625,-1.285,171.081,87.524,-93.078,1
0.2666439999999999,0.11,0.599,-1.313,177.307,83.984,-90.698,1
0.2739339999999997,0.168,0.637,-1.331,180.603,80.505,-89.538,1
0.28123999999999993,0.213,0.631,-1.324,181.518,77.941,-88.867,1
0.28987799999999986,0.244,0.612,-1.303,178.527,77.026,-87.951,1
0.296856,0.265,0.624,-1.327,173.461,76.66,-86.73,1
0.30517700000000003,0.271,0.615,-1.341,160.217,74.707,-85.754,1
0.31340199999999996,0.246,0.644,-1.357,142.15,74.34,-84.472,1
0.3205079999999998,0.221,0.668,-1.372,119.628,72.998,-83.984,1
0.32909999999999995,0.215,0.696,-1.368,97.778,71.96,-83.74,1
0.33619999999999983,0.202,0.742,-1.35,79.772,70.129,-84.045,1
0.34309999999999974,0.225,0.777,-1.328,67.199,68.054,-84.838,1
0.35187899999999983,0.272,0.817,-1.294,60.852,65.917,-85.937,1
0.35879899999999987,0.317,0.865,-1.281,57.922,63.537,-87.585,1
0.36761299999999997,0.354,0.911,-1.271,56.152,61.035,-89.66,1
0.3742079999999999,0.375,0.925,-1.251,52.429,58.654,-91.735,1
0.38244599999999984,0.391,0.934,-1.247,47.485,56.823,-93.505,1
0.39119100000000007,0.403,0.936,-1.238,39.978,54.809,-95.52,1
0.39777400000000007,0.392,0.927,-1.22,31.86,52.734,-97.412,1
0.40610999999999997,0.376,0.908,-1.206,23.62,50.476,-99.67,1
0.4132319999999998,0.369,0.896,-1.18,19.714,48.645,-101.684,1
0.42139799999999994,0.37,0.891,-1.159,20.446,45.959,-103.515,1
0.4297169999999997,0.377,0.879,-1.133,25.207,44.128,-105.468,1
0.43637099999999984,0.375,0.872,-1.116,30.395,42.236,-107.421,1
0.4451369999999999,0.367,0.858,-1.098,32.775,40.954,-108.703,1
0.4535149999999999,0.372,0.848,-1.071,29.785,40.161,-110.656,1
0.4601470000000001,0.385,0.843,-1.042,24.047,39.733,-112.792,1
0.46830599999999967,0.427,0.822,-1.016,17.211,40.161,-114.929,1
0.474939,0.472,0.791,-1.006,7.568,41.076,-116.577,1
0.48335300000000014,0.532,0.756,-0.995,-6.103,41.442,-117.431,1
0.49063699999999955,0.579,0.729,-0.995,-25.512,42.297,-118.286,1
0.49901899999999966,0.593,0.734,-0.959,-41.137,43.334,-118.652,1
0.5078079999999998,0.602,0.796,-0.938,-49.011,43.884,-119.689,1
0.5153039999999995,0.665,0.794,-0.91,-48.95,45.654,-120.544,1
0.5242930000000001,0.717,0.752,-0.924,-51.513,46.447,-120.239,1
0.5326880000000003,0.742,0.71,-0.952,-57.739,47.668,-119.689,1
0.5398009999999998,0.737,0.672,-0.971,-68.42,47.79,-119.812,1
0.5476669999999997,0.689,0.628,-0.953,-82.397,48.645,-120.422,1
0.5559209999999997,0.628,0.579,-0.937,-89.66,48.889,-120.605,1
0.563123,0.584,0.53,-0.894,-87.28,48.889,-120.239,1
0.5714949999999996,0.565,0.47,-0.858,-74.401,48.583,-119.384,1
0.579453,0.549,0.418,-0.829,-59.57,48.339,-118.408,1
0.5883929999999999,0.568,0.372,-0.813,-45.837,48.583,-117.675,1
0.5966389999999997,0.554,0.337,-0.79,-32.409,47.973,-117.126,1
0.603059,0.524,0.314,-0.761,-17.944,48.522,-115.417,1
0.6114239999999995,0.544,0.285,-0.777,-4.882,47.485,-113.769,1
0.6197270000000001,0.536,0.264,-0.774,4.821,47.058,-113.037,1
0.6263259999999997,0.491,0.254,-0.78,12.329,46.02,-112.792,1
0.6347300000000002,0.441,0.255,-0.79,18.493,45.104,-112.792,1
0.6426730000000003,0.426,0.256,-0.8,23.559,43.273,-113.159,1
0.6510340000000001,0.452,0.246,-0.826,23.254,41.625,-113.891,1
0.6590059999999998,0.363,0.265,-0.851,21.85,39.306,-115.783,1
0.6656529999999998,0.192,0.277,-0.851,23.925,36.376,-116.394,1
0.6725570000000003,0.108,0.263,-0.845,31.982,33.874,-115.661,1
0.6805159999999999,0.033,0.284,-0.879,43.884,30.944,-114.746,1
0.6874260000000003,0.071,0.333,-0.937,58.837,25.756,-115.234,1
0.6953199999999997,0.141,0.403,-0.952,86.486,19.958,-116.638,1
0.7021699999999997,0.168,0.476,-0.946,130.981,13.122,-118.835,1
0.7109399999999999,0.146,0.579,-0.959,177.612,8.789,-120.056,1
0.7175050000000001,0.14,0.659,-1.009,234.558,1.464,-121.276,1
0.7255579999999995,0.155,0.761,-1.009,283.264,-3.051,-122.497,1
0.7322470000000001,0.173,0.791,-1.038,306.03,-4.394,-123.962,1
0.7405989999999996,0.294,0.762,-1.057,292.236,-2.99,-125.671,1
0.7472029999999998,0.423,0.701,-1.049,249.084,0.061,-126.403,1
0.755376,0.498,0.682,-1.013,199.707,2.685,-126.403,1
0.7624040000000001,0.511,0.707,-0.945,166.564,3.906,-126.281,1
0.7703350000000002,0.494,0.769,-0.899,155.822,2.99,-126.037,1
0.7773279999999998,0.567,0.786,-0.828,164.123,0.427,-126.708,1
0.7858419999999997,0.536,0.798,-0.824,177.612,0.427,-126.464,1
0.79284,0.566,0.762,-0.846,183.288,-1.953,-126.159,1
0.8014070000000002,0.592,0.754,-0.822,175.537,-0.183,-125.854,1
0.8097539999999999,0.591,0.758,-0.848,153.32,1.159,-125.915,1
0.8166130000000003,0.588,0.774,-0.836,120.483,3.967,-126.037,1
0.8248139999999999,0.532,0.799,-0.825,86.181,5.859,-126.77,1
0.8315649999999994,0.431,0.84,-0.759,59.265,6.652,-128.54,1
0.8394539999999999,0.339,0.862,-0.701,54.382,5.859,-130.187,1
0.8477969999999999,0.305,0.895,-0.64,67.199,4.882,-132.019,1
0.8555349999999997,0.249,0.896,-0.592,87.341,2.563,-133.972,1
0.862603,0.121,0.86,-0.502,105.346,1.953,-135.253,1
0.870565,0.017,0.822,-0.416,119.079,3.295,-136.23,1
0.8776489999999999,-0.006,0.762,-0.327,120.91,5.737,-137.878,1
0.8855620000000002,-0.097,0.73,-0.252,111.45,10.864,-138.732,1
0.8925939999999999,-0.209,0.729,-0.166,101.501,15.014,-139.709,1
0.9010100000000003,-0.062,0.741,-0.096,96.374,20.019,-140.502,1
0.908048,0.013,0.738,0.014,90.148,26.977,-140.869,1
0.9152579999999997,-0.083,0.673,0.055,80.017,37.902,-141.845,1
0.9223140000000001,-0.293,0.604,0.088,60.607,46.63,-142.395,1
0.9292879999999997,-0.391,0.537,0.115,28.259,59.631,-143.127,1
0.9363789999999996,-0.409,0.381,0.129,-14.526,72.265,-143.92,1
0.944267,-0.496,0.292,0.143,-58.776,86.547,-144.226,1
0.9511539999999998,-0.572,0.248,0.149,-93.261,98.144,-144.165,1
0.9595839999999995,-0.476,0.187,0.165,-107.36,108.642,-144.714,1
0.9665660000000003,-0.504,0.145,0.113,-116.088,117.492,-144.409,1
0.9734470000000002,-0.568,0.097,0.117,-115.234,125.427,-144.287,1
0.9804269999999997,-0.598,0.021,0.085,-107.482,132.751,-144.042,1
0.9889039999999998,-0.613,-0.071,0.061,-98.571,138.671,-142.395,1
0.9954169999999998,-0.6,-0.156,0.04,-87.463,144.897,-140.319,1
1.003686,-0.635,-0.231,-0.004,-77.88,148.498,-137.512,1
1.0103539999999995,-0.617,-0.295,-0.044,-63.659,152.587,-132.934,1
1.018192,-0.49,-0.354,-0.035,-45.043,155.273,-128.295,1
1.0269630000000003,-0.56,-0.416,-0.083,-15.197,158.935,-121.52,1
1.033951,-0.635,-0.474,-0.127,16.54,159.484,-113.525,1
1.0412919999999994,-0.649,-0.523,-0.158,44.433,161.56,-103.82,1
1.0482319999999996,-0.663,-0.592,-0.215,61.584,164.001,-94.36,1
1.0555440000000003,-0.731,-0.676,-0.27,60.729,169.433,-83.557,1
1.0636159999999997,-0.794,-0.766,-0.364,37.048,175.72,-72.448,1
1.0713929999999996,-0.837,-0.827,-0.437,1.647,183.227,-61.035,1
1.0799029999999998,-0.95,-0.858,-0.507,-36.193,190.856,-49.926,1
1.0888999999999998,-1.068,-0.88,-0.57,-74.646,199.34,-37.536,1
1.0956229999999998,-1.128,-0.901,-0.646,-98.022,204.284,-27.77,1
1.1036989999999998,-1.064,-0.928,-0.717,-107.482,206.237,-19.104,1
1.1112469999999997,-1.069,-0.968,-0.78,-99.609,206.848,-8.178,1
1.1190449999999998,-1.069,-1.018,-0.853,-88.684,205.444,1.525,1
1.127517,-1.046,-1.1,-0.916,-85.693,204.223,12.084,1
1.1355579999999996,-1.155,-1.176,-1.004,-94.909,204.711,22.949,1
1.1437919999999995,-1.257,-1.226,-1.093,-114.624,205.017,36.132,1
1.1516789999999997,-1.295,-1.251,-1.219,-125.854,204.223,48.034,1
1.1600520000000003,-1.312,-1.269,-1.309,-116.821,201.11,62.255,1
1.1687380000000003,-1.358,-1.289,-1.426,-87.707,194.702,75.073,1
1.1766509999999997,-1.52,-1.432,-1.577,-43.762,186.34,90.82,1
1.1854589999999998,-1.567,-1.641,-1.791,-3.051,177.917,106.933,1
1.1920779999999995,-1.669,-2.024,-2.087,23.254,165.649,129.577,1
1.200411,-1.694,-2.29,-2.286,29.541,154.907,152.038,1
1.2071240000000003,-1.689,-2.491,-2.45,30.151,143.554,176.696,1
1.217218,-1.709,-2.616,-2.59,23.681,130.249,203.491,1
1.22558,-1.953,-2.63,-2.673,-1.22,116.394,236.083,1
1.232634,-2.067,-2.491,-2.684,-29.541,104.98,262.939,1
1.2413689999999997,-2.367,-2.176,-2.638,-55.908,90.881,292.053,1
1.2482309999999996,-2.699,-1.925,-2.584,-55.236,79.589,314.575,1
1.2562280000000001,-3.04,-1.749,-2.61,-31.249,64.331,335.571,1
1.2649949999999999,-3.323,-1.672,-2.651,21.24,45.959,356.628,1
1.2714249999999998,-3.607,-1.749,-2.849,80.383,21.667,379.394,1
1.2800859999999998,-3.803,-1.859,-3.016,123.291,-8.605,408.691,1
1.2889439999999999,-4.03,-1.926,-3.21,128.845,-36.315,434.936,1
1.2955309999999995,-4.386,-1.919,-3.358,113.159,-63.72,463.317,1
1.3038160000000003,-4.853,-1.813,-3.47,80.627,-94.726,496.643,1
1.3121520000000002,-5.478,-1.627,-3.528,48.034,-122.192,524.414,1
1.3208890000000002,-6.28,-1.375,-3.54,19.836,-148.01,550.537,1
1.3296339999999995,-6.906,-1.198,-3.548,5.432,-179.138,580.017,1
1.3375959999999996,-7.6,-0.956,-3.546,31.249,-216.552,607.543,1
1.3446449999999999,-8.237,-0.774,-3.514,75.256,-255.554,628.418,1
1.3530429999999996,-8.998,-0.61,-3.437,128.173,-306.823,648.254,1
1.3617559999999997,-9.705,-0.504,-3.298,170.898,-355.651,662.536,1
1.3688529999999997,-10.438,-0.369,-3.096,210.083,-406.494,674.194,1
1.377452,-11.427,-0.154,-2.803,247.131,-468.444,683.227,1
1.3844129999999994,-12.359,0.074,-2.514,270.874,-521.972,686.096,1
1.3922210000000002,-13.251,0.315,-2.189,295.471,-576.232,683.349,1
1.3993099999999998,-14.138,0.544,-1.829,323.852,-631.897,675.231,1
1.4074970000000002,-14.925,0.743,-1.457,356.14,-687.683,660.156,1
1.4161770000000002,-15.805,0.93,-1.115,377.075,-742.004,638.61,1
1.4227210000000001,-15.998,1.098,-0.712,390.686,-791.931,610.717,1
1.4311670000000003,-15.999,1.335,-0.253,402.709,-837.097,576.904,1
1.4382149999999996,-15.999,1.51,0.069,422.119,-887.084,530.456,1
1.447089,-15.999,1.666,0.304,441.894,-926.696,484.008,1
1.453697,-15.999,1.778,0.528,467.651,-965.087,430.908,1
1.4612049999999996,-15.999,1.84,0.732,491.271,-992.37,383.056,1
1.4686839999999997,-15.999,2.005,0.875,512.695,-1025.756,318.298,1
1.4754379999999996,-15.999,2.154,1.145,537.841,-1047.058,249.816,1
1.4835269999999996,-15.999,2.162,1.354,559.326,-1072.876,174.194,1
1.4902509999999998,-15.999,2.089,1.615,583.251,-1081.298,96.557,1
1.4980799999999999,-15.999,1.989,1.726,623.962,-1090.271,13.305,1
1.5063759999999995,-15.999,1.731,1.895,626.647,-1082.946,-71.228,1
1.514233,-15.999,1.37,1.947,554.26,-1062.561,-149.658,1
1.5226489999999995,-15.999,1.325,2.061,441.162,-1040.344,-209.594,1
1.5292079999999997,-15.999,1.401,2.555,301.696,-1006.896,-257.141,1
1.5374429999999997,-15.999,1.592,2.567,231.994,-978.698,-285.4,1
1.5457999999999998,-15.999,1.756,2.647,247.436,-954.65,-311.462,1
1.5523509999999998,-15.999,1.762,2.53,301.818,-926.818,-342.895,1
1.5607549999999994,-15.999,1.68,2.413,344.787,-898.376,-380.371,1
1.5679379999999998,-15.999,1.548,2.344,374.694,-865.356,-419.799,1
1.5763670000000003,-15.999,1.341,2.326,413.391,-829.528,-458.862,1
1.584613,-15.768,1.096,2.295,464.172,-782.226,-501.647,1
1.5927439999999997,-14.754,0.912,2.166,514.77,-735.107,-535.949,1
1.5994839999999995,-13.842,0.717,1.977,553.405,-685.852,-569.946,1
1.6074219999999997,-13.031,0.538,1.807,569.763,-628.356,-600.891,1
1.6160629999999996,-12.312,0.348,1.626,556.091,-568.664,-628.112,1
1.6236480000000002,-11.764,0.125,1.497,511.352,-506.591,-648.132,1
1.6306719999999997,-11.179,-0.032,1.368,431.518,-447.326,-659.606,1
1.637479,-10.654,-0.124,1.323,347.412,-396.118,-662.902,1
1.647163,-10.223,-0.229,1.26,280.212,-353.942,-658.447,1
1.6542529999999998,-9.646,-0.31,1.324,237.487,-310.974,-646.179,1
1.6627039999999997,-8.982,-0.474,1.295,222.656,-280.883,-633.056,1
1.6696710000000001,-8.392,-0.571,1.377,226.379,-254.638,-618.286,1
1.677943,-7.85,-0.69,1.369,253.906,-223.754,-600.097,1
1.686172,-7.318,-0.839,1.356,272.216,-198.73,-581.298,1
1.6944729999999995,-6.42,-0.952,1.256,282.409,-165.222,-564.147,1
1.7026889999999995,-5.969,-1.091,1.271,274.719,-141.784,-548.522,1
1.709377,-5.554,-1.197,1.222,260.742,-113.464,-528.747,1
1.7180499999999999,-5.157,-1.212,1.18,245.422,-92.712,-508.3,1
1.72649,-4.797,-1.278,1.203,243.652,-66.528,-480.773,1
1.7335500000000001,-4.577,-1.295,1.201,250.732,-47.912,-455.81,1
1.7412979999999996,-4.219,-1.397,1.257,245.666,-29.357,-426.269,1
1.749625,-3.866,-1.355,1.051,253.173,-10.009,-402.893,1
1.7578810000000002,-3.559,-1.407,1.188,263.061,6.469,-374.572,1
1.7648570000000001,-3.227,-1.392,1.047,267.944,25.695,-341.552,1
1.7732640000000002,-2.932,-1.382,1.088,268.798,41.748,-313.537,1
1.780284,-2.594,-1.365,0.987,286.376,54.443,-285.217,1
1.788868,-2.339,-1.365,0.989,298.156,66.955,-257.019,1
1.7975349999999999,-2.043,-1.345,0.875,298.156,80.139,-224.67,1
1.8040950000000002,-1.881,-1.29,0.876,292.175,90.759,-198.486,1
1.8123499999999995,-1.759,-1.206,0.803,275.695,100.769,-173.522,1
1.8194569999999999,-1.512,-1.082,0.822,275.39,105.895,-149.658,1
1.827902,-1.384,-0.996,0.792,282.531,111.755,-125.671,1
1.8361840000000003,-1.371,-0.894,0.805,279.052,115.173,-98.51,1
1.8448209999999996,-1.365,-0.793,0.826,270.507,119.628,-76.416,1
1.85182,-1.355,-0.691,0.848,259.338,122.497,-55.786,1
1.8599990000000002,-1.325,-0.595,0.862,244.506,127.197,-34.24,1
1.8683839999999998,-1.291,-0.507,0.892,231.811,128.784,-16.479,1
1.8752709999999997,-1.236,-0.42,0.892,223.022,131.774,2.502,1
1.883636,-1.221,-0.37,0.9,214.904,132.568,14.892,1
1.8923559999999995,-1.166,-0.315,0.892,202.087,135.498,28.137,1
1.899603,-1.122,-0.264,0.888,179.992,136.413,41.992,1
1.9076940000000002,-1.041,-0.209,0.888,159.484,139.709,53.344,1
1.9165679999999998,-0.961,-0.17,0.869,143.066,140.258,60.974,1
1.9236199999999997,-0.865,-0.134,0.875,129.76,141.784,68.542,1
1.9320059999999994,-0.792,-0.088,0.873,120.483,141.662,74.646,1
1.9385909999999997,-0.779,-0.034,0.895,120.056,141.845,80.749,1
1.9468230000000002,-0.771,0.016,0.894,125.61,140.258,85.693,1
1.9534199999999995,-0.771,0.058,0.904,133.056,139.16,90.515,1
1.9617209999999998,-0.731,0.078,0.895,138.488,137.939,95.153,1
1.9703140000000001,-0.669,0.086,0.893,136.962,137.207,98.51,1
1.9787229999999996,-0.622,0.102,0.874,123.779,138.366,102.111,1
1.9858209999999996,-0.612,0.128,0.865,106.018,139.465,103.393,1
1.9927169999999998,-0.57,0.152,0.847,89.965,141.479,103.21,1
1.9999260000000003,-0.516,0.165,0.829,77.392,143.005,102.355,1
2.0089829999999997,-0.463,0.179,0.809,67.382,143.737,100.585,1
2.0158889999999996,-0.414,0.197,0.779,60.363,144.042,98.205,1
2.024431,-0.378,0.198,0.746,58.471,143.554,95.947,1
2.0313539999999994,-0.344,0.199,0.701,63.11,141.357,92.895,1
2.0383620000000002,-0.23,0.185,0.682,68.115,138.549,90.881,1
2.046583,-0.151,0.161,0.653,76.599,136.108,88.439,1
2.0548329999999995,-0.058,0.131,0.618,84.228,132.751,85.693,1
2.061813,0.053,0.089,0.58,91.369,128.906,82.458,1
2.068829,0.198,0.043,0.552,90.942,124.694,79.528,1
2.07698,0.334,0.018,0.535,86.669,121.276,77.27,1
2.084073,0.465,0.011,0.523,84.106,116.577,74.584,1
2.0919109999999996,0.576,0.014,0.527,89.782,111.389,71.655,1
2.0988249999999997,0.682,0.017,0.513,99.853,106.079,69.458,1
2.1066279999999997,0.748,0.015,0.517,116.21,99.243,66.223,1
2.1149009999999997,0.823,0.008,0.522,134.704,92.224,63.415,1
2.123423,0.895,-0.008,0.528,152.893,85.449,60.302,1
2.1304350000000003,0.949,-0.045,0.531,163.146,80.261,56.945,1
2.1380489999999996,1.036,-0.083,0.525,160.766,76.904,54.199,1
2.144922,1.076,-0.121,0.52,148.925,74.829,52.185,1
2.1536020000000002,1.064,-0.125,0.517,134.338,73.852,50.476,1
2.162458,1.145,-0.109,0.511,124.633,72.753,49.011,1
2.169313,1.087,-0.068,0.508,112.915,72.204,47.241,1
2.1758939999999996,1.047,-0.027,0.485,106.567,70.922,45.654,1
2.1840409999999997,0.969,0.016,0.465,100.708,69.58,43.762,1
2.191025,0.847,0.045,0.443,96.13,67.382,41.931,1
2.197978,0.763,0.081,0.434,96.862,62.927,39.978,1
2.206263,0.702,0.123,0.429,105.529,58.349,38.574,1
2.213189,0.662,0.161,0.423,124.145,52.246,37.109,1
2.2200249999999997,0.664,0.169,0.416,147.033,47.79,35.461,1
2.2285009999999996,0.71,0.155,0.383,175.842,41.625,34.606,1
2.23566,0.752,0.113,0.368,197.631,36.56,33.813,1
2.2434000000000003,0.776,0.059,0.339,206.848,33.081,33.752,1
2.251672,0.771,0.031,0.327,201.66,31.066,33.752,1
2.2583899999999995,0.79,0.02,0.324,189.819,30.761,34.484,1
2.267061,0.814,0.023,0.327,175.598,30.029,34.912,1
2.2744590000000002,0.803,0.055,0.345,167.175,29.235,35.705,1
2.2813799999999995,0.753,0.091,0.352,164.672,26.794,36.071,1
2.2896650000000003,0.696,0.117,0.362,169.189,24.475,36.621,1
2.2965780000000002,0.679,0.132,0.361,178.039,21.301,36.865,1
2.3048519999999995,0.653,0.125,0.362,187.438,17.395,37.17,1
2.3114369999999997,0.623,0.111,0.357,194.335,14.892,37.658,1
2.3199170000000002,0.607,0.089,0.342,195.922,12.634,37.78,1
2.3260569999999996,0.606,0.055,0.333,191.528,11.291,38.452,1
2.3343920000000002,0.639,0.025,0.326,182.373,10.864,39.306,1
2.342632,0.667,-0.001,0.326,169.25,11.596,40.283,1
2.349621,0.685,-0.023,0.325,154.541,13.671,41.381,1
2.3563799999999997,0.657,-0.032,0.325,139.77,15.502,42.358,1
2.36343,0.649,-0.048,0.317,128.295,16.784,43.09,1
2.3709559999999996,0.693,-0.057,0.318,120.91,16.296,43.945,1
2.377866,0.736,-0.058,0.325,120.361,15.258,44.677,1
2.384933,0.785,-0.046,0.332,127.38,12.939,45.471,1
2.39293,0.8,-0.045,0.33,142.15,9.765,46.264,1
2.4000639999999995,0.833,-0.054,0.331,155.7,6.469,47.058,1
2.4065250000000002,0.88,-0.071,0.341,169.799,2.99,47.546,1
2.413622,0.895,-0.079,0.351,177.856,0.854,48.522,1
2.4206639999999995,0.873,-0.091,0.357,182.434,-0.671,49.499,1
2.4284280000000003,0.83,-0.104,0.37,182.739,-0.671,50.231,1
2.4355979999999997,0.791,-0.122,0.371,178.466,-0.427,50.476,1
2.4438629999999995,0.765,-0.144,0.378,172.973,0.671,50.842,1
2.4510240000000003,0.756,-0.155,0.369,165.283,1.77,51.025,1
2.4576719999999996,0.748,-0.168,0.37,159.118,2.868,50.964,1
2.4643879999999996,0.727,-0.178,0.361,156.982,3.601,51.086,1
2.471325,0.74,-0.192,0.348,158.996,4.211,51.086,1
2.478416,0.834,-0.217,0.338,162.719,3.601,51.635,1
2.4864869999999994,0.969,-0.248,0.356,163.574,3.54,52.795,1
2.493156,1.015,-0.259,0.357,161.071,4.15,54.504,1
2.4995959999999995,1.082,-0.231,0.374,158.325,3.784,56.213,1
2.5074620000000003,1.073,-0.206,0.375,157.958,3.54,57.067,1
2.5161350000000002,0.994,-0.175,0.38,158.325,2.502,57.739,1
2.5232840000000003,0.928,-0.148,0.384,157.897,2.014,58.349,1
2.5303839999999997,0.869,-0.116,0.387,156.982,0.854,58.532,1
2.5373330000000003,0.832,-0.108,0.407,157.104,2.685,57.922,1
2.545808,0.825,-0.118,0.393,152.954,4.15,56.884,1
2.553598,0.821,-0.131,0.392,143.188,7.202,56.152,1
2.560618,0.826,-0.138,0.38,130.126,10.437,54.931,1
2.5690020000000002,0.781,-0.148,0.391,118.286,14.282,53.588,1
2.5753759999999994,0.77,-0.171,0.373,109.68,18.31,52.856,1
2.582668,0.796,-0.198,0.38,102.905,21.789,52.062,1
2.5906399999999996,0.862,-0.224,0.368,99.487,24.902,52.124,1
2.597289,0.912,-0.234,0.365,101.745,25.878,52.307,1
2.60501,0.934,-0.228,0.363,114.135,26.489,52.429,1
2.6127339999999997,0.941,-0.229,0.352,132.08,25.39,52.734,1
2.6191949999999995,0.979,-0.241,0.352,162.841,23.681,53.588,1
2.626276,1.007,-0.277,0.315,192.138,20.751,54.687,1
2.6342369999999997,1.02,-0.34,0.289,202.026,18.432,55.908,1
2.640976,1.061,-0.396,0.273,191.772,17.7,57.8,1
2.649515,1.139,-0.434,0.268,167.968,19.653,59.814,1
2.6561009999999996,1.199,-0.428,0.271,141.052,22.399,62.255,1
2.663393,1.255,-0.396,0.27,116.76,25.146,64.453,1
2.671501,1.265,-0.356,0.268,99.182,27.465,66.223,1
2.6783459999999994,1.251,-0.3,0.271,89.965,28.259,68.298,1
2.687055,1.224,-0.232,0.286,87.89,28.32,69.519,1
2.6940669999999995,1.197,-0.166,0.295,91.308,27.77,70.434,1
2.7014709999999997,1.159,-0.093,0.309,97.534,26.977,71.228,1
2.710324,1.125,-0.042,0.331,101.806,26.489,71.533,1
2.716394,1.083,0.008,0.348,101.562,26.611,71.35,1
2.724621,1.042,0.045,0.363,98.754,26.977,71.105,1
2.73151,0.986,0.119,0.403,93.383,27.282,70.739,1
2.7397659999999995,0.951,0.169,0.432,90.454,28.625,69.946,1
2.7466239999999997,0.933,0.218,0.448,87.28,29.602,69.152,1
2.7537529999999997,0.94,0.279,0.464,82.397,31.677,67.687,1
2.762637,0.929,0.324,0.479,77.88,33.447,66.711,1
2.7696439999999996,0.89,0.383,0.487,72.937,36.499,65.002,1
2.776681,0.844,0.432,0.49,70.739,38.452,62.744,1
2.7854140000000003,0.822,0.458,0.492,68.542,41.625,60.119,1
2.792098,0.794,0.485,0.489,66.772,44.372,57.556,1
2.799132,0.785,0.513,0.482,66.955,47.546,54.87,1
2.8060019999999994,0.778,0.529,0.475,68.908,50.537,51.94,1
2.8129429999999997,0.759,0.538,0.469,70.251,54.077,49.255,1
2.820678,0.759,0.543,0.445,70.007,56.396,47.18,1
2.8290249999999997,0.778,0.543,0.42,68.176,59.753,44.372,1
2.8356269999999997,0.799,0.531,0.391,64.453,63.049,42.053,1
2.842003,0.824,0.516,0.369,60.485,65.673,40.405,1
2.850764,0.818,0.506,0.348,56.884,68.969,38.269,1
2.8572549999999994,0.783,0.493,0.332,54.26,71.472,36.132,1
2.8641879999999995,0.765,0.477,0.316,55.847,75.195,33.691,1
2.871428,0.774,0.457,0.291,58.654,76.477,32.043,1
2.8790189999999996,0.78,0.437,0.274,64.453,79.162,30.395,1
2.885956,0.797,0.416,0.244,71.838,81.176,28.686,1
2.8936149999999996,0.786,0.403,0.23,81.97,83.007,27.343,1
2.9018879999999996,0.769,0.39,0.199,90.881,84.594,25.939,1
2.908888,0.742,0.369,0.169,102.05,86.364,24.414,1
2.9159740000000003,0.693,0.337,0.135,110.168,88.562,23.376,1
2.9241479999999997,0.675,0.309,0.086,113.769,90.942,22.766,1
2.930721,0.64,0.291,0.049,111.206,93.933,21.728,1
2.938664,0.607,0.266,0.001,106.811,95.581,20.996,1
2.945759,0.589,0.247,-0.028,102.416,97.595,20.69,1
2.952788,0.551,0.248,-0.062,106.689,98.693,20.935,1
2.9596469999999995,0.614,0.251,-0.082,119.445,98.999,21.911,1
2.9683450000000002,0.603,0.243,-0.122,128.417,98.999,22.216,1
2.974945,0.621,0.231,-0.148,137.207,97.717,22.949,1
2.9816649999999996,0.635,0.216,-0.173,143.249,96.618,24.108,1
2.988491,0.655,0.211,-0.187,147.705,94.97,26.184,1
2.9952199999999998,0.681,0.203,-0.195,150.939,93.811,28.259,1
3.003125,0.695,0.204,-0.209,151.55,92.712,29.968,1
3.0102450000000003,0.712,0.204,-0.198,150.146,91.735,32.226,1
3.018975,0.732,0.211,-0.204,148.193,91.369,34.362,1
3.025723,0.75,0.218,-0.193,148.315,90.698,35.766,1
3.0326249999999995,0.778,0.217,-0.193,151.245,90.576,38.085,1
3.03963,0.756,0.229,-0.205,152.832,89.66,39.916,1
3.047586,0.728,0.253,-0.211,153.503,89.782,41.503,1
