timestamp_s,ax,ay,az,gx,gy,gz,label
0.0,0.702,0.686,0.3,5.737,0.366,1.098,1
0.008068999999999882,0.705,0.686,0.289,5.615,0.549,1.037,1
0.015883999999999787,0.706,0.69,0.292,5.004,0.488,0.732,1
0.023603000000000485,0.707,0.69,0.292,4.028,0.61,0.671,1
0.032737000000000016,0.711,0.688,0.296,3.356,0.671,0.366,1
0.03958800000000018,0.714,0.685,0.304,3.234,0.549,0.122,1
0.04746600000000001,0.713,0.684,0.311,3.54,0.671,0.183,1
0.055155000000000065,0.711,0.675,0.309,3.54,0.732,0.061,1
0.062269999999999825,0.712,0.671,0.307,3.662,0.976,0.244,1
0.07108899999999974,0.709,0.672,0.305,4.15,1.281,0.122,1
0.07935300000000023,0.711,0.672,0.299,4.272,1.403,-0.183,1
0.08614100000000047,0.71,0.68,0.298,4.516,1.037,0.061,1
0.09423199999999987,0.705,0.678,0.293,4.577,1.098,0.244,1
0.10292700000000021,0.706,0.679,0.295,4.821,1.22,-0.061,1
0.11091500000000032,0.705,0.677,0.298,5.187,1.037,-0.244,1
0.11768399999999968,0.708,0.671,0.302,4.882,0.915,-0.122,1
0.1267100000000001,0.707,0.669,0.307,3.784,1.281,-0.305,1
0.1336700000000004,0.704,0.671,0.316,3.173,1.342,-0.488,1
0.14264600000000005,0.702,0.669,0.32,2.563,1.403,-0.61,1
0.14960400000000007,0.693,0.664,0.332,2.441,1.77,-0.427,1
0.15749000000000013,0.695,0.661,0.332,2.258,1.892,-0.305,1
0.16500200000000032,0.699,0.659,0.343,2.38,2.258,-0.488,1
0.17342600000000008,0.704,0.659,0.347,2.563,2.807,-0.244,1
0.18108099999999983,0.703,0.657,0.339,1.77,3.234,-0.183,1
0.19020700000000001,0.706,0.659,0.333,1.403,3.662,-0.122,1
0.1974210000000003,0.709,0.664,0.324,1.464,3.906,0.0,1
0.2064250000000003,0.711,0.663,0.315,1.586,4.455,0.061,1
0.21379899999999985,0.709,0.664,0.307,2.319,4.272,0.183,1
0.22098700000000004,0.71,0.662,0.298,1.953,4.394,0.366,1
0.22837200000000024,0.708,0.662,0.29,2.014,4.211,0.366,1
0.2372209999999999,0.704,0.659,0.284,1.953,4.455,0.549,1
0.24440799999999996,0.705,0.657,0.284,1.159,4.272,0.366,1
0.2511929999999998,0.701,0.654,0.285,0.732,4.577,0.732,1
0.260116,0.697,0.657,0.278,0.671,4.577,0.793,1
0.2680800000000003,0.698,0.658,0.269,0.366,4.577,1.281,1
0.2751429999999999,0.696,0.661,0.263,-0.244,4.577,1.22,1
0.28352100000000036,0.694,0.664,0.257,-0.122,4.394,1.22,1
0.29099200000000014,0.7,0.671,0.244,0.244,4.394,1.22,1
0.29967699999999997,0.699,0.669,0.24,0.305,4.028,1.403,1
0.30684800000000045,0.706,0.668,0.234,0.0,3.784,1.464,1
0.31500400000000006,0.707,0.671,0.227,-0.183,3.479,1.281,1
0.3228650000000002,0.71,0.678,0.226,-0.183,3.173,1.22,1
0.3307669999999998,0.711,0.674,0.222,-0.061,2.868,1.037,1
0.3401959999999997,0.718,0.671,0.224,-0.061,2.38,0.915,1
0.3466230000000001,0.721,0.671,0.228,-0.183,2.014,0.854,1
0.3541610000000004,0.716,0.669,0.231,0.488,1.647,0.854,1
0.3620270000000003,0.71,0.66,0.235,0.244,1.403,0.915,1
0.36951800000000024,0.712,0.668,0.242,-0.488,1.342,1.037,1
0.37861600000000006,0.708,0.669,0.243,-0.976,1.281,1.22,1
0.38549599999999984,0.709,0.671,0.239,-1.464,1.159,1.281,1
0.39329199999999975,0.708,0.678,0.237,-1.403,0.976,1.159,1
0.4020330000000003,0.709,0.681,0.234,-0.671,0.732,1.159,1
0.4087329999999998,0.708,0.687,0.229,-0.793,0.366,1.281,1
0.4175260000000005,0.708,0.69,0.231,-1.037,0.0,1.098,1
0.4248529999999997,0.713,0.693,0.23,-0.854,-0.366,1.098,1
0.43270799999999987,0.712,0.7,0.235,-0.305,-0.732,0.854,1
0.4402999999999997,0.711,0.703,0.241,0.061,-0.854,0.61,1
0.4482980000000003,0.706,0.706,0.234,-0.366,-0.854,0.366,1
0.4558770000000001,0.704,0.713,0.235,-1.281,-1.159,0.244,1
0.46511299999999967,0.708,0.711,0.235,-0.976,-1.22,-0.183,1
0.4721000000000002,0.709,0.708,0.244,-0.549,-1.403,-0.366,1
0.4815680000000002,0.712,0.716,0.25,-0.915,-1.708,-0.732,1
0.4880550000000001,0.709,0.707,0.261,-0.671,-1.953,-0.854,1
0.49636299999999967,0.709,0.707,0.272,-0.305,-2.136,-1.342,1
0.5037260000000003,0.713,0.699,0.278,0.244,-1.892,-1.403,1
0.5115040000000004,0.709,0.689,0.286,0.488,-1.953,-1.281,1
0.519412,0.707,0.685,0.288,0.488,-1.77,-1.464,1
0.5282679999999997,0.704,0.681,0.287,-0.244,-1.403,-1.342,1
0.5372520000000005,0.697,0.682,0.281,-1.586,-1.098,-1.342,1
0.5446299999999997,0.697,0.685,0.274,-1.953,-0.915,-1.342,1
0.5524209999999998,0.701,0.682,0.27,-0.854,-1.281,-1.525,1
0.5612440000000003,0.701,0.679,0.262,0.0,-1.464,-1.464,1
0.5691379999999997,0.702,0.678,0.252,-0.061,-1.525,-1.831,1
0.5775449999999998,0.7,0.67,0.252,-0.488,-1.892,-1.77,1
0.5863860000000001,0.706,0.666,0.247,-0.915,-2.258,-1.708,1
0.5929880000000001,0.709,0.664,0.254,-0.488,-2.502,-1.708,1
0.6021660000000004,0.713,0.653,0.262,-0.732,-2.624,-1.586,1
0.6092089999999999,0.709,0.65,0.267,-0.549,-2.807,-1.403,1
0.6183730000000001,0.708,0.644,0.278,-0.366,-2.868,-1.281,1
0.6254309999999998,0.705,0.643,0.274,-0.183,-2.746,-1.098,1
0.6347810000000003,0.702,0.644,0.277,-0.183,-2.807,-0.732,1
0.6422540000000003,0.699,0.636,0.282,-0.061,-2.624,-0.427,1
0.6500159999999999,0.699,0.639,0.277,-0.061,-2.502,-0.366,1
0.6572440000000004,0.697,0.64,0.27,-0.183,-2.441,-0.244,1
0.6665489999999998,0.697,0.638,0.267,0.122,-2.746,-0.061,1
0.6736450000000005,0.703,0.636,0.261,-0.122,-2.807,0.305,1
0.6811389999999999,0.705,0.634,0.263,-0.122,-2.99,0.549,1
0.6896279999999999,0.71,0.633,0.27,0.854,-3.295,0.854,1
0.6969019999999997,0.712,0.63,0.27,1.586,-3.479,1.22,1
0.7040880000000005,0.705,0.624,0.278,1.464,-3.601,1.342,1
0.7132740000000002,0.704,0.618,0.289,1.159,-3.295,1.77,1
0.720974,0.702,0.619,0.29,0.854,-3.295,2.075,1
0.7282270000000004,0.7,0.619,0.291,0.854,-3.356,2.258,1
0.7355580000000002,0.701,0.624,0.29,0.671,-3.051,2.441,1
0.7429509999999997,0.697,0.629,0.291,0.915,-3.112,2.929,1
0.7504759999999999,0.694,0.635,0.294,0.732,-3.051,3.234,1
0.7580739999999997,0.697,0.642,0.296,0.61,-2.929,3.54,1
0.766654,0.697,0.644,0.288,0.61,-2.746,3.54,1
0.7738560000000003,0.698,0.647,0.29,0.732,-2.868,3.723,1
0.7828249999999999,0.699,0.648,0.29,0.61,-2.746,3.784,1
0.7896920000000005,0.705,0.648,0.287,0.915,-2.99,4.028,1
0.7972710000000003,0.706,0.649,0.286,0.915,-3.112,4.272,1
0.8059799999999999,0.704,0.646,0.285,1.525,-3.234,4.15,1
0.8130059999999997,0.705,0.646,0.283,1.892,-2.868,4.394,1
0.8205179999999999,0.703,0.651,0.284,1.892,-3.234,4.638,1
0.8303060000000002,0.704,0.65,0.288,2.258,-3.173,4.699,1
0.8371789999999999,0.705,0.658,0.293,2.441,-3.295,4.699,1
0.8439379999999996,0.707,0.656,0.287,1.892,-3.234,4.821,1
0.8527760000000004,0.705,0.659,0.289,1.953,-3.479,4.76,1
0.8597349999999997,0.704,0.661,0.296,2.441,-3.356,5.004,1
0.8690050000000005,0.701,0.66,0.299,2.502,-3.54,4.882,1
0.8758309999999998,0.701,0.655,0.302,3.112,-3.723,4.699,1
0.884366,0.696,0.642,0.317,3.662,-3.845,4.76,1
0.8908779999999998,0.695,0.637,0.328,4.15,-3.723,4.821,1
0.8992880000000003,0.702,0.627,0.335,4.577,-3.845,5.004,1
0.9078020000000002,0.709,0.62,0.342,5.004,-3.845,5.371,1
0.9158220000000004,0.713,0.618,0.34,5.31,-3.723,5.92,1
0.9229630000000002,0.721,0.619,0.343,5.615,-3.723,6.347,1
0.9319069999999998,0.714,0.631,0.341,6.896,-3.906,6.835,1
0.9391160000000003,0.71,0.637,0.343,8.544,-4.211,7.141,1
0.9465820000000003,0.708,0.635,0.347,10.131,-4.516,7.446,1
0.9553700000000003,0.698,0.642,0.351,11.23,-4.699,7.568,1
0.9621839999999997,0.695,0.646,0.358,12.145,-4.821,7.873,1
0.969659,0.684,0.649,0.373,12.512,-4.394,7.568,1
0.9783710000000001,0.679,0.646,0.381,13.061,-4.272,7.751,1
0.9854789999999998,0.672,0.643,0.396,13.793,-4.028,7.751,1
0.9934419999999999,0.662,0.635,0.402,15.319,-3.845,7.812,1
1.000992,0.658,0.625,0.414,16.723,-3.54,8.056,1
1.0083580000000003,0.651,0.618,0.429,18.249,-3.295,8.3,1
1.015924,0.646,0.607,0.445,19.592,-2.807,8.666,1
1.0252629999999998,0.634,0.603,0.47,21.789,-2.563,8.911,1
1.032356,0.625,0.594,0.497,24.475,-1.892,9.521,1
1.0399859999999999,0.62,0.583,0.513,26.855,-1.403,10.07,1
1.0480770000000001,0.61,0.568,0.531,28.076,-0.671,10.925,1
1.0557619999999996,0.604,0.553,0.562,29.541,0.427,12.023,1
1.0634230000000002,0.602,0.539,0.595,30.944,0.976,12.695,1
1.0708979999999997,0.591,0.52,0.632,32.104,1.953,13.977,1
1.0798480000000001,0.569,0.515,0.675,32.836,3.173,15.075,1
1.0884210000000003,0.553,0.508,0.734,34.545,5.126,16.418,1
1.0942439999999998,0.548,0.503,0.798,36.743,7.141,17.822,1
1.1019180000000004,0.549,0.492,0.865,38.33,9.399,19.409,1
1.1109749999999998,0.525,0.49,0.929,39.489,12.451,21.301,1
1.1188320000000003,0.508,0.502,1.016,41.32,15.93,22.949,1
1.126684,0.511,0.504,1.112,45.532,20.324,25.146,1
1.133781,0.568,0.487,1.205,50.964,24.414,26.977,1
1.141387,0.588,0.453,1.299,55.908,28.747,28.686,1
1.149769,0.59,0.424,1.41,61.706,34.179,31.127,1
1.1572449999999996,0.56,0.398,1.483,71.472,40.527,34.057,1
1.1654900000000001,0.536,0.36,1.554,77.575,46.325,36.376,1
1.1723619999999997,0.45,0.332,1.614,78.857,53.039,40.1,1
1.1797320000000004,0.466,0.31,1.647,80.2,60.119,42.907,1
1.1872340000000001,0.416,0.29,1.685,78.735,67.382,46.508,1
1.1960119999999996,0.352,0.266,1.699,74.401,75.256,49.743,1
1.2042340000000005,0.335,0.268,1.728,72.265,83.679,53.405,1
1.2113360000000002,0.298,0.282,1.73,71.838,91.796,56.823,1
1.2198820000000001,0.25,0.293,1.725,71.472,99.548,60.424,1
1.2267099999999997,0.204,0.324,1.705,72.204,108.581,64.453,1
1.235455,0.138,0.369,1.681,71.655,115.661,67.993,1
1.2418740000000001,0.09,0.446,1.656,70.922,122.802,71.472,1
1.2497430000000005,0.025,0.549,1.617,71.472,129.516,74.279,1
1.257822,-0.025,0.639,1.58,72.753,135.62,76.232,1
1.2647200000000005,-0.04,0.705,1.547,74.829,141.723,77.88,1
1.2712399999999997,-0.064,0.752,1.521,75.561,146.362,79.223,1
1.280844,-0.094,0.814,1.502,74.096,152.465,80.322,1
1.2873400000000004,-0.143,0.87,1.499,71.838,159.423,81.115,1
1.295535,-0.196,0.919,1.507,72.387,165.405,81.665,1
1.302422,-0.246,0.972,1.521,74.829,171.752,82.458,1
1.3101870000000009,-0.299,1.01,1.528,77.819,178.161,83.007,1
1.3190969999999993,-0.36,1.063,1.517,77.697,184.997,83.496,1
1.3261660000000006,-0.42,1.139,1.51,78.002,191.894,83.74,1
1.3338560000000008,-0.482,1.21,1.491,79.711,198.425,83.435,1
1.341577000000001,-0.534,1.276,1.453,81.787,204.956,82.885,1
1.3495530000000002,-0.576,1.339,1.421,84.655,211.242,82.275,1
1.3566160000000007,-0.625,1.413,1.388,86.791,218.811,81.42,1
1.3647220000000004,-0.663,1.487,1.349,86.303,224.853,80.2,1
1.3723109999999998,-0.697,1.567,1.311,85.815,230.895,78.491,1
1.3798300000000001,-0.738,1.645,1.27,85.266,237.243,76.171,1
1.3875609999999998,-0.774,1.709,1.227,82.58,243.225,73.791,1
1.3953030000000002,-0.816,1.769,1.174,76.538,249.694,70.8,1
1.404668000000001,-0.865,1.825,1.116,69.519,255.798,66.65,1
1.411556000000001,-0.919,1.892,1.034,65.734,262.268,61.889,1
1.419034,-0.958,1.937,0.946,66.65,267.15,57.067,1
1.4265989999999995,-0.999,1.976,0.849,67.26,272.155,52.368,1
1.4353390000000008,-1.042,2.03,0.73,65.612,276.428,46.936,1
1.4419079999999997,-1.073,2.085,0.612,66.711,279.602,41.442,1
1.4496540000000007,-1.079,2.115,0.476,69.396,282.348,35.705,1
1.4570469999999993,-1.085,2.145,0.324,71.838,284.484,29.785,1
1.4656629999999993,-1.084,2.171,0.166,74.768,285.644,24.047,1
1.4743340000000007,-1.057,2.181,-0.035,75.561,286.193,18.066,1
1.4821659999999994,-1.063,2.196,-0.204,73.913,285.522,11.108,1
1.4897290000000005,-1.074,2.205,-0.359,73.913,283.691,4.577,1
1.4971449999999997,-1.029,2.189,-0.545,77.575,280.822,-1.586,1
1.5058799999999994,-0.999,2.155,-0.718,80.017,276.855,-8.789,1
1.5135690000000004,-0.965,2.114,-0.89,78.613,271.728,-14.343,1
1.5227120000000003,-0.936,2.072,-1.0,76.354,265.441,-20.629,1
1.5304040000000008,-0.898,2.02,-1.115,77.087,259.277,-25.878,1
1.5375840000000007,-0.854,1.958,-1.243,76.782,252.99,-30.395,1
1.5463989999999992,-0.769,1.916,-1.407,74.035,244.628,-35.278,1
1.5537299999999998,-0.696,1.874,-1.537,70.922,235.839,-39.733,1
1.5613960000000002,-0.615,1.812,-1.653,66.711,227.172,-44.128,1
1.5695859999999993,-0.547,1.756,-1.736,61.706,216.003,-48.828,1
1.5781589999999994,-0.473,1.68,-1.814,58.715,206.42,-53.039,1
1.5867939999999994,-0.379,1.572,-1.904,55.48,196.105,-57.067,1
1.5936009999999996,-0.298,1.461,-1.949,49.743,183.349,-60.668,1
1.6030940000000005,-0.22,1.359,-1.957,45.654,172.607,-63.354,1
1.6095740000000003,-0.15,1.276,-1.953,46.264,161.804,-65.429,1
1.6179199999999998,-0.066,1.189,-1.945,52.246,148.742,-66.711,1
1.6271839999999997,-0.018,1.104,-1.937,54.87,138.427,-67.138,1
1.6339640000000006,0.042,1.002,-1.911,51.025,127.014,-67.382,1
1.6422869999999996,0.096,0.922,-1.865,45.776,117.736,-67.138,1
1.6506589999999992,0.153,0.833,-1.79,42.968,108.337,-66.589,1
1.6593970000000002,0.195,0.746,-1.718,42.236,97.839,-65.429,1
1.6665500000000009,0.232,0.653,-1.629,40.527,89.843,-63.842,1
1.6754300000000004,0.266,0.55,-1.52,36.865,81.665,-61.34,1
1.6825589999999995,0.286,0.487,-1.422,34.484,75.073,-58.532,1
1.6917120000000008,0.296,0.437,-1.327,34.423,69.152,-55.236,1
1.6984999999999992,0.311,0.384,-1.231,33.752,64.086,-52.001,1
1.7070290000000004,0.318,0.35,-1.152,29.357,58.898,-47.424,1
1.715992,0.325,0.312,-1.075,24.536,55.541,-44.189,1
1.7225269999999995,0.331,0.294,-0.999,21.484,51.696,-39.733,1
1.7309999999999999,0.347,0.281,-0.944,21.057,49.072,-36.56,1
1.7389960000000002,0.354,0.265,-0.917,19.714,46.264,-33.02,1
1.7456580000000006,0.373,0.247,-0.894,17.517,43.884,-29.724,1
1.7537509999999994,0.397,0.24,-0.88,15.38,41.076,-26.123,1
1.7622549999999997,0.416,0.257,-0.869,13.366,37.902,-22.277,1
1.7695930000000004,0.444,0.279,-0.875,10.925,34.912,-19.531,1
1.7783870000000004,0.457,0.297,-0.877,6.652,31.982,-17.089,1
1.787115,0.498,0.328,-0.877,-0.244,28.198,-14.526,1
1.7944209999999998,0.53,0.357,-0.864,-4.699,25.024,-12.512,1
1.8021200000000004,0.566,0.388,-0.855,-7.324,21.362,-10.864,1
1.81189,0.608,0.408,-0.851,-8.666,17.822,-9.521,1
1.8191179999999996,0.662,0.443,-0.836,-8.483,14.465,-8.361,1
1.8262020000000003,0.707,0.468,-0.822,-5.126,10.253,-6.958,1
1.8351159999999993,0.745,0.5,-0.801,-2.502,6.408,-5.798,1
1.8427860000000003,0.773,0.532,-0.758,-1.647,2.685,-4.882,1
1.8518539999999994,0.788,0.568,-0.721,-2.014,-0.244,-3.967,1
1.8594150000000003,0.803,0.609,-0.671,-1.647,-3.234,-3.601,1
1.867655000000001,0.806,0.634,-0.637,-1.708,-5.432,-3.662,1
1.875565,0.803,0.657,-0.586,-2.441,-7.934,-3.662,1
1.8845810000000007,0.79,0.666,-0.543,-3.417,-9.399,-4.089,1
1.8920910000000006,0.774,0.688,-0.492,-3.417,-10.864,-4.333,1
1.9010409999999993,0.759,0.698,-0.442,-1.953,-11.962,-4.882,1
1.9082810000000006,0.73,0.708,-0.392,-0.549,-12.634,-5.31,1
1.9161649999999995,0.701,0.7,-0.347,-1.037,-12.756,-5.554,1
1.9240860000000009,0.672,0.681,-0.317,-2.502,-12.451,-5.92,1
1.933415,0.655,0.659,-0.301,-3.601,-12.268,-5.981,1
1.9403290000000002,0.639,0.643,-0.277,-4.394,-11.84,-5.615,1
1.9489040000000006,0.631,0.627,-0.27,-4.821,-11.352,-5.31,1
1.9573020000000003,0.623,0.619,-0.255,-4.577,-11.047,-4.638,1
1.9644519999999996,0.619,0.619,-0.25,-4.394,-10.803,-4.028,1
1.9728290000000008,0.62,0.61,-0.239,-4.211,-10.498,-3.295,1
1.9818850000000001,0.628,0.599,-0.235,-5.31,-9.948,-2.441,1
1.990634,0.634,0.599,-0.234,-7.08,-9.643,-1.77,1
1.9974150000000002,0.638,0.594,-0.234,-9.521,-9.155,-1.281,1
2.0059810000000002,0.646,0.604,-0.231,-10.253,-8.911,-0.671,1
2.0150349999999992,0.654,0.603,-0.222,-10.559,-8.666,-0.061,1
2.0220789999999997,0.657,0.6,-0.218,-10.253,-8.117,0.488,1
2.0296570000000003,0.666,0.607,-0.209,-9.033,-7.812,1.159,1
2.038862999999999,0.67,0.616,-0.209,-7.934,-7.202,1.586,1
2.0455299999999994,0.677,0.63,-0.205,-7.263,-6.591,1.892,1
2.0536759999999994,0.684,0.641,-0.203,-7.019,-6.286,2.38,1
2.062087,0.697,0.65,-0.201,-6.591,-5.859,2.502,1
2.0698019999999993,0.704,0.655,-0.201,-6.469,-5.126,2.685,1
2.077332,0.707,0.665,-0.192,-6.652,-4.577,2.441,1
2.086265000000001,0.708,0.668,-0.189,-6.958,-3.906,2.38,1
2.094182,0.717,0.667,-0.189,-7.568,-3.112,2.441,1
2.101775,0.725,0.669,-0.185,-7.263,-2.563,2.502,1
2.111783000000001,0.727,0.678,-0.181,-7.141,-1.953,2.624,1
2.118969,0.723,0.702,-0.179,-7.385,-1.342,2.746,1
2.125883999999999,0.717,0.716,-0.177,-7.446,-0.366,2.563,1
2.1337770000000003,0.713,0.727,-0.177,-6.958,0.244,2.441,1
2.14194,0.702,0.732,-0.186,-6.164,0.793,2.014,1
2.1502599999999994,0.7,0.732,-0.195,-5.92,1.831,1.708,1
2.1584699999999994,0.699,0.727,-0.204,-6.164,2.197,1.098,1
2.1656809999999993,0.692,0.731,-0.211,-6.53,2.624,0.732,1
2.172528,0.689,0.727,-0.217,-5.798,2.929,0.61,1
2.180346,0.68,0.727,-0.221,-4.699,3.234,0.244,1
2.197552999999999,0.687,0.731,-0.225,-2.99,3.54,0.061,1
2.197585,0.685,0.735,-0.232,-2.502,3.784,-0.488,1
2.2025360000000003,0.679,0.733,-0.238,-3.417,4.028,-0.793,1
2.209682000000001,0.68,0.728,-0.247,-4.882,4.577,-1.159,1
2.217969,0.675,0.726,-0.254,-5.737,4.516,-1.342,1
2.2250759999999996,0.673,0.724,-0.259,-6.103,4.882,-1.525,1
2.232538,0.679,0.715,-0.263,-5.981,5.126,-2.136,1
2.239242000000001,0.682,0.706,-0.27,-5.92,5.126,-2.258,1
2.2470079999999992,0.681,0.692,-0.275,-6.347,5.31,-2.014,1
2.255307,0.682,0.682,-0.286,-6.591,5.554,-2.258,1
2.2630940000000006,0.676,0.681,-0.295,-6.408,5.737,-2.319,1
2.2695209999999992,0.679,0.678,-0.3,-5.249,5.615,-2.197,1
2.2778530000000003,0.688,0.667,-0.302,-4.272,5.737,-2.197,1
2.2843540000000004,0.688,0.66,-0.304,-3.723,5.676,-2.136,1
2.292427,0.691,0.655,-0.312,-3.906,5.737,-2.136,1
2.2993109999999994,0.692,0.646,-0.316,-4.516,5.798,-2.014,1
2.3070579999999996,0.692,0.634,-0.32,-5.126,5.981,-2.014,1
2.3141250000000007,0.685,0.631,-0.329,-4.943,5.92,-1.831,1
2.322179,0.693,0.626,-0.333,-4.333,5.798,-1.525,1
2.3304480000000005,0.689,0.617,-0.335,-4.577,5.859,-1.281,1
2.3369370000000007,0.688,0.616,-0.348,-4.699,5.615,-0.854,1
2.3452339999999996,0.692,0.625,-0.354,-4.455,5.249,-0.366,1
2.3521669999999997,0.683,0.631,-0.36,-3.234,5.126,-0.061,1
2.3605370000000008,0.684,0.629,-0.371,-2.38,4.577,-0.061,1
2.367507,0.68,0.63,-0.373,-2.014,4.15,0.244,1
2.375522,0.676,0.627,-0.374,-2.319,3.784,0.671,1
2.383222999999999,0.679,0.627,-0.377,-2.014,3.417,0.854,1
2.3915380000000006,0.673,0.636,-0.375,-0.915,2.868,1.159,1
2.398809,0.673,0.644,-0.383,-0.061,2.319,1.403,1
2.407475,0.67,0.654,-0.389,-0.549,2.136,1.77,1
2.414383000000001,0.671,0.662,-0.392,-1.037,1.77,1.647,1
2.422771000000001,0.676,0.663,-0.399,-1.586,1.159,1.892,1
2.431082,0.676,0.673,-0.401,-1.464,0.427,1.708,1
2.4388869999999994,0.675,0.673,-0.399,-0.854,-0.122,1.525,1
2.4467979999999994,0.679,0.667,-0.395,-0.488,-0.854,1.464,1
2.4548229999999993,0.678,0.664,-0.391,-0.244,-1.342,1.647,1
2.4633599999999998,0.673,0.676,-0.38,-0.366,-1.586,1.586,1
2.4709450000000004,0.68,0.675,-0.374,0.061,-1.892,1.464,1
2.4787540000000003,0.686,0.667,-0.374,-1.22,-2.197,1.525,1
2.486675999999999,0.678,0.669,-0.372,-2.014,-2.441,1.464,1
2.494701000000001,0.674,0.672,-0.357,-2.197,-2.929,1.77,1
2.5032080000000008,0.668,0.67,-0.349,-1.464,-3.234,1.831,1
2.510757,0.668,0.672,-0.346,-0.976,-3.54,1.586,1
2.519145,0.665,0.672,-0.334,0.061,-3.845,1.892,1
2.5267599999999995,0.664,0.672,-0.327,1.281,-4.211,1.831,1
2.5358529999999995,0.668,0.677,-0.32,1.892,-4.394,2.014,1
2.5446209999999994,0.666,0.687,-0.316,1.464,-4.516,1.708,1
2.552066999999999,0.663,0.69,-0.317,-0.427,-4.516,1.647,1
2.5590720000000005,0.669,0.693,-0.316,-2.929,-4.15,1.647,1
2.5678479999999997,0.672,0.704,-0.309,-5.004,-4.333,1.464,1
2.574769,0.679,0.704,-0.301,-5.187,-4.15,1.281,1
2.584035,0.688,0.712,-0.288,-4.211,-3.784,1.037,1
2.590821,0.693,0.709,-0.28,-3.356,-3.479,0.671,1
2.5992960000000007,0.707,0.705,-0.28,-3.112,-3.295,0.671,1
2.6079380000000008,0.707,0.709,-0.282,-1.953,-2.868,0.305,1
2.6146309999999993,0.708,0.715,-0.283,-0.305,-2.624,0.122,1
2.6228040000000004,0.71,0.729,-0.293,0.854,-2.746,-0.183,1
2.6311350000000004,0.7,0.738,-0.3,2.624,-2.746,-0.427,1
2.639354000000001,0.694,0.745,-0.315,3.54,-2.685,-1.098,1
2.6478230000000007,0.701,0.742,-0.329,3.234,-3.112,-1.892,1
2.656409,0.698,0.737,-0.335,1.037,-3.234,-2.502,1
2.6645000000000003,0.684,0.733,-0.339,-0.244,-3.723,-3.173,1
2.672677,0.674,0.718,-0.328,-0.305,-4.089,-3.845,1
2.680917000000001,0.685,0.686,-0.318,0.793,-4.272,-3.967,1
2.6895279999999993,0.679,0.682,-0.309,0.366,-4.272,-3.906,1
2.6977069999999994,0.675,0.681,-0.289,0.732,-4.394,-3.845,1
2.7064009999999996,0.672,0.684,-0.272,1.281,-4.272,-3.662,1
2.7132400000000008,0.67,0.68,-0.255,1.281,-3.784,-3.723,1
2.7216330000000006,0.666,0.673,-0.243,0.915,-3.112,-3.784,1
2.7298100000000005,0.674,0.671,-0.244,0.732,-2.563,-3.662,1
2.7380530000000007,0.674,0.663,-0.247,-0.732,-1.708,-3.845,1
2.7472969999999997,0.685,0.647,-0.258,-1.953,-1.281,-3.54,1
2.754728,0.692,0.647,-0.273,-2.258,-1.037,-3.356,1
2.763992,0.693,0.656,-0.273,-1.464,-0.854,-2.929,1
2.7717170000000007,0.697,0.675,-0.281,-0.793,-0.671,-2.807,1
2.779439,0.69,0.676,-0.287,-1.464,-0.488,-2.929,1
2.7877290000000006,0.7,0.673,-0.292,-3.051,-0.122,-3.051,1
2.795667,0.687,0.668,-0.291,-3.967,0.0,-3.112,1
2.804081,0.681,0.654,-0.291,-4.516,0.122,-3.173,1
2.8127809999999993,0.675,0.639,-0.289,-5.065,0.305,-3.234,1
2.8209269999999993,0.671,0.621,-0.28,-5.187,0.549,-2.99,1
2.8286859999999994,0.667,0.626,-0.268,-1.403,0.549,-2.563,1
2.836214,0.67,0.635,-0.284,0.793,0.854,-2.197,1
2.843585000000001,0.672,0.647,-0.288,0.366,0.732,-1.892,1
2.851711,0.671,0.651,-0.293,-0.854,1.22,-1.708,1
2.859795,0.679,0.653,-0.297,-1.647,0.793,-1.831,1
2.8677740000000007,0.681,0.647,-0.302,-2.136,0.976,-1.77,1
2.875527,0.687,0.634,-0.31,-3.234,1.098,-2.014,1
2.8838480000000004,0.689,0.62,-0.309,-4.577,0.671,-1.708,1
2.891940999999999,0.692,0.609,-0.308,-5.493,0.671,-1.464,1
2.900067,0.693,0.61,-0.304,-3.356,0.671,-0.549,1
2.908506000000001,0.698,0.627,-0.3,-0.732,0.915,-0.427,1
2.9162470000000003,0.702,0.641,-0.308,0.671,0.488,0.122,1
2.923781,0.706,0.637,-0.309,0.183,0.671,0.244,1
2.9309250000000002,0.708,0.643,-0.312,-0.366,0.793,0.366,1
2.9379240000000006,0.705,0.641,-0.315,-0.488,0.793,0.366,1
2.946429,0.707,0.631,-0.317,-0.244,0.854,0.549,1
2.9537180000000003,0.707,0.622,-0.324,0.061,0.854,0.61,1
2.9619999999999997,0.704,0.618,-0.331,1.159,0.427,1.098,1
2.970103,0.697,0.629,-0.33,2.563,0.183,1.281,1
2.977138,0.699,0.634,-0.328,2.868,0.122,1.281,1
2.9863459999999993,0.697,0.639,-0.331,2.502,-0.183,1.831,1
2.9943620000000006,0.699,0.642,-0.329,2.014,-0.061,1.708,1
3.0015979999999995,0.698,0.647,-0.327,1.464,0.061,1.892,1
3.010073,0.694,0.646,-0.319,0.915,-0.061,1.892,1
3.018370000000001,0.69,0.64,-0.324,0.0,-0.244,1.77,1
3.0251129999999993,0.693,0.637,-0.329,-0.61,0.061,2.197,1
3.033996,0.691,0.644,-0.324,0.122,0.061,2.197,1
3.042408,0.684,0.653,-0.332,1.892,-0.061,2.258,1
3.0497700000000005,0.681,0.666,-0.328,2.99,-0.488,2.563,1
3.057741,0.684,0.678,-0.334,2.807,-0.427,2.441,1
3.064952,0.689,0.681,-0.331,1.831,-0.671,2.502,1
3.0739490000000007,0.688,0.683,-0.33,0.671,-0.671,2.075,1
3.0818189999999994,0.695,0.683,-0.329,-0.732,-0.671,2.075,1
3.0893370000000004,0.678,0.69,-0.324,-0.549,-1.037,2.014,1
3.0990009999999995,0.688,0.683,-0.322,-0.732,-1.098,1.892,1
3.106085,0.687,0.672,-0.331,-1.586,-0.976,1.892,1
3.1150900000000004,0.69,0.674,-0.329,-1.647,-0.976,2.075,1
3.1220599999999994,0.682,0.681,-0.334,-0.976,-1.464,2.014,1
3.130788000000001,0.681,0.697,-0.329,-0.549,-1.586,2.075,1
3.139768,0.684,0.708,-0.329,0.122,-1.77,2.014,1
3.146573,0.694,0.714,-0.33,-0.061,-2.136,1.953,1
3.154444,0.686,0.72,-0.329,0.0,-1.892,1.342,1
