timestamp_s,ax,ay,az,gx,gy,gz,label
0.0,0.347,0.923,0.036,22.644,-23.437,39.916,1
0.007719,0.344,0.941,0.054,18.798,-21.484,37.719,1
0.014792000000000001,0.333,0.969,0.077,15.686,-19.47,36.315,1
0.022308,0.312,0.98,0.108,15.014,-17.272,35.583,1
0.030365999999999997,0.321,0.977,0.119,15.136,-15.014,35.705,1
0.037243,0.339,1.01,0.133,16.662,-13.549,35.766,1
0.045586999999999996,0.376,1.028,0.137,19.775,-12.023,35.095,1
0.053378999999999996,0.41,1.024,0.128,22.705,-10.742,34.118,1
0.06146,0.44,1.01,0.127,25.512,-9.46,33.264,1
0.06822,0.462,0.978,0.114,27.526,-7.324,33.02,1
0.07677,0.468,0.941,0.089,26.062,-5.371,33.142,1
0.084259,0.449,0.928,0.07,22.277,-3.845,33.508,1
0.091086,0.423,0.916,0.074,16.662,-1.708,34.057,1
0.099494,0.406,0.889,0.08,8.178,1.77,34.362,1
0.106629,0.386,0.896,0.067,-2.746,5.004,34.362,1
0.114393,0.416,0.931,0.081,-13.488,8.666,34.79,1
0.12492099999999999,0.41,1.051,0.108,-18.31,11.23,34.057,1
0.131161,0.513,1.187,0.157,-9.277,13.122,33.264,1
0.139834,0.548,1.248,0.175,6.713,13.305,31.982,1
0.14771600000000001,0.518,1.253,0.187,27.282,13.305,29.968,1
0.15508200000000003,0.452,1.197,0.172,40.893,13.732,28.686,1
0.16395500000000002,0.395,1.14,0.137,45.898,14.526,27.343,1
0.171387,0.339,1.112,0.087,43.457,16.113,26.245,1
0.179395,0.299,1.088,0.05,37.414,17.517,25.085,1
0.18649900000000003,0.252,1.091,0.021,32.104,19.287,23.376,1
0.194471,0.219,1.09,0.018,30.09,21.789,21.789,1
0.201112,0.191,1.067,0.024,30.395,24.902,20.263,1
0.210149,0.164,1.016,0.029,29.052,28.625,19.165,1
0.21696700000000002,0.106,0.972,0.04,24.719,32.226,19.226,1
0.22543000000000002,0.079,0.977,0.08,20.874,36.804,19.958,1
0.232995,0.125,1.024,0.083,15.747,40.832,20.69,1
0.24128300000000003,0.118,1.116,0.056,11.23,40.954,21.057,1
0.249047,0.129,1.155,0.031,15.502,39.001,20.751,1
0.25650799999999996,0.14,1.169,0.048,34.423,36.804,19.226,1
0.26398,0.141,1.144,0.025,54.016,35.949,17.089,1
0.273037,0.164,1.073,-0.027,65.734,34.79,15.38,1
0.280507,0.197,0.981,-0.076,69.335,33.996,14.831,1
0.289865,0.208,0.915,-0.155,67.077,32.531,15.136,1
0.29706699999999997,0.215,0.842,-0.18,64.453,29.418,16.54,1
0.30597799999999997,0.201,0.79,-0.206,66.711,26.55,19.287,1
0.312946,0.172,0.77,-0.194,71.533,23.925,20.935,1
0.322022,0.19,0.756,-0.173,83.129,21.972,23.01,1
0.32927599999999996,0.25,0.782,-0.16,95.458,20.141,25.451,1
0.337675,0.316,0.873,-0.125,106.506,18.737,26.855,1
0.34432199999999996,0.344,0.983,-0.084,119.75,18.249,27.038,1
0.353002,0.348,1.027,-0.066,129.394,17.272,27.038,1
0.36206099999999997,0.333,1.027,-0.053,132.324,16.662,26.855,1
0.36893,0.359,1.015,-0.043,122.436,17.028,26.489,1
0.378895,0.364,1.014,-0.046,105.163,18.188,26.55,1
0.385778,0.366,1.014,-0.062,83.068,19.714,26.55,1
0.39360799999999996,0.352,0.997,-0.094,52.551,21.423,26.855,1
0.402406,0.352,0.984,-0.123,26.977,22.766,27.77,1
0.41171199999999997,0.367,0.998,-0.165,1.464,24.475,28.808,1
0.418707,0.349,1.036,-0.209,-16.052,25.695,29.113,1
0.427544,0.303,1.087,-0.27,-32.165,26.0,28.869,1
0.436148,0.3,1.156,-0.309,-44.616,25.878,28.381,1
0.443284,0.332,1.251,-0.341,-45.166,25.207,27.099,1
0.45164499999999996,0.345,1.34,-0.409,-35.705,21.789,25.085,1
0.460009,0.346,1.444,-0.445,-19.042,18.92,22.338,1
0.467769,0.317,1.503,-0.527,-7.019,15.502,18.371,1
0.47490099999999996,0.272,1.585,-0.615,-8.728,12.939,15.624,1
0.483193,0.271,1.753,-0.73,-19.531,10.437,10.62,1
0.491714,0.283,1.991,-0.83,-31.677,7.812,3.051,1
0.49941800000000003,0.305,2.214,-0.922,-45.471,5.859,-4.76,1
0.507265,0.353,2.401,-1.033,-76.11,4.333,-15.563,1
0.515692,0.413,2.518,-1.098,-113.952,3.845,-25.451,1
0.524681,0.494,2.658,-1.158,-152.771,2.99,-35.888,1
0.533049,0.552,2.867,-1.269,-183.288,1.159,-46.142,1
0.5404019999999999,0.604,3.093,-1.396,-189.88,-6.042,-59.997,1
0.5491079999999999,0.687,3.336,-1.501,-167.48,-16.601,-74.401,1
0.557002,0.759,3.513,-1.552,-141.296,-29.052,-91.125,1
0.565352,0.775,3.644,-1.524,-131.958,-35.949,-105.041,1
0.573916,0.774,3.66,-1.512,-151.306,-43.457,-121.643,1
0.582321,0.809,3.327,-1.324,-197.57,-46.813,-134.46,1
0.589895,0.722,3.297,-1.161,-253.967,-45.41,-145.446,1
0.598635,0.73,3.267,-1.094,-302.795,-52.795,-156.372,1
0.605577,0.652,3.108,-0.871,-306.457,-61.767,-165.588,1
0.6145079999999999,0.662,2.952,-0.607,-277.832,-73.486,-173.156,1
0.62152,0.695,2.703,-0.294,-207.031,-92.163,-181.762,1
0.629737,0.716,2.485,0.089,-120.666,-101.013,-187.866,1
0.637589,0.694,2.449,0.209,-34.79,-109.68,-194.519,1
0.644502,0.525,2.249,0.423,30.334,-111.694,-201.965,1
0.65405,0.533,1.836,0.471,49.926,-108.703,-209.533,1
0.66072,0.509,1.237,0.49,10.498,-98.449,-211.425,1
0.66909,0.493,1.178,0.461,-50.354,-90.026,-210.937,1
0.6781,0.368,0.982,0.428,-96.618,-83.618,-208.74,1
0.6848259999999999,0.326,1.086,0.417,-101.562,-83.801,-206.298,1
0.692303,0.263,1.166,0.461,-72.082,-85.571,-205.017,1
0.700463,0.157,1.24,0.419,-34.423,-87.829,-205.383,1
0.709175,-0.007,1.277,0.409,-5.187,-90.148,-207.214,1
0.716673,-0.117,1.296,0.37,14.648,-90.759,-209.899,1
0.724882,-0.226,1.309,0.362,20.996,-91.613,-212.89,1
0.731931,-0.311,1.295,0.353,25.329,-91.796,-215.393,1
0.740214,-0.373,1.299,0.374,33.02,-93.444,-218.322,1
0.747887,-0.475,1.325,0.391,46.325,-93.811,-221.069,1
0.756597,-0.555,1.327,0.432,69.091,-95.703,-224.609,1
0.765369,-0.59,1.267,0.454,106.201,-95.458,-229.37,1
0.772016,-0.601,1.166,0.462,132.934,-94.482,-233.154,1
0.780675,-0.576,0.968,0.505,149.78,-91.003,-235.778,1
0.7881199999999999,-0.49,0.8,0.533,145.324,-84.472,-236.633,1
0.796186,-0.454,0.676,0.563,128.173,-75.988,-237.06,1
0.804754,-0.375,0.578,0.578,100.097,-66.711,-235.168,1
0.812121,-0.311,0.554,0.601,79.956,-59.387,-233.581,1
0.8214359999999999,-0.248,0.535,0.619,70.861,-53.222,-231.14,1
0.828348,-0.199,0.519,0.622,74.584,-47.241,-228.454,1
0.836727,-0.207,0.499,0.614,90.087,-43.09,-226.684,1
0.845142,-0.092,0.405,0.603,107.91,-40.527,-224.243,1
0.8543419999999999,-0.027,0.306,0.632,110.534,-33.691,-220.825,1
0.86195,-0.025,0.209,0.649,96.984,-27.16,-216.247,1
0.869416,0.021,0.01,0.584,67.321,-18.676,-210.205,1
0.8785419999999999,0.061,0.087,0.7,40.344,-10.192,-204.284,1
0.885526,-0.181,0.275,0.561,38.085,4.028,-197.998,1
0.893346,-0.171,0.102,0.48,22.705,2.746,-198.669,1
0.900485,-0.104,0.097,0.68,37.231,14.038,-190.551,1
0.909616,0.141,0.121,0.561,33.508,21.606,-187.622,1
0.9165059999999999,0.021,0.137,0.531,6.53,38.818,-184.509,1
0.925684,0.132,0.178,0.376,-30.822,43.029,-183.105,1
0.932993,0.119,0.216,0.421,-37.475,52.978,-180.114,1
0.9422699999999999,0.28,0.229,0.302,-37.109,50.842,-177.612,1
0.950475,0.299,0.248,0.337,-26.245,52.307,-173.889,1
0.957908,0.375,0.32,0.301,-7.324,45.288,-169.616,1
0.9669369999999999,0.31,0.397,0.316,24.475,43.395,-166.625,1
0.974525,0.293,0.462,0.298,58.471,35.217,-163.94,1
0.982185,0.222,0.541,0.28,91.674,33.264,-163.085,1
0.991003,0.22,0.562,0.246,117.919,30.517,-163.513,1
0.997687,0.177,0.53,0.216,132.446,31.677,-166.015,1
1.005551,0.215,0.452,0.189,116.333,36.682,-168.334,1
1.014386,0.206,0.392,0.185,81.115,43.64,-171.813,1
1.021333,0.212,0.357,0.205,53.039,50.17,-174.621,1
1.028364,0.284,0.361,0.234,50.292,56.03,-176.025,1
1.0360719999999999,0.311,0.365,0.227,65.734,57.8,-176.696,1
1.044442,0.27,0.332,0.243,84.716,59.814,-176.635,1
1.051543,0.245,0.244,0.231,90.881,62.927,-175.781,1
1.058667,0.234,0.12,0.225,79.345,67.443,-174.011,1
1.066733,0.21,0.003,0.258,54.626,73.974,-171.142,1
1.0748739999999999,0.215,-0.078,0.263,34.79,82.946,-170.166,1
1.082925,0.109,-0.167,0.339,23.132,86.608,-167.053,1
1.0911279999999999,-0.008,-0.257,0.416,26.367,91.491,-163.513,1
1.097285,-0.072,-0.365,0.463,37.353,96.252,-160.095,1
1.105202,-0.085,-0.525,0.503,44.616,100.219,-157.653,1
1.112217,-0.147,-0.722,0.505,48.583,109.252,-152.16,1
1.120544,-0.235,-0.891,0.511,43.151,115.295,-147.644,1
1.12772,-0.403,-1.039,0.509,37.475,124.877,-141.357,1
1.135471,-0.589,-1.196,0.494,26.55,132.69,-133.239,1
1.143551,-0.706,-1.369,0.47,21.484,140.319,-126.159,1
1.151226,-0.833,-1.509,0.42,27.832,147.888,-115.966,1
1.157899,-1.026,-1.699,0.375,28.015,156.311,-104.919,1
1.166689,-1.16,-1.895,0.309,28.93,163.085,-92.102,1
1.173475,-1.267,-2.105,0.264,34.179,169.799,-77.026,1
1.180543,-1.398,-2.31,0.218,44.128,174.804,-64.208,1
1.187568,-1.542,-2.466,0.188,43.457,182.006,-44.799,1
1.194679,-1.721,-2.612,0.146,42.358,189.697,-23.62,1
1.202634,-1.873,-2.733,0.078,51.33,195.495,-1.281,1
1.211273,-2.085,-2.85,0.019,58.593,201.416,23.986,1
1.2176069999999999,-2.312,-2.973,-0.073,55.786,207.763,46.447,1
1.225873,-2.57,-3.047,-0.171,39.855,215.698,79.833,1
1.234312,-2.853,-3.075,-0.243,31.555,222.9,109.863,1
1.240594,-3.192,-3.101,-0.303,25.085,229.064,140.869,1
1.248394,-3.563,-3.125,-0.345,25.329,235.412,173.706,1
1.25684,-3.898,-3.123,-0.362,37.17,241.149,207.092,1
1.265067,-4.276,-3.129,-0.437,32.714,247.497,241.516,1
1.2715239999999999,-4.693,-3.131,-0.486,30.09,252.075,278.137,1
1.279989,-5.145,-3.056,-0.569,25.634,257.995,315.063,1
1.287208,-5.643,-2.905,-0.63,16.235,262.451,352.6,1
1.295606,-6.184,-2.701,-0.727,4.028,269.104,395.446,1
1.301977,-6.765,-2.469,-0.801,-3.356,272.338,425.17,1
1.311777,-7.305,-2.318,-0.873,-16.357,278.93,468.322,1
1.318354,-7.778,-2.193,-0.948,-10.803,281.127,506.957,1
1.326858,-8.403,-2.08,-1.014,26.428,279.296,547.546,1
1.336043,-9.086,-2.039,-1.115,75.195,270.202,599.365,1
1.343254,-10.038,-1.977,-1.234,110.107,257.263,657.104,1
1.352184,-10.921,-1.897,-1.344,144.836,240.417,710.693,1
1.358805,-12.207,-1.761,-1.451,184.997,216.247,767.456,1
1.367142,-13.422,-1.626,-1.541,250.915,183.166,827.941,1
1.376295,-14.635,-1.45,-1.646,342.163,133.361,891.784,1
1.384234,-15.999,-1.292,-1.766,444.396,55.175,967.102,1
1.392659,-15.999,-1.05,-1.843,517.7,-43.579,1040.588,1
1.399606,-15.999,-0.602,-1.837,570.495,-143.859,1096.923,1
1.407894,-15.999,-0.108,-1.629,633.178,-260.803,1143.188,1
1.416199,-15.999,0.371,-1.409,706.726,-412.536,1179.443,1
1.422943,-15.999,0.92,-1.1,757.568,-555.48,1188.598,1
1.430955,-15.999,1.47,-0.61,789.123,-699.34,1176.513,1
1.438032,-15.999,2.0,0.064,804.809,-840.026,1143.371,1
1.447381,-15.999,2.521,0.9,830.871,-972.351,1090.881,1
1.4560359999999999,-15.999,2.936,1.851,878.967,-1125.0,1002.258,1
1.463576,-15.999,3.084,2.653,930.725,-1245.544,898.071,1
1.471622,-15.999,2.892,3.358,919.921,-1367.919,763.244,1
1.479592,-15.999,3.163,3.977,916.87,-1441.345,639.099,1
1.488026,-15.999,3.231,4.452,911.498,-1501.342,477.478,1
1.497445,-15.999,3.707,4.937,894.897,-1516.418,303.1,1
1.503662,-15.999,3.981,5.022,917.602,-1503.051,150.085,1
1.513598,-15.999,4.065,4.754,942.748,-1481.994,-10.192,1
1.52041,-15.999,4.0,4.839,983.276,-1438.354,-170.654,1
1.529188,-15.999,3.662,4.553,1128.051,-1362.609,-364.074,1
1.537277,-15.999,2.665,4.015,1241.516,-1257.446,-533.02,1
1.544609,-15.999,1.303,3.259,1158.02,-1104.614,-676.757,1
1.553099,-15.999,0.746,3.004,916.137,-926.818,-787.048,1
1.560556,-15.999,0.377,2.625,714.782,-761.413,-844.055,1
1.567705,-15.999,0.333,2.635,601.318,-646.24,-868.102,1
1.57629,-15.999,0.118,2.536,533.447,-533.996,-877.441,1
1.584874,-15.999,-0.25,2.506,486.145,-444.763,-875.61,1
1.593099,-15.999,-0.799,2.526,464.355,-337.28,-857.91,1
1.600327,-15.009,-1.313,2.442,451.049,-256.469,-839.294,1
1.608254,-12.734,-2.082,2.273,389.648,-174.438,-811.218,1
1.616176,-11.325,-2.493,2.037,300.231,-99.609,-770.69,1
1.62497,-10.342,-2.616,1.994,270.629,-49.255,-730.651,1
1.632017,-9.386,-2.78,1.796,287.902,-11.474,-688.476,1
1.641641,-8.385,-2.999,1.674,316.345,32.897,-632.934,1
1.64878,-7.517,-3.27,1.406,307.373,67.749,-580.81,1
1.65759,-6.713,-3.402,1.27,255.187,108.215,-518.981,1
1.666615,-5.805,-3.408,1.074,218.444,136.779,-457.397,1
1.67584,-5.189,-3.341,0.94,208.679,156.555,-406.188,1
1.682809,-4.436,-3.28,0.688,198.852,172.119,-350.28,1
1.691125,-3.94,-3.09,0.558,193.176,182.739,-304.931,1
1.699968,-3.585,-2.897,0.417,196.716,191.284,-255.126,1
1.706509,-3.305,-2.701,0.303,192.26,197.326,-215.209,1
1.714751,-3.111,-2.414,0.169,177.734,201.843,-173.156,1
1.72294,-2.995,-2.187,0.116,162.475,205.017,-141.235,1
1.731872,-2.839,-1.996,0.036,129.943,209.045,-108.459,1
1.740646,-2.614,-1.829,-0.03,89.294,212.89,-84.106,1
1.747972,-2.397,-1.687,-0.089,46.508,214.965,-59.448,1
1.7567599999999999,-2.173,-1.54,-0.126,23.62,213.562,-41.442,1
1.766302,-1.943,-1.421,-0.154,9.643,210.51,-22.827,1
1.775322,-1.76,-1.326,-0.165,6.958,205.261,-6.042,1
1.782587,-1.57,-1.218,-0.182,15.38,198.364,9.521,1
1.793119,-1.454,-1.115,-0.173,25.634,191.345,23.437,1
1.799596,-1.322,-1.007,-0.156,28.93,186.218,34.606,1
1.806697,-1.228,-0.893,-0.131,34.301,179.87,46.203,1
1.81562,-1.137,-0.778,-0.113,42.053,173.4,55.114,1
1.82408,-1.06,-0.677,-0.098,48.889,167.236,63.11,1
1.832398,-0.934,-0.575,-0.098,53.955,160.095,72.326,1
1.839321,-0.81,-0.495,-0.09,56.091,153.869,79.101,1
1.847957,-0.656,-0.408,-0.074,56.335,146.423,85.876,1
1.85585,-0.515,-0.312,-0.021,59.631,139.831,91.43,1
1.86265,-0.442,-0.232,0.02,68.359,133.544,95.886,1
1.869834,-0.355,-0.142,0.058,80.993,127.014,99.426,1
1.878809,-0.29,-0.061,0.095,91.552,121.215,102.355,1
1.885569,-0.206,0.0,0.139,94.97,116.516,104.675,1
1.893677,-0.119,0.053,0.178,93.383,111.938,106.201,1
1.899799,-0.04,0.127,0.237,91.918,108.581,106.811,1
1.908573,0.026,0.199,0.278,94.421,104.614,107.299,1
1.9159329999999999,0.054,0.28,0.324,102.905,100.83,107.238,1
1.924522,0.069,0.335,0.357,109.924,97.229,106.811,1
1.931808,0.099,0.369,0.38,108.032,93.933,105.529,1
1.938978,0.27,0.395,0.41,99.06,92.407,104.37,1
1.948085,0.337,0.409,0.396,89.416,90.759,103.088,1
1.956258,0.44,0.445,0.463,85.327,88.5,101.745,1
1.964132,0.53,0.503,0.457,92.895,87.463,100.402,1
1.970848,0.538,0.563,0.472,103.759,83.74,98.327,1
1.978924,0.6,0.584,0.47,114.257,81.542,97.351,1
1.986265,0.642,0.628,0.482,120.178,78.857,96.313,1
1.992284,0.655,0.678,0.49,126.037,76.721,95.214,1
2.0004910000000002,0.64,0.718,0.507,132.507,73.852,93.383,1
2.007871,0.671,0.74,0.534,141.113,71.472,92.285,1
2.016559,0.691,0.735,0.564,145.629,69.335,91.247,1
2.023625,0.702,0.701,0.609,138.244,69.58,90.515,1
2.0323580000000003,0.711,0.706,0.641,133.605,70.007,89.66,1
2.039323,0.689,0.705,0.723,123.779,72.631,88.684,1
2.048242,0.698,0.728,0.74,121.826,77.087,87.707,1
2.0557960000000004,0.684,0.757,0.76,120.239,80.017,85.815,1
2.063553,0.69,0.797,0.773,125.732,83.801,84.289,1
2.0708040000000003,0.674,0.85,0.819,136.352,86.364,82.885,1
2.0788320000000002,0.725,0.892,0.851,154.663,90.82,81.176,1
2.085255,0.724,0.932,0.868,167.785,94.055,79.711,1
2.0935710000000003,0.75,0.944,0.895,168.579,99.304,79.345,1
2.1009070000000003,0.794,1.019,0.908,164.794,106.079,78.674,1
2.108175,0.818,1.085,0.88,165.588,111.389,77.27,1
2.117281,0.862,1.141,0.842,168.273,116.21,76.293,1
2.1238050000000004,0.896,1.182,0.795,167.358,120.849,75.134,1
2.1307530000000003,0.896,1.226,0.736,162.536,125.732,73.974,1
2.1393850000000003,0.871,1.271,0.666,159.667,129.272,72.448,1
2.14697,0.836,1.299,0.602,161.743,132.385,70.495,1
2.153699,0.805,1.312,0.562,169.555,134.155,68.542,1
2.162377,0.782,1.312,0.556,181.457,136.657,67.016,1
2.1706790000000002,0.764,1.315,0.522,186.584,139.709,66.284,1
2.178118,0.71,1.337,0.462,184.02,144.409,65.368,1
2.1866760000000003,0.67,1.375,0.408,174.438,147.705,64.392,1
2.1941390000000003,0.644,1.436,0.345,168.579,150.512,63.049,1
2.2027,0.604,1.48,0.27,165.649,152.526,61.462,1
2.2103010000000003,0.57,1.49,0.19,164.184,153.93,60.18,1
2.2167830000000004,0.534,1.512,0.122,164.855,154.479,58.532,1
2.225652,0.51,1.53,0.083,169.677,155.029,56.701,1
2.2345780000000004,0.445,1.556,0.036,172.546,156.188,54.016,1
2.24176,0.374,1.594,-0.014,172.485,157.104,51.574,1
2.250836,0.303,1.615,-0.057,173.828,156.799,48.645,1
2.258039,0.246,1.624,-0.095,178.283,156.921,46.386,1
2.266786,0.179,1.624,-0.168,184.326,155.334,43.395,1
2.273998,0.138,1.613,-0.221,194.213,153.991,41.687,1
2.2826210000000002,0.12,1.604,-0.303,206.054,149.78,40.222,1
2.2912890000000004,0.044,1.581,-0.299,214.538,147.705,38.208,1
2.3001600000000004,-0.003,1.539,-0.338,210.327,146.606,36.987,1
2.3070150000000003,-0.064,1.477,-0.327,191.04,146.972,35.034,1
2.3171660000000003,-0.147,1.429,-0.33,175.476,147.399,32.653,1
2.3249120000000003,-0.291,1.35,-0.308,162.963,147.949,29.968,1
2.3336620000000003,-0.262,1.223,-0.32,152.771,147.766,27.404,1
2.342413,-0.236,1.136,-0.287,150.451,149.963,25.939,1
2.351217,-0.166,1.003,-0.348,147.827,150.024,25.085,1
2.358867,-0.183,0.927,-0.301,143.31,150.39,25.512,1
2.367916,-0.216,0.926,-0.282,155.7,148.193,26.306,1
2.3755230000000003,-0.205,0.791,-0.292,167.114,146.301,27.282,1
2.3828620000000003,-0.231,0.596,-0.306,160.522,146.301,29.235,1
2.392545,-0.267,0.477,-0.299,144.714,146.423,31.738,1
2.398995,-0.292,0.396,-0.282,130.92,147.338,34.851,1
2.408995,-0.268,0.335,-0.251,126.159,147.033,37.719,1
2.416253,-0.16,0.29,-0.232,126.159,148.071,43.579,1
2.425498,-0.103,0.293,-0.263,128.784,146.667,49.682,1
2.432789,-0.055,0.284,-0.227,134.887,145.446,55.603,1
2.4421340000000002,0.05,0.291,-0.232,149.536,144.531,64.025,1
2.4490730000000003,0.163,0.295,-0.215,163.696,143.493,72.143,1
2.4566860000000004,0.234,0.297,-0.227,173.034,144.348,80.627,1
2.464383,0.27,0.3,-0.246,167.419,145.141,90.576,1
2.4729530000000004,0.265,0.31,-0.26,145.996,148.193,98.51,1
2.481396,0.245,0.317,-0.296,105.834,152.526,105.957,1
2.4886820000000003,0.241,0.35,-0.33,51.635,158.752,112.06,1
2.49744,0.244,0.442,-0.37,-8.361,164.916,117.614,1
2.5042020000000003,0.205,0.604,-0.412,-35.888,168.029,120.422,1
2.5132480000000004,0.171,0.739,-0.445,-32.043,167.358,123.107,1
2.523727,0.132,0.864,-0.496,-1.708,162.841,125.61,1
2.531045,0.102,0.961,-0.541,36.743,156.677,128.479,1
2.5377370000000004,0.074,1.048,-0.581,64.88,150.573,131.164,1
2.546958,0.047,1.134,-0.621,78.918,145.874,133.239,1
2.5555820000000002,0.066,1.259,-0.657,79.895,140.808,134.521,1
2.563882,-0.072,1.375,-0.715,65.124,137.817,134.887,1
2.5730560000000002,-0.095,1.529,-0.77,47.485,133.178,132.568,1
2.5803800000000003,-0.14,1.659,-0.798,36.926,129.455,129.638,1
2.589217,-0.147,1.761,-0.836,32.348,122.863,124.694,1
2.596509,-0.149,1.835,-0.845,37.597,117.065,120.178,1
2.604371,-0.108,1.888,-0.866,50.72,108.093,114.135,1
2.6133170000000003,-0.105,1.937,-0.865,64.758,101.562,109.619,1
2.621715,-0.054,1.974,-0.875,77.636,93.078,103.576,1
2.6309660000000004,0.02,2.007,-0.85,84.411,87.585,97.106,1
2.638328,-0.015,2.015,-0.84,85.327,82.58,92.041,1
2.647114,0.03,2.056,-0.842,70.922,79.895,85.327,1
2.6533480000000003,0.084,2.101,-0.822,58.593,77.453,78.43,1
2.661398,-0.044,2.116,-0.82,47.058,75.988,72.143,1
2.66984,0.029,2.134,-0.814,42.175,73.181,65.429,1
2.678205,0.045,2.127,-0.785,48.4,70.068,57.312,1
2.6871680000000002,0.07,2.132,-0.784,53.283,66.772,51.147,1
2.6956420000000003,0.088,2.136,-0.741,59.387,63.842,43.823,1
2.70379,0.1,2.125,-0.731,59.387,61.706,37.231,1
2.711913,0.075,2.12,-0.691,56.823,60.119,29.541,1
2.718681,0.067,2.102,-0.678,51.086,59.631,22.827,1
2.72759,0.048,2.078,-0.661,41.625,58.776,16.113,1
2.734373,0.049,2.059,-0.633,35.278,58.776,9.521,1
2.742261,0.039,2.032,-0.616,32.653,57.556,2.746,1
2.7497900000000004,0.033,1.993,-0.597,32.958,56.64,-3.173,1
2.75828,0.033,1.954,-0.585,33.996,55.175,-9.643,1
2.7654660000000004,0.02,1.936,-0.579,33.264,54.26,-14.892,1
2.773231,0.012,1.929,-0.576,32.287,52.978,-20.019,1
2.780431,0.0,1.914,-0.561,33.325,51.818,-25.39,1
2.7884670000000003,-0.003,1.894,-0.547,38.391,50.048,-30.456,1
2.796841,-0.005,1.859,-0.516,46.386,48.156,-34.912,1
2.8058150000000004,-0.015,1.83,-0.484,55.053,47.546,-40.283,1
2.812809,-0.016,1.789,-0.465,57.922,47.546,-44.799,1
2.8215890000000003,-0.01,1.744,-0.423,54.382,49.743,-49.255,1
2.8294750000000004,-0.013,1.714,-0.425,44.799,52.307,-52.978,1
2.8377380000000003,-0.025,1.695,-0.406,29.479,55.725,-57.556,1
2.84681,-0.037,1.687,-0.404,15.624,58.715,-61.706,1
2.8544500000000004,-0.056,1.681,-0.396,2.441,61.95,-66.467,1
2.8630400000000003,-0.063,1.689,-0.405,-5.249,64.147,-70.495,1
2.870359,-0.084,1.695,-0.412,-12.207,65.551,-74.951,1
2.878286,-0.079,1.69,-0.422,-16.052,67.26,-79.833,1
2.887337,-0.081,1.693,-0.441,-16.174,67.26,-84.35,1
2.895239,-0.082,1.685,-0.453,-11.962,66.65,-88.989,1
2.9041360000000003,-0.09,1.678,-0.461,-7.873,65.307,-93.383,1
2.9123580000000002,-0.094,1.665,-0.465,-4.821,64.697,-97.351,1
2.9207140000000003,-0.085,1.656,-0.471,-2.563,63.476,-101.806,1
2.929847,-0.077,1.633,-0.474,-2.136,62.438,-106.262,1
2.9359200000000003,-0.056,1.61,-0.468,-1.403,61.34,-109.436,1
2.9448830000000004,-0.022,1.569,-0.467,-1.037,60.424,-112.426,1
2.954133,0.02,1.534,-0.457,-2.258,59.265,-115.722,1
2.962078,0.05,1.507,-0.45,-5.004,58.715,-118.774,1
2.9707920000000003,0.057,1.493,-0.436,-10.681,58.288,-121.52,1
2.980055,0.061,1.48,-0.428,-15.869,57.861,-124.389,1
2.989004,0.049,1.476,-0.41,-16.601,57.25,-127.319,1
2.9961420000000003,0.038,1.464,-0.409,-14.526,56.579,-130.432,1
3.0044720000000003,0.047,1.436,-0.398,-12.145,55.969,-132.934,1
3.013846,0.067,1.4,-0.405,-10.864,54.931,-134.765,1
3.021033,0.09,1.373,-0.406,-10.192,54.26,-136.84,1
3.0301690000000003,0.081,1.363,-0.426,-11.962,53.222,-138.793,1
3.0364150000000003,0.071,1.359,-0.428,-13.366,52.307,-140.93,1
3.0449430000000004,0.064,1.342,-0.43,-11.901,50.659,-143.493,1
3.053675,0.053,1.319,-0.424,-8.972,49.377,-145.385,1
3.060912,0.044,1.298,-0.426,-5.126,47.912,-147.399,1
3.0684430000000003,0.036,1.261,-0.438,-5.249,47.058,-149.108,1
3.077067,0.039,1.203,-0.451,-9.46,46.569,-150.695,1
3.084036,0.062,1.148,-0.458,-17.517,45.959,-151.489,1
3.0930020000000003,0.079,1.105,-0.467,-27.16,45.959,-152.038,1
3.101208,0.08,1.086,-0.479,-34.24,44.372,-152.465,1
3.106989,0.061,1.072,-0.48,-35.766,42.846,-152.648,1
