timestamp_s,ax,ay,az,gx,gy,gz,label
0.0,0.441,0.997,-0.467,71.105,104.431,-1.342,1
0.008897999999999406,0.458,0.992,-0.445,72.021,104.187,-3.356,1
0.016599999999999504,0.464,0.973,-0.438,78.186,103.576,-5.065,1
0.023295999999999317,0.513,0.966,-0.418,86.425,103.515,-6.408,1
0.03190999999999988,0.488,0.948,-0.423,91.613,102.539,-7.629,1
0.038888000000000034,0.56,0.917,-0.423,95.031,103.637,-8.789,1
0.046948999999999685,0.613,0.906,-0.436,95.703,104.553,-9.399,1
0.055297999999999625,0.669,0.919,-0.48,91.613,105.712,-10.131,1
0.06325299999999956,0.599,0.924,-0.508,83.557,105.957,-10.986,1
0.07086099999999984,0.613,0.932,-0.516,75.256,106.933,-11.901,1
0.0785139999999993,0.644,0.952,-0.501,69.396,106.018,-13.061,1
0.08646900000000013,0.637,0.968,-0.514,69.58,105.468,-13.977,1
0.09440699999999946,0.621,0.974,-0.528,70.739,103.942,-15.38,1
0.10216599999999953,0.604,0.954,-0.554,67.81,103.027,-16.845,1
0.11150699999999958,0.63,0.963,-0.562,65.979,101.989,-18.005,1
0.11976999999999993,0.579,0.953,-0.595,68.359,100.341,-19.47,1
0.12748899999999974,0.592,0.951,-0.622,68.664,99.365,-21.057,1
0.1350479999999994,0.552,0.954,-0.634,69.03,97.839,-22.644,1
0.14258300000000013,0.531,0.95,-0.645,70.8,96.923,-24.536,1
0.1526039999999993,0.512,0.945,-0.644,75.988,95.764,-26.306,1
0.16166999999999998,0.46,0.916,-0.634,81.481,94.482,-28.381,1
0.16804599999999947,0.443,0.865,-0.603,82.092,94.177,-29.724,1
0.1771539999999998,0.407,0.827,-0.575,82.031,94.848,-31.249,1
0.18526499999999935,0.416,0.79,-0.554,79.895,95.703,-31.555,1
0.1924760000000001,0.354,0.746,-0.545,72.387,96.496,-32.287,1
0.20225500000000007,0.369,0.715,-0.522,61.767,97.778,-32.592,1
0.21019599999999983,0.372,0.691,-0.511,53.283,99.06,-32.897,1
0.2186079999999997,0.314,0.686,-0.502,52.917,98.876,-33.264,1
0.2255849999999997,0.371,0.635,-0.514,58.959,99.548,-32.897,1
0.23417599999999972,0.347,0.587,-0.504,66.65,98.205,-32.592,1
0.24108599999999925,0.348,0.528,-0.512,76.354,97.778,-30.761,1
0.2500169999999997,0.368,0.486,-0.511,86.242,97.167,-28.015,1
0.2575959999999995,0.384,0.471,-0.535,91.552,97.106,-25.085,1
0.2657429999999996,0.403,0.472,-0.548,89.172,96.618,-22.277,1
0.2724690000000001,0.349,0.466,-0.579,83.068,97.229,-19.47,1
0.2809330000000001,0.341,0.482,-0.589,75.561,96.313,-16.357,1
0.28979599999999994,0.389,0.496,-0.602,72.753,95.52,-13.305,1
0.29854999999999965,0.41,0.51,-0.637,74.035,94.238,-10.253,1
0.3058609999999993,0.436,0.506,-0.653,78.674,90.942,-6.469,1
0.31495599999999957,0.427,0.501,-0.697,82.336,88.317,-2.38,1
0.3218999999999994,0.395,0.526,-0.712,82.824,86.486,1.464,1
0.32964199999999977,0.383,0.543,-0.744,83.74,83.984,5.187,1
0.33727599999999924,0.356,0.574,-0.762,84.167,81.909,8.239,1
0.34573999999999927,0.346,0.607,-0.8,83.801,80.261,10.864,1
0.3524539999999998,0.345,0.648,-0.822,80.566,78.125,13.183,1
0.3596769999999996,0.336,0.69,-0.836,76.232,76.538,14.526,1
0.368144,0.354,0.743,-0.867,72.326,74.523,15.563,1
0.3765489999999998,0.415,0.788,-0.875,67.443,70.983,16.723,1
0.3839410000000001,0.429,0.85,-0.875,66.04,68.786,17.395,1
0.391127,0.451,0.907,-0.908,68.176,64.697,17.211,1
0.39936599999999967,0.458,0.94,-0.897,68.176,60.852,17.333,1
0.40710099999999994,0.476,0.977,-0.924,71.472,58.166,16.784,1
0.4142899999999994,0.459,1.025,-0.914,70.373,53.527,15.869,1
0.42258700000000005,0.491,1.065,-0.919,72.082,53.283,15.075,1
0.43123299999999976,0.489,1.088,-0.942,72.509,48.156,13.244,1
0.43965299999999985,0.441,1.1,-0.914,66.162,47.851,11.596,1
0.4460709999999999,0.455,1.119,-0.954,58.349,44.921,9.887,1
0.4537279999999999,0.456,1.135,-0.925,48.645,43.273,6.774,1
0.4620419999999994,0.438,1.15,-0.907,36.926,41.748,4.089,1
0.46913299999999936,0.452,1.171,-0.906,32.653,39.55,1.037,1
0.47850400000000004,0.444,1.186,-0.892,31.555,36.56,-2.502,1
0.4858419999999999,0.461,1.187,-0.878,33.447,33.386,-5.92,1
0.4939359999999997,0.477,1.187,-0.864,37.597,30.029,-8.911,1
0.501506,0.483,1.169,-0.861,43.945,26.672,-11.84,1
0.50943,0.479,1.14,-0.852,48.889,22.583,-15.014,1
0.51715,0.462,1.099,-0.839,49.621,19.897,-17.639,1
0.5251909999999995,0.446,1.057,-0.819,48.339,17.333,-19.836,1
0.5351659999999994,0.445,1.006,-0.794,46.874,15.258,-21.545,1
0.5430219999999997,0.44,0.947,-0.765,46.325,12.573,-23.132,1
0.5506539999999998,0.441,0.907,-0.75,42.663,10.803,-24.475,1
0.5597259999999995,0.441,0.879,-0.737,36.254,9.399,-25.268,1
0.5670359999999999,0.447,0.85,-0.72,27.038,7.934,-26.245,1
0.574128,0.458,0.826,-0.705,20.996,6.164,-26.672,1
0.5830449999999994,0.458,0.802,-0.693,17.944,4.211,-26.794,1
0.5900109999999996,0.473,0.779,-0.692,16.479,2.136,-26.733,1
0.5970949999999995,0.456,0.743,-0.687,15.502,-0.244,-26.55,1
0.6058179999999993,0.449,0.72,-0.689,14.831,-2.624,-26.062,1
0.613651,0.476,0.693,-0.692,14.038,-5.31,-25.512,1
0.6218829999999995,0.498,0.679,-0.706,11.535,-8.361,-24.475,1
0.6289340000000001,0.495,0.668,-0.709,3.906,-10.192,-23.376,1
0.6383709999999994,0.489,0.666,-0.737,-4.699,-11.84,-21.85,1
0.6459149999999996,0.517,0.686,-0.75,-15.991,-13.488,-20.629,1
0.6540789999999994,0.557,0.705,-0.759,-28.015,-15.441,-20.141,1
0.6631429999999998,0.526,0.726,-0.781,-32.653,-18.31,-19.836,1
0.6703079999999995,0.491,0.745,-0.79,-26.855,-21.972,-19.714,1
0.6795079999999993,0.52,0.749,-0.796,-9.887,-27.099,-19.409,1
0.6868590000000001,0.508,0.754,-0.795,10.375,-31.982,-18.92,1
0.6949519999999998,0.521,0.767,-0.794,28.442,-37.109,-18.554,1
0.7048569999999996,0.565,0.775,-0.79,46.325,-41.503,-18.859,1
0.7132959999999997,0.6,0.791,-0.774,50.903,-44.494,-19.47,1
0.7208799999999993,0.614,0.812,-0.752,46.325,-46.264,-20.324,1
0.7293699999999994,0.636,0.831,-0.73,37.597,-46.874,-21.545,1
0.7381459999999995,0.651,0.843,-0.7,28.198,-46.997,-22.949,1
0.7459449999999999,0.703,0.849,-0.69,16.479,-46.02,-24.475,1
0.7551169999999994,0.754,0.861,-0.698,3.356,-45.593,-25.695,1
0.7635239999999994,0.797,0.87,-0.687,-6.958,-45.166,-26.611,1
0.772049,0.782,0.875,-0.668,-16.174,-44.555,-27.099,1
0.7796079999999996,0.762,0.891,-0.672,-27.221,-44.067,-27.709,1
0.7865880000000001,0.79,0.922,-0.634,-35.583,-43.945,-28.93,1
0.7944339999999999,0.886,0.955,-0.633,-40.222,-42.785,-29.602,1
0.8024719999999999,0.816,0.985,-0.604,-42.663,-44.311,-31.188,1
0.8107599999999993,0.821,1.015,-0.591,-46.508,-43.395,-33.508,1
0.8191289999999993,0.784,1.055,-0.57,-59.875,-42.419,-35.644,1
0.8276019999999997,0.784,1.106,-0.577,-71.044,-42.968,-37.658,1
0.8348139999999997,0.775,1.134,-0.547,-76.66,-44.433,-40.527,1
0.8430659999999994,0.848,1.174,-0.535,-70.129,-45.104,-42.724,1
0.8507639999999999,0.837,1.207,-0.537,-57.617,-49.072,-45.288,1
0.8596319999999995,0.815,1.199,-0.498,-38.269,-52.246,-47.973,1
0.8660439999999996,0.818,1.224,-0.499,-26.916,-55.053,-50.903,1
0.8739759999999999,0.803,1.244,-0.477,-23.071,-56.396,-54.26,1
0.8829129999999994,0.804,1.265,-0.46,-27.038,-57.189,-57.189,1
0.8900199999999998,0.806,1.286,-0.44,-34.851,-58.166,-60.302,1
0.8991869999999995,0.833,1.341,-0.413,-42.541,-58.288,-63.11,1
0.9079030000000001,0.835,1.429,-0.38,-43.762,-60.913,-66.894,1
0.9155850000000001,0.825,1.525,-0.375,-33.325,-63.964,-70.434,1
0.9239379999999997,0.807,1.6,-0.354,-14.77,-68.725,-74.462,1
0.9314309999999999,0.789,1.63,-0.359,10.62,-73.974,-79.528,1
0.9395639999999998,0.774,1.637,-0.365,27.77,-78.247,-84.96,1
0.9484839999999997,0.729,1.641,-0.357,41.137,-81.665,-91.125,1
0.956264,0.668,1.636,-0.334,46.508,-83.557,-97.167,1
0.9637209999999996,0.614,1.625,-0.307,47.363,-84.228,-104.858,1
0.9711739999999995,0.568,1.6,-0.258,41.687,-83.862,-111.572,1
0.979622,0.478,1.592,-0.199,37.658,-83.312,-118.591,1
0.988315,0.374,1.571,-0.128,34.667,-81.481,-125.915,1
0.9961129999999994,0.287,1.494,-0.032,31.005,-79.528,-134.887,1
1.003298,0.218,1.434,0.086,31.921,-77.209,-142.211,1
1.0117289999999999,0.166,1.364,0.187,33.935,-73.852,-149.841,1
1.0189439999999994,0.145,1.27,0.3,32.043,-70.739,-155.212,1
1.0271999999999997,0.163,1.19,0.437,30.273,-67.26,-159.851,1
1.0352609999999993,0.146,1.103,0.578,29.418,-62.255,-163.818,1
1.042382,0.144,1.031,0.72,29.418,-55.969,-167.724,1
1.0514899999999994,0.11,0.941,0.867,30.151,-49.011,-171.386,1
1.0594129999999993,0.125,0.894,0.984,32.531,-37.475,-176.391,1
1.0661389999999997,0.058,0.862,1.084,40.161,-27.282,-182.067,1
1.0749869999999992,-0.043,0.788,1.172,51.147,-16.296,-187.133,1
1.0844439999999995,-0.1,0.683,1.224,61.096,-2.99,-193.176,1
1.0922969999999994,-0.167,0.528,1.26,63.781,11.352,-197.998,1
1.1011169999999995,-0.201,0.406,1.279,60.424,26.672,-200.866,1
1.1099319999999997,-0.231,0.273,1.266,57.739,42.419,-202.575,1
1.1188009999999995,-0.224,0.153,1.269,54.016,55.053,-202.88,1
1.1268009999999995,-0.223,0.041,1.247,45.471,72.021,-201.049,1
1.1347639999999997,-0.263,-0.053,1.203,32.592,86.669,-198.425,1
1.1419489999999994,-0.304,-0.12,1.143,13.244,103.027,-194.824,1
1.1516659999999996,-0.336,-0.178,1.073,-2.563,116.333,-191.894,1
1.1591519999999997,-0.359,-0.242,0.992,-12.695,130.004,-187.988,1
1.1676019999999996,-0.375,-0.298,0.895,-10.864,142.272,-183.959,1
1.1780299999999997,-0.403,-0.378,0.797,-1.953,152.282,-180.053,1
1.1868479999999995,-0.455,-0.46,0.675,10.437,164.611,-173.889,1
1.194433,-0.5,-0.559,0.556,19.226,175.842,-166.87,1
1.2021959999999998,-0.541,-0.651,0.448,24.78,184.936,-160.095,1
1.210654,-0.561,-0.728,0.356,31.005,195.19,-151.367,1
1.2189249999999996,-0.641,-0.798,0.272,33.691,203.796,-142.822,1
1.2271299999999998,-0.67,-0.87,0.186,35.827,213.256,-132.446,1
1.2353899999999998,-0.699,-0.954,0.101,36.315,220.886,-122.924,1
1.2446899999999994,-0.814,-0.978,0.004,37.597,229.248,-111.45,1
1.2535319999999999,-0.968,-1.015,-0.065,38.879,235.839,-98.632,1
1.2626349999999995,-1.023,-1.057,-0.193,51.879,244.14,-84.716,1
1.2717159999999996,-1.159,-1.026,-0.229,58.166,247.802,-73.547,1
1.2791389999999998,-1.201,-1.098,-0.366,56.945,254.272,-59.875,1
1.2874179999999997,-1.335,-1.058,-0.395,58.654,255.798,-48.828,1
1.2959839999999998,-1.449,-1.104,-0.493,60.058,259.826,-33.996,1
1.3050099999999993,-1.468,-1.06,-0.529,61.645,263.61,-20.629,1
1.3136409999999996,-1.474,-1.154,-0.625,58.532,264.953,-5.126,1
1.3196939999999993,-1.556,-1.167,-0.651,42.358,268.981,12.023,1
1.3277919999999996,-1.572,-1.177,-0.735,37.902,270.507,27.893,1
1.337949,-1.613,-1.248,-0.745,49.072,270.629,44.982,1
1.347074,-1.655,-1.281,-0.84,77.453,268.066,66.955,1
1.35445,-1.722,-1.287,-0.911,124.816,264.526,91.613,1
1.3632209999999993,-1.831,-1.338,-0.995,180.664,257.629,119.628,1
1.3698769999999998,-1.958,-1.409,-1.096,226.318,249.45,147.766,1
1.3792739999999997,-2.064,-1.502,-1.209,269.714,236.389,184.02,1
1.3861549999999996,-2.131,-1.576,-1.316,299.987,223.632,217.041,1
1.3927819999999995,-2.398,-1.592,-1.453,319.702,206.115,251.281,1
1.403709,-2.5,-1.582,-1.461,345.52,187.011,286.926,1
1.410748,-2.661,-1.553,-1.64,388.305,158.691,329.223,1
1.4218389999999994,-2.921,-1.525,-1.691,434.753,121.643,372.497,1
1.4282749999999993,-3.262,-1.445,-1.838,479.553,78.002,414.245,1
1.4372639999999999,-3.616,-1.432,-1.919,498.718,28.808,454.833,1
1.44592,-4.008,-1.381,-2.017,494.995,-16.967,486.877,1
1.452871,-4.542,-1.279,-2.0,484.008,-72.814,519.958,1
1.4613489999999993,-5.035,-1.207,-2.021,474.243,-123.229,544.555,1
1.471159,-5.661,-1.196,-1.969,452.636,-181.457,570.129,1
1.4782929999999999,-6.351,-1.181,-1.908,412.536,-238.159,593.078,1
1.4883199999999999,-7.063,-1.148,-1.772,376.403,-282.043,610.839,1
1.4953319999999994,-7.765,-1.086,-1.656,333.801,-332.031,630.065,1
1.5042339999999994,-8.712,-0.965,-1.482,300.048,-376.037,647.766,1
1.5133709999999994,-9.59,-0.867,-1.314,266.296,-417.541,663.024,1
1.522004,-10.374,-0.653,-1.167,268.249,-451.171,675.048,1
1.5291569999999997,-11.264,-0.385,-0.994,321.35,-495.971,682.861,1
1.538125,-12.003,-0.168,-0.92,384.582,-549.682,681.03,1
1.5465879999999999,-12.82,0.103,-0.799,457.641,-600.891,671.081,1
1.553376,-13.521,0.355,-0.686,534.423,-660.217,649.108,1
1.5617999999999999,-14.292,0.545,-0.522,581.42,-727.416,611.511,1
1.570106,-14.984,0.722,-0.325,572.387,-778.076,571.655,1
1.5781899999999993,-15.457,0.987,-0.044,527.832,-824.157,522.705,1
1.5863329999999998,-15.521,1.273,0.297,483.642,-854.553,481.506,1
1.5945409999999995,-15.457,1.402,0.64,449.523,-880.737,435.729,1
1.602735,-15.572,1.469,1.023,446.472,-899.23,401.55,1
1.6102089999999993,-15.612,1.75,1.417,494.628,-912.597,361.511,1
1.6190879999999996,-15.815,2.083,1.69,628.112,-937.438,295.898,1
1.625896,-15.766,2.261,1.961,777.893,-952.941,221.618,1
1.6346249999999998,-15.051,2.239,1.943,919.067,-961.242,126.342,1
1.6423519999999998,-14.044,1.943,1.858,991.149,-951.721,19.775,1
1.6506699999999999,-12.676,1.581,1.642,965.82,-913.574,-102.783,1
1.6575090000000001,-12.003,1.448,1.504,903.076,-867.37,-196.105,1
1.6658549999999996,-11.436,1.354,1.409,817.687,-808.898,-274.78,1
1.6754569999999998,-10.439,1.202,1.24,692.993,-741.21,-347.656,1
1.682092,-9.624,1.104,1.195,576.965,-682.373,-394.103,1
1.6913539999999996,-8.946,1.037,1.217,463.806,-628.784,-427.917,1
1.6979319999999998,-8.602,0.999,1.294,361.389,-571.105,-455.078,1
1.705413,-8.325,0.915,1.402,292.419,-527.648,-471.679,1
1.7150039999999995,-7.702,0.726,1.513,224.914,-484.558,-482.421,1
1.7220839999999997,-7.063,0.625,1.569,154.968,-444.885,-488.037,1
1.7311049999999994,-6.687,0.564,1.625,125.061,-416.32,-487.06,1
1.7398539999999993,-6.169,0.508,1.667,136.352,-388.305,-482.727,1
1.7477070000000001,-5.958,0.583,1.753,186.706,-367.675,-479.919,1
1.7559139999999998,-5.774,0.492,1.848,271.484,-338.378,-479.553,1
1.7626409999999995,-5.641,0.355,1.823,334.167,-309.814,-480.102,1
1.7709039999999998,-5.345,0.031,1.808,366.332,-275.207,-479.797,1
1.779147,-4.991,-0.263,1.748,350.219,-231.262,-476.257,1
1.787909,-4.623,-0.491,1.708,308.654,-194.091,-469.238,1
1.7963879999999994,-4.216,-0.686,1.663,262.695,-161.56,-459.533,1
1.8033599999999996,-3.935,-0.838,1.639,220.703,-129.15,-443.908,1
1.8122829999999999,-3.688,-1.04,1.635,190.917,-102.722,-430.236,1
1.8206409999999993,-3.46,-1.198,1.562,137.512,-75.805,-411.743,1
1.8289269999999993,-3.21,-1.28,1.586,102.844,-57.678,-395.69,1
1.837517,-2.842,-1.359,1.561,84.472,-39.367,-376.037,1
1.8458839999999999,-2.522,-1.424,1.581,93.444,-23.62,-355.468,1
1.8548,-2.287,-1.511,1.56,113.159,-10.62,-336.73,1
1.863314,-2.053,-1.62,1.564,134.033,6.774,-313.537,1
1.870851,-1.813,-1.688,1.52,142.578,24.658,-289.55,1
1.8795799999999998,-1.645,-1.741,1.464,136.474,40.649,-268.127,1
1.8887209999999994,-1.468,-1.729,1.39,118.53,55.175,-247.07,1
1.8965329999999998,-1.344,-1.696,1.345,98.632,71.228,-219.421,1
1.903492,-1.232,-1.662,1.285,91.369,82.336,-195.861,1
1.9119069999999994,-1.123,-1.632,1.241,90.576,90.942,-176.513,1
1.918857,-1.026,-1.607,1.18,88.256,97.595,-157.714,1
1.9291479999999996,-0.914,-1.565,1.12,83.801,104.187,-139.77,1
1.9363199999999994,-0.783,-1.512,1.044,80.688,110.473,-119.934,1
1.94543,-0.674,-1.446,0.973,70.739,116.21,-100.952,1
1.9524909999999993,-0.588,-1.381,0.909,60.791,119.628,-85.876,1
1.963018,-0.528,-1.281,0.845,52.734,123.413,-68.847,1
1.970319,-0.388,-1.161,0.806,54.138,124.816,-53.955,1
1.978078,-0.363,-1.06,0.75,62.438,126.342,-39.306,1
1.9883059999999997,-0.288,-0.986,0.706,61.95,126.525,-28.32,1
1.9945569999999995,-0.244,-0.895,0.666,60.18,127.99,-17.944,1
2.0041659999999997,-0.192,-0.817,0.626,56.03,128.295,-7.385,1
2.0113399999999997,-0.158,-0.737,0.598,52.734,129.455,0.976,1
2.017913,-0.035,-0.647,0.576,50.17,129.028,8.117,1
2.0255529999999995,0.006,-0.556,0.546,52.856,129.333,14.648,1
2.0358549999999997,0.01,-0.482,0.505,54.809,128.601,20.08,1
2.0427429999999998,0.037,-0.42,0.476,53.222,128.295,25.634,1
2.0498689999999993,0.14,-0.366,0.451,50.109,126.953,30.395,1
2.0574969999999997,0.242,-0.311,0.446,48.706,126.159,34.301,1
2.066186,0.314,-0.258,0.431,49.743,124.572,38.085,1
2.073709,0.358,-0.208,0.429,51.574,123.291,41.564,1
2.08094,0.392,-0.157,0.406,54.504,122.009,45.288,1
2.089663,0.419,-0.133,0.391,54.809,120.239,47.607,1
2.097792,0.503,-0.066,0.368,55.175,119.384,49.865,1
2.1045989999999994,0.508,-0.051,0.36,50.842,117.675,51.513,1
2.112348,0.558,-0.018,0.334,46.447,117.309,52.978,1
2.1197619999999997,0.549,-0.003,0.336,41.015,115.356,53.771,1
2.1273469999999994,0.562,0.023,0.327,40.832,115.417,55.114,1
2.1363719999999997,0.652,0.075,0.308,47.363,113.647,56.274,1
2.1443199999999996,0.663,0.054,0.302,55.969,111.999,57.983,1
2.1517089999999994,0.706,0.062,0.25,56.701,111.511,59.326,1
2.1600319999999993,0.717,0.099,0.24,57.128,110.534,60.485,1
2.1680279999999996,0.788,0.137,0.198,63.293,108.398,61.584,1
2.175559,0.773,0.15,0.216,68.237,106.384,62.499,1
2.183705,0.778,0.189,0.186,74.829,102.355,64.147,1
2.1910879999999997,0.788,0.228,0.216,82.641,99.609,64.453,1
2.1986599999999994,0.805,0.264,0.209,98.449,94.604,65.368,1
2.207597,0.791,0.292,0.239,115.356,89.538,66.04,1
2.2155119999999995,0.792,0.313,0.227,135.498,85.205,66.772,1
2.222377,0.79,0.309,0.211,153.808,79.65,67.382,1
2.2319189999999995,0.825,0.278,0.165,156.738,77.392,67.565,1
2.2388839999999997,0.868,0.244,0.141,146.423,75.866,68.054,1
2.247636,0.979,0.25,0.1,123.779,75.805,68.725,1
2.2555509999999996,1.027,0.265,0.074,101.379,76.721,68.603,1
2.262333,1.015,0.3,0.039,80.017,78.491,67.321,1
2.2713659999999996,1.0,0.335,0.021,60.791,80.749,65.246,1
2.2803069999999996,1.006,0.38,-0.009,41.503,83.374,61.706,1
2.2873729999999997,1.041,0.433,-0.036,28.015,84.655,57.617,1
2.2945599999999997,1.063,0.471,-0.062,21.545,84.289,53.771,1
2.3034339999999993,1.069,0.509,-0.08,20.385,83.312,49.499,1
2.31004,1.049,0.544,-0.105,24.414,81.787,44.982,1
2.318696,1.061,0.57,-0.117,31.677,79.406,40.039,1
2.3261959999999995,1.049,0.588,-0.124,39.367,77.453,34.912,1
2.334403,1.019,0.602,-0.107,46.997,75.195,29.357,1
2.3426349999999996,1.05,0.614,-0.09,58.898,72.814,23.01,1
2.349889,1.042,0.619,-0.061,71.166,70.556,17.272,1
2.35769,1.046,0.633,-0.029,91.491,68.847,10.986,1
2.3647659999999995,1.055,0.622,-0.022,111.389,66.711,5.737,1
2.374232,1.051,0.603,0.01,127.868,65.063,0.915,1
2.3810659999999997,1.035,0.56,0.012,136.535,63.598,-3.295,1
2.390384,1.033,0.506,0.022,140.441,64.208,-7.629,1
2.397755,1.026,0.459,0.036,139.221,64.636,-10.62,1
2.4062859999999997,1.045,0.434,0.068,137.573,65.734,-13.732,1
2.4145499999999993,1.07,0.449,0.075,142.639,66.955,-16.296,1
2.4213939999999994,1.077,0.405,0.09,159.362,67.871,-19.165,1
2.4297649999999997,1.037,0.374,0.079,170.959,70.739,-20.568,1
2.437005,1.029,0.377,0.07,181.213,71.777,-21.972,1
2.4435259999999994,0.999,0.317,0.084,184.143,73.852,-22.46,1
2.450627,0.938,0.274,0.076,181.457,74.768,-22.888,1
2.458214,0.92,0.228,0.074,177.062,75.805,-22.46,1
2.4672609999999997,0.928,0.196,0.072,171.936,77.27,-22.583,1
2.4757289999999994,0.927,0.181,0.083,171.081,78.186,-22.277,1
2.4823499999999994,0.96,0.151,0.092,175.598,78.857,-20.507,1
2.4901149999999994,0.967,0.152,0.081,187.866,79.895,-17.822,1
2.498323,0.983,0.147,0.093,201.354,79.956,-15.258,1
2.5068779999999995,0.977,0.129,0.082,217.651,81.542,-12.023,1
2.5142989999999994,0.936,0.096,0.038,223.693,82.031,-9.643,1
2.521273,0.883,0.101,0.055,220.336,85.021,-7.263,1
2.5283619999999996,0.83,0.08,0.02,205.322,85.876,-4.882,1
2.537375,0.802,0.072,0.031,187.011,88.317,-1.708,1
2.544474,0.808,0.069,0.02,171.691,88.867,1.403,1
2.5532819999999994,0.807,0.062,0.017,159.118,89.294,4.638,1
2.5605919999999998,0.787,0.078,0.015,150.451,88.562,7.629,1
2.569121,0.748,0.107,0.028,150.268,89.965,10.498,1
2.5773979999999996,0.736,0.138,0.018,153.991,91.125,13.0,1
2.5847669999999994,0.745,0.17,0.003,157.653,94.177,16.235,1
2.5931289999999994,0.751,0.179,-0.021,152.465,95.825,18.249,1
2.600816,0.717,0.19,-0.041,137.39,98.632,19.592,1
2.6098339999999993,0.66,0.194,-0.061,110.046,100.219,20.629,1
2.616879,0.648,0.215,-0.061,87.402,100.585,21.545,1
2.6247859999999994,0.69,0.251,-0.053,77.697,99.487,22.277,1
2.6319079999999992,0.771,0.283,-0.057,84.533,98.876,22.888,1
2.640613,0.836,0.312,-0.076,99.792,97.9,23.498,1
2.6492939999999994,0.937,0.344,-0.136,117.309,98.083,24.291,1
2.656929,0.936,0.368,-0.166,128.112,98.51,25.085,1
2.6641069999999996,0.923,0.382,-0.219,131.713,100.585,25.634,1
2.6737189999999993,0.855,0.407,-0.239,128.601,101.623,25.939,1
2.6813519999999995,0.754,0.444,-0.269,124.45,103.942,26.428,1
2.6882589999999995,0.7,0.484,-0.283,121.459,104.614,26.306,1
2.6960989999999994,0.679,0.512,-0.305,121.032,105.651,26.062,1
2.704611,0.669,0.529,-0.364,117.553,105.773,25.695,1
2.7131939999999997,0.677,0.558,-0.424,113.22,106.689,24.78,1
2.720122,0.668,0.592,-0.479,106.201,105.957,23.559,1
2.7274119999999993,0.647,0.629,-0.538,104.919,104.187,22.583,1
2.7367149999999993,0.584,0.65,-0.591,111.877,100.952,22.033,1
2.744128,0.555,0.662,-0.661,122.619,97.106,22.277,1
2.7524889999999997,0.512,0.682,-0.64,145.935,92.712,22.766,1
2.7597949999999996,0.535,0.651,-0.733,155.212,86.059,22.583,1
2.769171,0.513,0.635,-0.691,166.87,83.74,23.254,1
2.7773189999999994,0.487,0.599,-0.698,176.208,77.453,23.986,1
2.7854669999999997,0.475,0.596,-0.647,191.223,72.387,26.428,1
2.7930389999999994,0.482,0.586,-0.645,205.383,69.824,28.869,1
2.8008479999999993,0.543,0.597,-0.732,215.698,62.683,30.273,1
2.808,0.536,0.578,-0.684,224.914,60.363,31.86,1
2.8164999999999996,0.54,0.587,-0.667,229.187,54.626,34.179,1
2.8242069999999995,0.48,0.566,-0.623,228.637,52.246,36.132,1
2.8310079999999997,0.439,0.551,-0.616,221.313,49.316,37.902,1
2.839944,0.415,0.55,-0.58,212.219,47.607,39.367,1
2.847403,0.332,0.562,-0.539,208.129,44.006,40.954,1
2.8553859999999993,0.401,0.495,-0.547,202.88,42.846,42.724,1
2.8629119999999997,0.415,0.506,-0.57,196.716,40.527,44.982,1
2.8703649999999996,0.446,0.475,-0.568,181.64,39.55,47.241,1
2.879487,0.46,0.5,-0.547,169.616,39.306,49.804,1
2.887377,0.5,0.51,-0.513,163.024,37.475,52.307,1
2.8960479999999995,0.513,0.506,-0.488,160.217,37.292,54.565,1
2.903803,0.457,0.514,-0.473,151.55,35.888,57.861,1
2.9113939999999996,0.621,0.567,-0.482,148.376,36.56,60.058,1
2.920846,0.683,0.61,-0.497,139.16,35.156,61.523,1
2.928712,0.67,0.665,-0.522,123.291,35.095,63.293,1
2.9367229999999998,0.655,0.727,-0.524,112.243,35.339,64.147,1
2.942417,0.658,0.778,-0.537,107.482,34.118,64.025,1
2.950697,0.669,0.805,-0.524,104.003,33.813,64.697,1
2.9569469999999995,0.684,0.84,-0.549,99.121,33.264,64.819,1
2.9640819999999994,0.69,0.866,-0.546,89.416,32.409,64.514,1
2.9717639999999994,0.729,0.896,-0.537,76.721,32.531,64.331,1
2.9805859999999997,0.738,0.951,-0.524,62.866,32.531,63.537,1
2.9882909999999994,0.74,1.014,-0.51,53.405,31.311,61.828,1
2.9986289999999993,0.684,1.071,-0.487,53.405,30.944,60.546,1
3.0057609999999997,0.696,1.11,-0.461,59.265,28.137,58.776,1
3.0143709999999997,0.671,1.149,-0.466,67.932,26.062,56.64,1
3.0236329999999993,0.64,1.183,-0.438,69.274,24.353,54.321,1
3.030931,0.629,1.203,-0.432,63.476,23.437,52.001,1
3.0382469999999993,0.639,1.243,-0.404,55.664,22.46,48.645,1
3.045972,0.635,1.257,-0.384,49.255,21.179,45.288,1
3.05335,0.621,1.268,-0.358,44.799,20.263,42.114,1
3.062596,0.604,1.275,-0.332,43.457,18.92,38.818,1
3.0700589999999996,0.602,1.271,-0.3,45.288,17.517,35.034,1
3.078291,0.604,1.265,-0.276,49.011,16.174,32.104,1
3.0864789999999998,0.583,1.245,-0.257,52.795,14.953,28.808,1
3.0940379999999994,0.568,1.222,-0.238,56.396,13.671,25.146,1
3.1013839999999995,0.563,1.193,-0.227,59.448,12.695,22.338,1
3.1102239999999997,0.553,1.193,-0.209,64.392,12.084,19.836,1
3.116753,0.548,1.179,-0.189,70.007,11.352,17.272,1
3.1244099999999992,0.555,1.16,-0.18,72.998,11.23,15.014,1
3.131882,0.554,1.144,-0.172,70.922,11.291,12.939,1
3.139055,0.557,1.117,-0.167,63.781,12.329,10.742,1
3.1481189999999994,0.56,1.101,-0.155,54.016,13.549,9.033,1
3.156306,0.558,1.083,-0.139,44.128,15.258,6.774,1
3.1635849999999994,0.561,1.063,-0.131,37.841,16.479,5.065,1
3.1708179999999997,0.551,1.05,-0.123,33.203,17.578,3.845,1
3.179704,0.559,1.036,-0.11,31.738,18.737,2.502,1
3.1871869999999998,0.568,1.013,-0.106,31.799,19.409,1.464,1
3.19628,0.578,0.992,-0.104,33.325,20.812,0.305,1
3.2053689999999992,0.574,0.969,-0.107,33.386,21.606,-0.366,1
3.2128939999999995,0.553,0.955,-0.108,29.663,22.827,-1.159,1
