ax,ay,az,gx,gy,gz,label
-0.782,0.609,-0.281,-47.852,14.587,-1.831,1
-0.859,0.661,-0.277,-17.639,13.062,-2.136,1
-0.865,0.655,-0.313,-4.700,11.902,-3.235,1
-0.835,0.663,-0.335,-37.231,10.925,-7.141,1
-0.811,0.736,-0.318,-36.499,11.169,-11.536,1
-0.869,0.768,-0.313,-1.892,11.902,-16.113,1
-0.843,0.755,-0.318,37.415,13.428,-20.813,1
-0.874,0.694,-0.356,23.193,14.282,-25.940,1
-0.837,0.667,-0.376,-59.753,15.564,-33.569,1
-0.831,0.774,-0.342,-110.168,16.418,-41.687,1
-0.870,0.932,-0.290,-89.844,17.090,-49.683,1
-0.915,1.018,-0.301,-38.330,17.822,-57.678,1
-0.900,1.017,-0.362,-56.458,18.494,-68.787,1
-0.952,1.134,-0.421,-131.775,18.311,-82.886,1
-0.950,1.367,-0.375,-156.189,16.296,-101.440,1
-0.952,1.530,-0.308,-85.388,13.794,-119.690,1
-0.944,1.536,-0.309,-36.499,11.414,-137.451,1
-0.962,1.514,-0.316,-56.519,9.033,-154.663,1
-0.919,1.557,-0.269,-68.787,6.775,-169.800,1
-0.927,1.586,-0.240,-50.964,5.859,-181.213,1
-0.955,1.588,-0.232,-21.729,6.836,-191.650,1
-0.938,1.544,-0.246,-6.226,9.277,-200.867,1
-0.958,1.511,-0.234,-17.151,11.780,-210.388,1
-0.949,1.527,-0.249,-22.583,12.939,-218.506,1
-0.944,1.535,-0.228,-14.099,13.611,-223.877,1
-0.907,1.518,-0.211,4.700,14.526,-227.722,1
-0.881,1.502,-0.190,32.104,16.052,-229.370,1
-0.838,1.445,-0.210,65.247,19.470,-230.225,1
-0.786,1.289,-0.265,47.852,21.973,-229.553,1
-0.760,1.271,-0.381,30.090,24.597,-229.187,1
-0.652,1.247,-0.286,29.114,24.902,-228.333,1
-0.525,1.160,-0.229,26.428,23.804,-225.891,1
-0.457,1.061,-0.205,21.606,21.606,-221.680,1
-0.350,1.111,-0.152,11.475,18.005,-209.778,1
-0.306,0.872,-0.274,21.606,17.334,-204.773,1
-0.306,0.777,-0.159,48.645,17.944,-197.754,1
-0.179,0.745,-0.072,79.346,20.569,-189.941,1
-0.091,0.651,-0.074,116.455,24.536,-183.411,1
-0.169,0.584,-0.329,139.648,32.776,-175.842,1
0.101,0.412,-0.240,82.886,38.391,-173.157,1
0.002,0.357,-0.178,93.140,44.373,-168.640,1
0.017,0.326,-0.332,108.337,53.467,-163.879,1
0.192,0.365,-0.389,78.064,60.364,-160.400,1
0.348,0.438,-0.341,31.250,60.486,-156.006,1
0.332,0.448,-0.410,2.625,56.396,-154.297,1
0.410,0.458,-0.408,-12.146,49.133,-151.001,1
0.428,0.532,-0.421,-0.122,39.978,-145.264,1
0.480,0.526,-0.464,25.208,32.471,-139.099,1
0.464,0.467,-0.473,30.823,26.672,-134.094,1
0.505,0.413,-0.478,18.188,21.667,-131.775,1
0.552,0.396,-0.438,-2.930,15.076,-130.310,1
0.492,0.432,-0.423,-2.441,9.155,-128.174,1
0.585,0.438,-0.386,23.254,3.540,-125.793,1
0.596,0.418,-0.385,42.480,-0.122,-124.390,1
0.696,0.413,-0.358,40.039,-3.235,-122.681,1
0.686,0.464,-0.315,36.133,-5.554,-120.728,1
0.639,0.493,-0.277,49.133,-6.042,-119.141,1
0.528,0.457,-0.217,74.951,-6.348,-119.446,1
0.490,0.394,-0.119,116.699,-4.761,-118.896,1
0.509,0.415,-0.127,141.357,-1.160,-118.042,1
0.554,0.402,-0.140,139.526,2.747,-115.784,1
0.617,0.408,-0.158,128.113,7.141,-112.915,1
0.652,0.378,-0.154,121.582,11.475,-109.985,1
0.583,0.291,-0.163,110.413,15.564,-107.666,1
0.574,0.250,-0.166,105.286,19.592,-104.126,1
0.655,0.200,-0.204,108.032,23.865,-99.915,1
0.584,0.151,-0.262,105.347,28.564,-95.215,1
0.646,0.130,-0.338,95.642,32.776,-88.928,1
0.612,0.096,-0.375,59.387,33.936,-83.130,1
0.689,0.043,-0.362,49.316,35.095,-78.003,1
0.774,0.003,-0.416,46.082,35.461,-71.716,1
0.808,0.011,-0.408,36.621,33.569,-66.589,1
0.894,0.036,-0.385,37.231,31.555,-60.730,1
0.940,0.044,-0.364,31.494,28.931,-57.007,1
0.950,0.055,-0.332,22.705,27.100,-56.152,1
0.977,0.044,-0.284,26.794,25.330,-57.983,1
0.941,0.042,-0.269,45.715,25.757,-61.035,1
0.929,0.003,-0.240,51.575,27.222,-65.613,1
0.843,-0.073,-0.210,42.297,30.396,-71.228,1
0.764,-0.164,-0.181,20.996,34.668,-77.148,1
0.595,-0.228,-0.149,1.648,39.917,-82.947,1
0.489,-0.317,-0.139,-11.230,46.692,-88.379,1
0.301,-0.404,-0.070,-7.141,54.565,-92.346,1
0.273,-0.506,-0.044,31.311,67.200,-91.675,1
0.098,-0.627,-0.001,44.312,78.918,-85.693,1
-0.058,-0.816,-0.054,0.183,90.881,-74.219,1
-0.303,-0.950,-0.080,-52.002,101.868,-59.998,1
-0.574,-1.123,-0.073,-53.589,114.746,-38.757,1
-0.824,-1.306,-0.134,-29.663,131.958,-6.348,1
-1.143,-1.448,-0.203,-49.744,150.085,32.288,1
-1.395,-1.532,-0.206,-52.917,166.016,78.125,1
-1.720,-1.733,-0.305,-57.800,182.800,132.263,1
-1.993,-1.726,-0.365,-60.486,198.120,192.993,1
-2.625,-1.948,-0.565,-35.034,212.952,270.508,1
-3.152,-2.004,-0.853,-45.959,222.473,353.271,1
-4.032,-1.966,-1.198,31.189,223.755,467.224,1
-5.325,-2.333,-1.388,81.543,203.796,588.562,1
-6.501,-2.088,-1.612,158.813,167.847,713.440,1
-8.000,-1.626,-1.639,290.710,83.130,870.300,1
-8.000,-1.161,-1.516,378.418,-36.560,1004.456,1
-8.000,-0.589,-1.020,453.003,-197.388,1107.788,1
-8.000,0.270,-0.471,589.478,-413.452,1168.945,1
-8.000,1.115,0.204,812.744,-662.720,1152.893,1
-8.000,2.075,1.036,1149.719,-943.176,1026.245,1
-8.000,1.905,1.905,1499.634,-1208.496,668.640,1
-8.000,1.256,0.931,1532.165,-1250.061,153.198,1
-8.000,1.269,1.298,1096.069,-1119.324,-276.672,1
-8.000,0.904,1.149,747.070,-919.311,-486.145,1
-8.000,0.563,1.261,738.464,-713.196,-612.244,1
-8.000,0.024,1.051,661.133,-540.710,-695.373,1
-8.000,-0.371,0.913,469.543,-379.517,-725.525,1
-6.829,-0.357,1.390,392.700,-263.855,-705.810,1
-6.131,-0.589,1.299,430.237,-142.334,-665.588,1
-5.638,-0.837,1.184,326.416,-36.682,-615.601,1
-5.187,-0.521,1.159,290.894,31.067,-558.716,1
-4.477,-0.793,0.862,306.824,95.703,-490.417,1
-3.660,-1.114,0.585,262.817,152.466,-423.096,1
-3.106,-1.282,0.612,180.542,185.486,-364.258,1
-2.481,-1.185,0.552,145.020,205.566,-302.185,1
-1.803,-1.204,0.541,143.799,215.027,-245.972,1
-1.349,-1.014,0.546,135.132,213.806,-192.688,1
-1.147,-0.767,0.494,146.118,208.313,-137.695,1
-0.892,-0.598,0.377,146.423,198.486,-85.022,1
-0.703,-0.610,0.299,139.404,191.467,-43.884,1
-0.551,-0.574,0.296,133.972,185.120,-15.259,1
-0.474,-0.504,0.276,136.963,177.673,10.742,1
-0.348,-0.430,0.229,147.644,170.349,31.067,1
-0.147,-0.344,0.117,149.719,162.048,50.842,1
-0.092,-0.273,0.101,151.550,153.870,64.880,1
0.020,-0.190,0.083,155.884,145.935,77.087,1
0.151,-0.154,0.091,151.306,138.794,87.646,1
0.266,-0.134,0.006,135.193,134.460,93.933,1
0.407,-0.042,-0.028,106.995,131.653,98.145,1
0.418,0.022,0.014,86.121,128.479,98.572,1
0.415,0.095,0.000,83.496,124.634,96.863,1
0.529,0.210,-0.024,110.352,121.216,93.567,1
0.674,0.244,-0.112,138.916,119.141,89.661,1
0.765,0.301,-0.078,127.991,115.479,85.632,1
0.740,0.397,-0.091,109.863,111.755,79.834,1
0.777,0.556,-0.152,110.962,110.046,74.097,1
0.802,0.695,-0.212,126.831,108.154,65.796,1
0.771,0.822,-0.271,143.860,106.323,57.068,1
0.740,0.861,-0.352,161.072,105.041,47.668,1
0.780,0.967,-0.368,175.171,102.783,40.344,1
0.866,1.070,-0.382,197.449,98.572,34.241,1
0.850,1.141,-0.442,210.327,94.116,29.236,1
0.780,1.141,-0.520,209.839,93.262,22.644,1
0.792,1.138,-0.558,187.134,92.468,14.587,1
0.807,1.136,-0.537,171.326,91.736,6.592,1
0.849,1.173,-0.525,169.983,88.379,-0.427,1
0.884,1.219,-0.521,196.045,85.205,-6.287,1
0.873,1.201,-0.543,221.313,84.534,-13.367,1
0.804,1.142,-0.534,204.407,84.656,-22.827,1
0.839,1.110,-0.517,179.016,85.876,-31.433,1
0.846,1.058,-0.536,138.977,84.961,-40.710,1
0.821,1.042,-0.534,119.629,82.214,-48.767,1
0.829,1.007,-0.547,128.540,78.552,-55.237,1
0.881,1.010,-0.586,153.137,74.524,-59.204,1
0.935,0.990,-0.609,178.955,72.144,-60.120,1
0.892,0.912,-0.604,187.744,69.153,-60.730,1
0.861,0.856,-0.633,184.204,66.406,-60.852,1
0.867,0.743,-0.564,186.218,63.293,-60.181,1
0.798,0.729,-0.588,172.791,60.730,-59.509,1
0.816,0.767,-0.573,173.096,57.678,-59.143,1
0.789,0.757,-0.594,195.251,55.115,-59.143,1
0.800,0.873,-0.514,246.643,53.162,-58.044,1
0.924,0.773,-0.432,275.269,50.354,-58.350,1
0.943,0.760,-0.434,274.048,48.096,-56.335,1
0.937,0.800,-0.345,271.667,46.448,-54.749,1
0.829,0.792,-0.293,272.034,45.898,-53.894,1
0.843,0.797,-0.232,273.010,45.715,-53.284,1
0.811,0.795,-0.235,226.929,44.983,-55.359,1
0.898,0.829,-0.127,156.738,43.335,-60.364,1
0.889,0.949,-0.061,103.760,41.260,-65.674,1
0.856,0.964,0.007,95.642,41.138,-72.876,1
0.796,0.942,0.031,93.994,42.725,-79.834,1
0.766,0.838,0.020,64.819,46.204,-85.754,1
0.711,0.795,-0.000,52.063,54.138,-93.933,1
0.482,0.775,0.050,26.550,64.148,-98.022,1
0.578,0.497,0.015,-6.348,75.439,-108.459,1
0.531,0.282,0.019,-20.996,85.266,-112.549,1
0.361,0.320,0.128,-10.315,96.252,-115.784,1
0.196,0.194,0.141,16.296,110.107,-117.126,1
-0.010,0.078,0.177,33.142,124.084,-116.089,1
-0.203,-0.008,0.152,63.171,140.503,-114.807,1
-0.353,-0.072,0.094,105.225,157.837,-107.544,1
-0.595,-0.174,-0.111,83.496,174.927,-93.567,1
-0.788,-0.326,-0.166,-45.593,186.523,-82.397,1
-0.970,-0.311,-0.144,-140.808,191.162,-71.899,1
-0.962,-0.376,-0.110,-105.408,191.040,-55.481,1
-1.039,-0.486,-0.389,-40.710,193.237,-29.175,1
-0.967,-0.951,-0.701,-85.571,196.411,3.113,1
-1.090,-1.150,-0.584,-115.112,197.876,37.476,1
-1.152,-1.013,-0.473,11.963,200.317,84.961,1
-1.432,-0.973,-0.747,36.987,192.932,135.620,1
-1.526,-0.887,-0.578,38.513,183.960,190.186,1
-1.821,-0.785,-0.789,88.562,171.753,252.075,1
-2.129,-0.694,-0.789,167.541,151.611,320.801,1
-2.352,-0.542,-0.878,252.014,120.056,399.597,1
-2.872,-0.558,-0.956,323.181,74.829,489.563,1
-3.829,-0.679,-1.128,324.524,8.728,590.942,1
-4.984,-0.514,-1.105,363.159,-60.303,685.425,1
-6.076,-0.311,-1.113,514.954,-158.447,779.663,1
-7.613,-0.156,-1.167,644.165,-311.890,853.210,1
-8.000,-0.043,-1.270,663.025,-486.572,875.183,1
-8.000,-0.092,-1.259,556.152,-648.437,848.450,1
-8.000,-0.076,-1.106,357.300,-754.700,804.199,1
-8.000,0.892,-0.004,201.538,-814.941,775.391,1
-8.000,1.887,0.580,458.557,-863.586,734.741,1
-8.000,2.338,0.809,770.874,-945.373,589.233,1
-8.000,1.252,1.232,1001.404,-976.929,342.102,1
-8.000,1.262,1.021,1117.615,-925.964,26.306,1
-8.000,1.339,0.734,994.751,-825.134,-214.844,1
-7.993,0.726,0.668,701.843,-667.541,-385.132,1
-6.770,0.359,1.025,348.206,-562.500,-438.171,1
-6.103,0.285,1.229,246.521,-471.863,-449.707,1
-5.128,0.118,1.407,334.900,-378.967,-454.285,1
-4.497,-0.350,1.292,307.922,-290.466,-456.665,1
-3.790,-0.824,1.407,164.856,-213.928,-443.970,1
-3.307,-0.807,1.528,160.461,-152.344,-419.556,1
-2.684,-0.854,1.487,174.927,-96.069,-387.878,1
-1.956,-0.942,1.341,146.545,-38.757,-344.849,1
-1.546,-0.930,1.233,128.906,7.996,-296.082,1
-1.256,-0.906,1.116,106.201,39.429,-251.526,1
-1.060,-0.721,1.023,102.539,61.829,-210.022,1
-0.854,-0.646,0.885,97.412,78.735,-169.312,1
-0.709,-0.515,0.784,107.849,90.881,-136.536,1
-0.580,-0.415,0.689,121.094,100.647,-107.117,1
-0.448,-0.314,0.578,135.620,106.201,-83.191,1
-0.347,-0.259,0.455,139.771,110.107,-64.026,1
-0.269,-0.185,0.386,128.601,111.694,-49.927,1
-0.085,-0.162,0.334,114.380,109.680,-39.795,1
0.152,-0.156,0.291,114.136,107.178,-33.325,1
0.346,-0.122,0.343,141.296,104.858,-27.283,1
0.592,-0.096,0.332,174.805,103.943,-21.362,1
0.718,-0.132,0.248,178.406,104.431,-14.587,1
0.791,-0.096,0.198,163.452,105.591,-10.437,1
0.826,-0.079,0.250,157.471,104.431,-7.080,1
0.856,-0.027,0.245,168.640,101.807,-2.869,1
0.974,-0.020,0.265,181.824,97.778,2.747,1
0.989,-0.018,0.172,173.828,95.398,7.568,1
1.119,-0.051,0.200,131.409,91.370,13.306,1
1.157,-0.029,0.151,64.514,92.407,18.372,1
1.369,0.064,0.121,12.817,95.154,21.423,1
1.406,0.061,0.175,8.972,99.792,21.057,1
1.184,0.194,0.192,45.044,107.727,21.912,1
1.217,0.275,0.195,75.256,115.479,24.536,1
1.304,0.498,0.176,142.822,126.648,26.001,1
0.913,0.507,0.244,256.592,132.385,12.756,1
0.846,0.857,0.113,343.445,139.587,0.122,1
0.675,0.933,0.033,332.397,146.790,-6.226,1
0.434,1.098,-0.060,294.312,152.405,-18.799,1
0.450,1.184,-0.128,275.024,158.020,-31.982,1
0.425,1.212,-0.241,242.615,163.147,-45.654,1
0.452,1.229,-0.380,201.355,166.687,-56.946,1
0.451,1.227,-0.461,149.780,165.039,-70.435,1
0.435,1.232,-0.472,144.348,158.386,-83.801,1
0.496,1.224,-0.566,183.655,148.010,-94.177,1
0.554,1.215,-0.727,240.601,134.827,-99.304,1
0.691,1.099,-1.093,278.503,125.122,-101.868,1
0.675,1.144,-1.314,270.447,112.000,-104.797,1
0.604,1.226,-1.272,361.633,102.173,-106.628,1
0.550,1.158,-1.335,496.338,98.755,-103.882,1
0.630,0.824,-1.210,521.667,103.699,-95.764,1
0.592,0.516,-1.061,354.797,106.079,-93.872,1
0.862,0.641,-0.918,200.684,102.966,-95.215,1
0.907,0.780,-0.806,220.764,100.098,-93.140,1
0.968,0.574,-0.862,186.707,98.816,-91.980,1
0.882,0.417,-0.940,88.196,96.619,-95.276,1
0.928,0.380,-0.843,31.982,95.886,-101.318,1
0.870,0.398,-0.845,16.907,94.299,-103.210,1
0.990,0.473,-0.825,-3.601,90.393,-95.276,1
1.186,0.658,-0.785,-21.729,79.773,-81.360,1
1.126,0.734,-0.834,37.109,66.223,-68.970,1
0.906,0.855,-0.974,75.012,54.443,-63.721,1
0.644,1.053,-1.084,50.659,38.757,-72.144,1
0.266,1.355,-1.128,93.079,27.527,-87.463,1
0.150,1.387,-1.125,142.151,18.066,-110.840,1
0.139,1.361,-0.958,151.550,10.742,-132.385,1
-0.052,1.179,-0.792,193.909,11.230,-152.832,1
-0.313,0.897,-0.635,209.106,22.461,-164.978,1
-0.087,0.494,-0.445,148.926,36.682,-173.584,1
-0.231,0.271,-0.272,68.970,49.927,-178.284,1
-0.254,0.066,-0.191,73.792,67.688,-178.711,1
-0.360,-0.151,-0.134,61.157,91.370,-174.316,1
-0.292,-0.321,-0.054,94.116,115.356,-160.522,1
-0.145,-0.476,-0.141,96.375,137.390,-135.620,1
-0.105,-0.606,-0.290,33.875,153.748,-106.445,1
-0.258,-0.533,-0.464,11.475,167.847,-72.937,1
-0.513,-0.491,-0.634,78.613,182.129,-31.738,1
-0.718,-0.482,-0.842,72.632,191.711,11.169,1
-0.900,-0.469,-0.953,75.073,197.449,60.364,1
-1.049,-0.575,-1.155,52.795,198.303,111.938,1
-1.213,-0.669,-1.286,-24.719,196.716,175.293,1
-1.406,-0.682,-1.299,-9.583,191.162,230.652,1
-1.552,-0.862,-1.612,4.883,179.382,293.823,1
-1.833,-0.882,-1.819,-55.847,166.016,353.699,1
-2.306,-0.624,-1.881,-111.633,158.630,410.522,1
-2.755,-0.400,-1.915,-78.491,151.428,467.773,1
-3.464,-0.205,-2.056,-70.801,140.564,524.231,1
-4.351,-0.012,-2.032,-110.901,130.493,578.186,1
-5.339,0.167,-2.183,-29.419,113.159,633.972,1
-5.941,0.043,-2.274,69.153,67.627,687.622,1
-6.531,-0.160,-2.291,211.853,-11.047,744.995,1
-7.289,-0.381,-2.382,358.887,-143.494,802.795,1
-8.000,-0.346,-2.059,471.130,-311.768,840.393,1
-8.000,-0.130,-1.623,577.271,-497.314,836.853,1
-8.000,0.029,-1.001,547.852,-652.466,793.457,1
-8.000,0.272,-0.408,465.515,-772.400,733.643,1
-8.000,0.625,0.398,466.675,-867.615,664.734,1
-8.000,1.096,1.100,477.478,-948.791,583.679,1
-8.000,1.225,1.492,557.983,-1009.155,502.624,1
-8.000,0.893,1.613,772.156,-1034.912,362.854,1
-8.000,0.668,1.822,1073.181,-1022.095,136.169,1
-8.000,0.747,1.444,1276.184,-954.712,-175.659,1
-8.000,0.677,2.009,1291.077,-813.110,-441.711,1
-8.000,-0.300,2.283,1067.322,-606.873,-639.221,1
-7.422,-0.527,1.657,616.455,-461.243,-708.679,1
-6.390,-0.496,1.448,430.908,-352.478,-716.736,1
-6.614,-0.908,1.485,429.504,-262.207,-707.519,1
-5.745,-1.231,1.074,450.073,-175.659,-691.345,1
-4.886,-1.845,0.973,421.631,-77.759,-650.391,1
-4.682,-1.937,0.857,269.165,-4.395,-584.961,1
-3.692,-2.338,1.026,210.083,49.561,-512.451,1
-3.029,-2.547,0.959,194.763,88.379,-440.124,1
-2.733,-2.326,1.156,244.080,111.328,-368.225,1
-2.602,-2.371,1.021,321.472,136.292,-292.603,1
-2.437,-2.344,0.842,314.331,160.278,-219.360,1
-1.986,-2.187,0.849,243.713,175.903,-140.686,1
-1.583,-1.965,0.916,180.908,177.979,-72.510,1
-1.251,-1.667,0.881,155.579,169.800,-15.137,1
-0.993,-1.415,0.875,212.463,156.311,32.837,1
-0.985,-1.271,0.691,246.582,138.367,77.637,1
-0.872,-1.072,0.604,222.961,121.338,114.563,1
-0.832,-0.916,0.578,183.899,103.638,148.193,1
-0.782,-0.794,0.589,161.194,88.989,172.729,1
-0.823,-0.739,0.565,170.166,76.172,191.284,1
-0.750,-0.740,0.541,195.923,61.646,206.665,1
-0.642,-0.758,0.477,195.984,47.607,220.642,1
-0.446,-0.727,0.468,184.753,33.386,233.704,1
-0.400,-0.690,0.480,161.377,22.217,242.310,1
-0.351,-0.661,0.528,138.123,15.625,246.521,1
-0.381,-0.639,0.572,118.896,13.977,246.765,1
-0.373,-0.615,0.610,101.868,16.479,243.286,1
-0.262,-0.533,0.677,90.942,21.362,237.305,1
-0.008,-0.461,0.731,91.919,28.381,231.262,1
0.077,-0.428,0.758,94.299,37.720,224.792,1
0.185,-0.359,0.821,88.806,44.556,218.567,1
0.302,-0.269,0.852,97.717,50.110,213.867,1
0.414,-0.192,0.892,118.164,54.016,208.923,1
0.512,-0.180,0.858,115.784,57.983,201.355,1
0.624,-0.132,0.829,92.468,61.646,192.444,1
0.729,-0.041,0.759,92.834,65.063,184.204,1
0.776,0.020,0.708,112.549,67.627,175.964,1
0.816,0.084,0.649,148.560,69.946,168.884,1
0.760,0.055,0.530,154.602,71.716,159.973,1
0.615,0.025,0.431,89.233,74.402,148.743,1
0.562,0.055,0.366,-1.587,75.745,139.404,1
0.950,0.107,0.173,-32.593,79.102,130.676,1
1.093,0.244,0.106,19.653,83.923,127.014,1
0.906,0.231,-0.035,63.354,86.121,126.099,1
0.816,0.213,0.022,50.659,83.435,124.146,1
0.862,0.349,0.076,40.039,81.116,120.666,1
0.935,0.529,0.147,84.290,77.820,117.249,1
0.883,0.781,0.171,172.729,73.853,107.971,1
0.958,0.886,0.145,222.168,69.946,97.717,1
0.958,1.125,0.202,235.229,65.796,81.421,1
0.979,1.474,0.281,255.188,65.857,62.500,1
0.974,1.675,0.315,255.371,68.237,42.542,1
0.948,1.759,0.375,244.385,75.012,19.043,1
0.917,1.616,0.369,187.256,84.534,-5.432,1
0.950,1.608,0.401,162.354,95.520,-29.236,1
0.936,1.488,0.396,205.200,108.154,-49.988,1
0.974,1.309,0.271,208.191,120.789,-64.270,1
0.992,1.110,0.219,202.515,131.165,-75.134,1
0.855,0.957,0.119,184.387,140.442,-84.290,1
0.787,0.867,0.045,137.329,147.400,-92.041,1
0.691,0.832,-0.047,111.389,152.039,-99.731,1
0.586,0.809,-0.139,119.751,154.358,-105.835,1
0.539,0.772,-0.253,135.498,156.555,-111.633,1
0.414,0.673,-0.306,117.493,158.630,-116.638,1
0.359,0.652,-0.399,87.219,160.217,-122.620,1
0.396,0.635,-0.522,61.157,161.133,-129.578,1
0.342,0.636,-0.640,55.908,162.292,-135.559,1
0.188,0.643,-0.666,85.266,163.696,-141.235,1
0.022,0.578,-0.749,99.609,166.321,-146.667,1
-0.070,0.531,-0.849,70.374,168.091,-152.954,1
-0.218,0.544,-0.920,59.937,168.701,-160.095,1
-0.337,0.484,-0.978,63.232,166.809,-166.504,1
-0.495,0.329,-1.027,63.660,166.138,-170.471,1
-0.662,0.161,-1.061,67.078,166.992,-172.302,1
-0.819,0.013,-1.102,81.177,168.396,-170.410,1
-0.941,-0.146,-1.151,88.379,169.800,-164.856,1
-1.068,-0.356,-1.183,84.167,170.410,-154.602,1
-1.213,-0.442,-1.292,79.102,169.800,-136.475,1
-1.245,-0.643,-1.369,82.214,169.006,-108.154,1
-1.297,-0.842,-1.579,46.692,165.649,-70.984,1
-1.407,-1.144,-1.605,8.179,158.569,-24.353,1
-1.470,-1.239,-1.779,10.620,148.376,27.466,1
-1.597,-1.400,-1.801,44.250,133.362,95.703,1
-1.830,-1.681,-1.879,63.049,114.502,175.293,1
-2.082,-1.826,-2.065,36.255,92.773,271.118,1
-2.432,-1.931,-2.114,74.036,66.589,370.178,1
-3.093,-1.903,-2.369,85.205,34.180,463.135,1
-4.000,-1.754,-2.477,122.009,-10.193,562.927,1
-4.902,-1.812,-2.421,151.489,-65.002,650.391,1
-6.408,-1.733,-2.533,188.049,-135.925,739.380,1
-7.906,-1.589,-2.398,223.877,-218.262,819.031,1
-8.000,-1.232,-2.150,274.963,-312.683,883.911,1
-8.000,-0.812,-1.860,312.073,-418.884,925.537,1
-8.000,-0.335,-1.260,376.770,-550.049,935.974,1
-8.000,0.157,-0.630,417.786,-672.607,905.029,1
-8.000,0.645,0.134,371.643,-813.049,834.351,1
-8.000,1.323,1.637,494.263,-936.096,759.582,1
-8.000,1.912,1.772,853.943,-1047.424,648.560,1
-8.000,2.499,1.274,1601.501,-1095.459,234.070,1
-8.000,1.816,1.517,1535.095,-1021.118,-239.929,1
-8.000,0.433,-0.487,1560.058,-573.364,-535.339,1
-8.000,-1.735,1.838,533.508,-442.566,-720.764,1
-5.279,0.208,1.332,722.229,-309.082,-717.041,1
-7.146,-0.811,0.933,396.728,-179.749,-707.458,1
-6.480,-0.491,1.209,194.153,-116.943,-665.100,1
-5.071,-1.469,1.265,226.746,-46.265,-621.643,1
-4.072,-1.781,1.479,181.946,15.869,-573.425,1
-3.306,-1.750,1.600,310.486,87.524,-502.563,1
-3.600,-2.049,1.412,265.015,153.503,-424.988,1
-3.243,-1.816,1.437,204.102,190.857,-361.084,1
-2.809,-1.825,1.234,185.730,217.468,-291.748,1
-2.196,-1.554,1.207,177.856,231.201,-230.652,1
-2.066,-1.434,1.185,194.824,239.868,-169.373,1
-1.610,-1.532,1.012,151.367,248.474,-112.915,1
-1.335,-1.451,1.063,129.700,253.662,-64.392,1
-0.892,-1.233,0.892,122.803,248.657,-20.691,1
-0.866,-0.995,0.835,132.874,238.525,18.494,1
-0.837,-0.890,0.716,130.249,227.600,49.133,1
-0.703,-0.696,0.681,108.398,215.454,71.655,1
-0.516,-0.558,0.667,108.032,202.759,89.905,1
-0.354,-0.414,0.667,119.141,190.613,104.187,1
-0.235,-0.257,0.681,138.123,178.650,115.662,1
-0.299,-0.138,0.658,150.574,170.227,123.108,1
-0.284,-0.063,0.611,152.832,163.879,126.892,1
-0.177,-0.050,0.569,139.709,157.410,126.526,1
0.027,-0.010,0.513,124.146,151.794,123.901,1
0.237,0.047,0.467,118.896,146.606,119.568,1
0.332,0.082,0.398,122.559,142.883,114.746,1
0.378,0.083,0.355,113.953,138.855,108.643,1
0.429,0.083,0.297,96.863,132.629,100.464,1
0.587,0.100,0.249,104.919,126.709,90.332,1
0.724,0.176,0.159,152.161,121.826,83.130,1
0.838,0.212,0.120,201.355,117.493,80.139,1
0.783,0.214,0.059,233.093,111.328,78.003,1
0.686,0.214,0.077,240.051,105.469,76.660,1
0.821,0.312,0.042,243.225,99.792,76.782,1
0.811,0.201,-0.131,237.122,94.666,76.111,1
0.873,0.247,-0.218,181.396,88.440,76.660,1
0.888,0.300,-0.242,101.746,85.205,73.608,1
0.788,0.403,-0.210,77.148,83.008,68.176,1
0.879,0.425,-0.283,89.966,81.665,62.378,1
0.890,0.504,-0.403,112.000,78.796,54.871,1
0.978,0.594,-0.434,135.254,73.303,45.410,1
1.084,0.704,-0.541,166.199,67.627,38.818,1
1.098,0.814,-0.542,203.064,60.425,31.860,1
1.009,0.845,-0.621,216.492,55.481,22.522,1
0.950,0.905,-0.679,209.167,51.636,10.376,1
0.938,0.954,-0.677,218.811,47.791,-5.432,1
0.968,0.933,-0.668,225.159,44.006,-20.752,1
0.980,0.850,-0.622,227.295,42.358,-30.640,1
1.033,0.793,-0.572,217.102,40.833,-38.757,1
1.067,0.740,-0.590,197.021,39.429,-43.701,1
1.073,0.679,-0.622,148.621,37.048,-48.462,1
1.112,0.641,-0.562,138.672,35.950,-51.575,1
1.060,0.731,-0.570,168.701,35.889,-56.152,1
1.000,0.601,-0.562,177.246,35.767,-61.646,1
1.017,0.537,-0.554,161.194,37.354,-67.078,1
0.961,0.604,-0.519,133.667,37.170,-73.975,1
0.879,0.664,-0.526,122.864,35.645,-80.261,1
0.874,0.687,-0.556,131.042,31.616,-87.769,1
0.912,0.675,-0.579,129.517,27.222,-93.018,1
0.896,0.634,-0.634,109.741,25.024,-98.328,1
0.874,0.598,-0.591,81.665,22.522,-102.600,1
0.880,0.538,-0.544,44.067,19.226,-106.873,1
0.893,0.504,-0.594,15.320,16.602,-110.474,1
0.807,0.436,-0.653,-2.136,15.015,-114.441,1
0.702,0.382,-0.684,11.047,14.038,-118.164,1
0.646,0.317,-0.688,56.946,11.292,-120.972,1
0.508,0.173,-0.691,82.153,9.277,-122.559,1
0.434,0.041,-0.723,66.711,5.615,-124.207,1
0.438,-0.007,-0.727,71.167,0.488,-123.596,1
0.449,-0.145,-0.758,95.825,-3.723,-120.605,1
0.475,-0.271,-0.769,128.479,-6.958,-115.601,1
0.506,-0.437,-0.784,130.737,-8.240,-109.375,1
0.465,-0.572,-0.770,88.196,-8.972,-101.501,1
0.390,-0.629,-0.682,80.811,-10.376,-92.346,1
0.301,-0.693,-0.646,101.257,-10.254,-82.397,1
0.165,-0.809,-0.582,105.530,-7.874,-70.251,1
0.086,-0.948,-0.488,109.192,-3.540,-56.091,1
-0.108,-1.060,-0.413,96.558,3.967,-37.598,1
-0.343,-1.111,-0.254,91.064,13.794,-17.090,1
-0.504,-1.223,-0.181,99.792,30.579,11.230,1
-0.610,-1.458,-0.219,73.059,51.086,45.959,1
-0.750,-1.608,-0.353,42.725,73.669,88.501,1
-1.009,-1.689,-0.365,-7.141,100.159,144.409,1
-1.544,-1.703,-0.385,-23.865,124.817,200.928,1
-2.311,-1.797,-0.552,-36.743,150.269,270.630,1
-2.991,-1.758,-0.801,-49.622,174.255,340.637,1
-3.837,-1.616,-0.860,-10.315,189.331,421.143,1
-4.710,-1.568,-1.075,11.230,189.392,520.203,1
-6.033,-1.448,-1.061,90.637,170.532,626.160,1
-7.269,-1.254,-1.371,195.374,119.507,746.216,1
-8.000,-1.127,-1.437,306.213,14.221,880.005,1
-8.000,-0.694,-1.285,454.834,-137.146,987.060,1
-8.000,-0.223,-1.032,567.139,-336.609,1049.805,1
-8.000,0.238,-0.641,564.941,-542.908,1051.086,1
-8.000,1.067,0.774,536.743,-735.901,1005.493,1
-8.000,2.623,1.204,813.171,-910.339,927.612,1
-8.000,2.432,1.270,1559.753,-1077.148,639.648,1
-8.000,2.272,1.686,1673.096,-1157.471,114.929,1
-8.000,1.982,1.121,1463.318,-1034.912,-315.918,1
-8.000,1.044,1.033,991.333,-789.673,-587.952,1
-8.000,0.650,0.988,775.391,-582.642,-702.576,1
-8.000,0.447,0.660,609.558,-411.438,-746.399,1
-8.000,0.157,0.753,492.249,-270.447,-751.953,1
-7.360,0.015,0.885,358.643,-153.137,-722.107,1
-6.744,-0.375,0.969,230.530,-71.960,-673.706,1
-5.988,-0.739,1.011,165.588,-9.888,-615.662,1
-4.646,-1.044,0.849,188.782,50.415,-546.997,1
-3.364,-1.447,0.556,210.937,98.938,-478.760,1
-2.858,-1.290,0.557,179.382,133.179,-399.292,1
-2.680,-1.095,0.585,175.293,155.273,-324.829,1
-2.160,-1.147,0.534,150.085,169.739,-255.737,1
-1.640,-1.137,0.463,126.709,176.880,-193.298,1
-1.256,-1.068,0.406,129.211,181.213,-133.240,1
-0.988,-0.947,0.395,129.272,180.420,-87.280,1
-0.792,-0.863,0.310,115.295,177.612,-46.997,1
-0.598,-0.743,0.339,96.313,171.631,-10.864,1
-0.526,-0.583,0.334,94.727,163.757,15.259,1
-0.434,-0.465,0.284,110.596,154.663,36.804,1
-0.280,-0.369,0.258,121.521,144.775,55.542,1
-0.149,-0.232,0.245,132.141,134.338,71.228,1
-0.022,-0.145,0.239,153.992,123.596,82.825,1
0.115,-0.055,0.209,161.865,114.990,91.431,1
0.215,0.011,0.195,150.818,109.985,96.497,1
0.381,0.047,0.189,130.798,105.957,97.534,1
0.497,0.072,0.182,120.544,103.149,94.604,1
0.631,0.152,0.198,122.437,101.379,91.370,1
0.725,0.219,0.227,138.550,99.243,87.952,1
0.827,0.258,0.237,155.212,95.825,83.435,1
0.904,0.309,0.187,167.297,94.849,80.627,1
0.981,0.345,0.164,175.171,94.971,77.087,1
0.974,0.381,0.101,169.556,96.191,72.754,1
0.958,0.456,0.029,159.790,97.168,68.848,1
1.019,0.542,0.010,170.593,98.267,63.354,1
1.041,0.663,0.009,190.430,98.816,60.547,1
1.027,0.731,-0.030,196.960,98.572,58.105,1
0.990,0.826,-0.094,203.918,97.961,56.519,1
1.021,0.922,-0.101,213.501,95.520,53.345,1
1.091,1.059,-0.163,233.398,92.773,50.171,1
1.052,1.173,-0.269,241.577,91.736,43.518,1
0.918,1.330,-0.216,233.459,91.248,32.715,1
0.825,1.390,-0.219,230.041,91.125,20.813,1
0.866,1.372,-0.137,223.022,89.905,7.690,1
0.962,1.437,-0.187,222.107,89.478,-5.737,1
0.955,1.614,-0.151,231.079,90.820,-18.677,1
0.865,1.544,-0.132,233.582,95.093,-33.325,1
0.787,1.555,-0.123,221.191,99.609,-47.913,1
0.727,1.480,-0.183,202.515,104.248,-62.317,1
0.679,1.443,-0.279,183.289,107.666,-77.393,1
0.634,1.348,-0.265,173.279,110.840,-92.224,1
0.644,1.146,-0.319,178.345,114.075,-103.027,1
0.689,1.018,-0.381,176.025,115.723,-108.643,1
0.650,0.881,-0.416,150.574,112.061,-111.633,1
0.625,0.821,-0.516,131.287,101.990,-110.901,1
0.583,0.729,-0.658,142.212,89.722,-106.995,1
0.494,0.628,-0.812,172.913,77.942,-101.257,1
0.458,0.584,-0.911,230.225,67.139,-92.712,1
0.493,0.468,-1.027,252.869,58.228,-83.252,1
0.688,0.385,-1.140,212.708,47.058,-74.768,1
0.916,0.343,-1.154,167.786,35.767,-66.040,1
1.033,0.309,-1.006,155.396,22.888,-58.105,1
1.135,0.312,-0.930,160.339,11.597,-49.744,1
1.219,0.347,-0.856,159.119,1.648,-44.495,1
1.230,0.435,-0.740,154.175,-8.667,-40.649,1
1.100,0.506,-0.646,135.925,-18.127,-40.405,1
1.038,0.588,-0.536,124.451,-28.137,-42.664,1
1.012,0.674,-0.451,128.906,-34.241,-46.021,1
0.958,0.617,-0.428,95.520,-34.363,-48.706,1
0.785,0.721,-0.323,90.149,-32.410,-61.401,1
0.800,0.712,-0.204,131.531,-24.963,-78.918,1
0.764,0.599,-0.176,110.840,-14.282,-97.961,1
0.658,0.474,-0.088,93.811,-4.639,-114.929,1
0.550,0.210,-0.062,75.989,10.315,-131.897,1
0.445,0.198,-0.048,70.679,31.372,-141.785,1
0.312,0.114,0.015,57.190,53.040,-145.996,1
0.232,0.087,0.074,87.158,75.073,-146.301,1
0.190,-0.038,0.003,121.887,100.098,-139.648,1
0.019,-0.227,-0.014,67.017,122.681,-128.296,1
-0.162,-0.233,0.060,11.230,136.475,-114.807,1
-0.338,-0.303,0.077,37.476,147.400,-94.421,1
-0.463,-0.542,-0.102,79.468,159.058,-69.519,1
-0.883,-0.878,-0.371,62.195,176.147,-40.955,1
-1.083,-0.981,-0.540,14.954,194.763,-14.954,1
-1.149,-1.156,-0.512,-19.897,211.853,21.973,1
-1.215,-1.185,-0.589,-25.574,220.886,61.890,1
-1.486,-1.234,-0.698,-17.944,228.516,112.061,1
-1.761,-1.224,-0.872,19.470,234.070,174.438,1
-2.122,-1.196,-1.029,84.106,234.009,246.399,1
-2.455,-1.064,-1.204,144.531,219.299,326.416,1
-3.022,-1.007,-1.312,180.420,185.669,416.565,1
-3.372,-0.759,-1.370,206.665,139.587,511.414,1
-3.946,-0.399,-1.387,365.906,57.434,623.901,1
-4.824,-0.263,-1.587,512.939,-60.059,713.806,1
-6.211,-0.392,-1.722,500.915,-245.361,792.602,1
-7.979,-0.472,-1.585,408.874,-397.095,834.106,1
-8.000,-0.417,-1.345,369.812,-521.729,855.408,1
-8.000,-0.103,-1.041,378.052,-645.447,858.520,1
-8.000,0.326,-0.717,438.171,-761.597,835.388,1
-8.000,0.687,-0.246,502.441,-859.802,785.034,1
-8.000,1.285,0.655,605.652,-949.219,697.327,1
-8.000,1.876,1.653,830.505,-1034.485,536.072,1
-8.000,2.225,1.074,1051.819,-1082.397,287.292,1
-8.000,1.846,0.627,1368.286,-1017.395,-34.363,1
-8.000,1.110,0.913,1062.683,-867.737,-341.980,1
-8.000,0.859,1.326,872.803,-693.176,-506.897,1
-7.790,0.285,0.839,626.526,-520.508,-589.783,1
-6.706,0.164,1.050,408.447,-394.653,-607.544,1
-6.150,0.011,1.211,392.090,-296.997,-599.976,1
-5.370,-0.517,1.192,348.267,-190.735,-588.745,1
-4.731,-0.830,1.171,229.187,-111.389,-569.885,1
-4.101,-0.968,1.287,188.843,-44.434,-535.400,1
-3.522,-1.009,1.237,213.684,17.578,-492.615,1
-3.105,-1.122,1.127,199.829,68.787,-447.327,1
-2.735,-1.202,0.979,155.640,112.122,-399.292,1
-2.247,-1.095,0.908,145.630,147.217,-343.445,1
-1.841,-1.014,0.817,157.288,172.852,-286.682,1
-1.498,-0.904,0.698,130.493,186.829,-238.525,1
-1.333,-0.793,0.652,93.933,192.139,-195.740,1
-1.277,-0.786,0.583,83.923,195.312,-156.921,1
-1.066,-0.785,0.504,78.369,197.998,-126.831,1
-0.807,-0.707,0.406,78.491,198.914,-97.168,1
-0.594,-0.552,0.372,99.121,197.998,-69.641,1
-0.434,-0.438,0.273,89.722,193.542,-45.776,1
-0.259,-0.386,0.216,89.844,186.829,-25.818,1
-0.107,-0.322,0.241,109.375,180.237,-8.667,1
-0.024,-0.252,0.135,108.765,170.410,5.127,1
0.156,-0.249,0.117,127.686,161.133,16.602,1
0.266,-0.198,0.064,137.939,153.076,27.100,1
0.375,-0.149,0.026,122.681,145.691,34.180,1
0.459,-0.047,0.003,120.178,139.709,40.344,1
0.552,-0.054,-0.033,123.657,133.850,42.542,1
0.644,-0.009,-0.075,140.930,129.211,44.678,1
0.807,0.037,-0.121,151.489,125.366,45.593,1
0.938,0.078,-0.219,144.653,121.399,47.180,1
0.993,0.050,-0.253,119.934,116.821,47.424,1
0.996,0.055,-0.257,101.746,112.366,45.715,1
1.021,0.119,-0.282,113.037,110.168,43.518,1
1.026,0.155,-0.362,145.813,110.901,42.969,1
0.967,0.172,-0.421,174.683,113.586,43.701,1
0.847,0.174,-0.486,185.120,114.685,43.030,1
0.762,0.216,-0.447,177.490,111.633,40.283,1
0.838,0.293,-0.431,167.480,108.459,40.344,1
0.927,0.335,-0.462,168.335,106.506,42.236,1
0.896,0.401,-0.505,169.128,106.018,46.143,1
0.752,0.467,-0.540,187.012,103.333,48.035,1
0.618,0.521,-0.631,237.305,100.403,47.363,1
0.635,0.510,-0.664,260.986,96.619,45.532,1
0.677,0.593,-0.664,248.352,91.858,44.922,1
0.701,0.680,-0.681,210.510,86.670,43.579,1
0.734,0.810,-0.653,164.246,81.055,38.940,1
0.800,0.993,-0.705,159.546,75.134,33.020,1
1.003,1.174,-0.788,172.119,67.932,26.550,1
1.175,1.406,-0.848,179.016,58.044,17.883,1
1.200,1.562,-0.919,156.860,47.424,6.714,1
1.154,1.605,-0.997,114.990,37.231,-8.789,1
0.912,1.791,-1.029,137.939,31.677,-28.137,1
0.921,1.789,-0.964,152.039,25.940,-53.467,1
0.800,2.058,-0.763,115.845,19.958,-72.998,1
0.658,1.876,-0.720,108.582,15.198,-97.412,1
0.681,1.779,-0.501,118.164,13.000,-117.249,1
0.528,1.322,-0.478,125.000,12.451,-137.085,1
0.501,1.154,-0.405,129.517,13.306,-155.029,1
0.537,0.775,-0.463,102.539,13.672,-166.626,1
0.465,0.809,-0.294,113.953,15.564,-176.941,1
0.415,0.647,-0.176,142.822,21.423,-182.129,1
0.295,0.519,-0.152,157.410,29.968,-184.021,1
0.181,0.363,-0.127,158.997,39.001,-182.190,1
0.072,0.180,-0.118,150.330,48.218,-177.917,1
-0.023,0.084,-0.120,135.925,58.167,-172.180,1
-0.090,0.028,-0.092,138.062,69.092,-163.025,1
-0.136,0.005,-0.089,178.589,81.726,-149.719,1
-0.167,-0.113,-0.121,228.577,98.999,-131.042,1
-0.166,-0.328,-0.146,178.345,114.807,-108.459,1
-0.241,-0.378,-0.215,120.178,129.517,-86.121,1
-0.323,-0.477,-0.313,73.486,140.869,-62.805,1
-0.399,-0.687,-0.434,31.555,151.062,-40.466,1
-0.450,-0.706,-0.526,20.874,160.889,-14.282,1
-0.652,-0.816,-0.622,6.470,169.678,17.273,1
-0.717,-0.896,-0.742,18.677,178.162,51.147,1
-0.797,-0.947,-0.846,24.353,183.899,92.773,1
-0.928,-0.938,-0.923,58.044,185.852,136.353,1
-1.082,-1.043,-0.982,120.361,182.129,189.758,1
-1.222,-1.054,-1.158,185.852,166.687,245.178,1
-1.463,-1.134,-1.376,229.065,132.935,310.425,1
-1.637,-1.301,-1.711,235.718,87.708,375.183,1
-2.046,-1.522,-2.044,230.896,25.940,450.439,1
-2.656,-1.481,-2.089,289.490,-42.053,522.766,1
-3.509,-1.340,-2.005,355.774,-128.906,594.299,1
-4.531,-1.080,-1.896,371.216,-220.093,650.207,1
-5.666,-0.763,-1.791,281.067,-300.964,687.317,1
-7.280,-0.315,-1.632,151.978,-358.765,714.355,1
-8.000,0.317,-1.208,132.141,-408.081,737.488,1
-8.000,1.368,-0.630,272.888,-469.665,740.112,1
-8.000,2.171,-0.232,542.969,-559.753,699.097,1
-8.000,2.732,0.009,817.261,-669.311,600.586,1
-8.000,2.327,-0.141,1000.061,-744.263,418.091,1
-8.000,1.698,1.042,787.109,-741.638,164.246,1
-7.683,2.145,1.399,711.792,-689.758,-11.902,1
-6.659,1.830,1.396,802.002,-595.764,-193.237,1
-5.259,1.475,1.178,669.678,-476.868,-316.101,1
-4.552,1.045,1.093,595.703,-380.066,-380.920,1
-3.923,0.565,1.026,354.248,-281.616,-420.105,1
-3.617,0.481,1.126,206.238,-212.280,-429.932,1
-3.379,0.344,1.143,163.879,-160.767,-430.481,1
-2.992,0.259,1.197,109.558,-115.356,-424.377,1
-2.713,0.255,1.260,105.896,-75.623,-407.715,1
-2.434,0.076,1.174,125.183,-42.297,-389.770,1
-2.041,-0.130,1.101,112.854,-7.935,-366.943,1
-1.761,-0.200,0.997,91.858,20.081,-343.079,1
-1.438,-0.228,0.866,73.792,44.189,-318.481,1
-1.212,-0.220,0.849,61.401,64.392,-291.321,1
-1.073,-0.199,0.833,74.768,80.566,-265.808,1
-0.941,-0.149,0.780,83.801,91.858,-242.310,1
-0.760,-0.123,0.722,85.144,100.891,-217.834,1
-0.493,-0.175,0.679,76.538,106.812,-196.472,1
-0.317,-0.140,0.588,50.781,110.352,-174.194,1
-0.198,-0.115,0.543,66.589,114.990,-155.396,1
-0.100,-0.105,0.485,86.121,119.507,-136.841,1
