ax,ay,az,gx,gy,gz,label
-0.825,0.934,-0.330,2.319,13.672,-6.531,1
-0.859,0.977,-0.363,11.536,11.047,-10.986,1
-0.856,1.032,-0.379,-2.136,8.240,-18.005,1
-0.886,1.111,-0.369,0.916,5.432,-26.367,1
-0.891,1.178,-0.377,13.611,2.930,-36.865,1
-0.902,1.224,-0.383,24.597,0.549,-48.706,1
-0.890,1.229,-0.400,23.254,-0.671,-61.584,1
-0.882,1.220,-0.423,-0.427,-1.343,-73.425,1
-0.859,1.244,-0.408,-20.691,-1.953,-85.632,1
-0.870,1.268,-0.383,-19.226,-2.441,-95.886,1
-0.891,1.286,-0.370,-12.451,-3.601,-104.553,1
-0.928,1.314,-0.372,-11.353,-4.822,-113.403,1
-0.997,1.320,-0.426,-35.461,-5.676,-123.596,1
-1.007,1.411,-0.492,-39.795,-5.554,-133.667,1
-1.086,1.348,-0.420,-43.030,-6.287,-142.883,1
-1.130,1.308,-0.407,-31.677,-6.592,-153.137,1
-1.097,1.238,-0.392,-23.132,-6.531,-164.307,1
-1.101,1.155,-0.404,-27.222,-7.324,-175.354,1
-1.099,1.082,-0.359,-40.283,-9.277,-186.829,1
-1.039,1.002,-0.304,-56.274,-13.977,-196.289,1
-1.134,0.975,-0.280,-56.641,-19.409,-202.454,1
-1.072,0.916,-0.189,-34.851,-23.560,-206.909,1
-1.031,0.834,-0.124,-15.625,-27.466,-208.435,1
-0.958,0.793,-0.079,17.212,-28.931,-207.031,1
-0.883,0.779,-0.074,53.223,-27.344,-202.820,1
-0.818,0.724,-0.061,68.726,-24.658,-198.486,1
-0.723,0.725,-0.053,58.960,-21.667,-192.322,1
-0.488,0.484,0.191,24.109,-19.958,-188.049,1
-0.415,0.578,0.195,33.569,-15.381,-180.176,1
-0.131,0.317,0.224,38.269,-11.902,-170.227,1
-0.004,0.543,0.241,53.650,-6.042,-157.166,1
0.173,0.389,0.165,68.115,-1.648,-143.982,1
0.280,0.138,0.156,77.698,2.136,-135.193,1
0.254,0.416,-0.846,67.627,15.320,-127.197,1
0.535,-0.488,-0.898,10.376,38.513,-125.427,1
0.492,0.387,-0.371,38.818,48.035,-123.962,1
0.396,0.371,-0.155,94.299,50.110,-111.694,1
0.231,0.493,-0.140,126.343,54.687,-84.717,1
0.735,0.492,-0.276,134.766,62.439,-54.993,1
1.120,0.563,-0.209,77.148,66.772,-30.457,1
1.644,0.364,-0.269,-20.996,64.758,-11.902,1
1.354,0.148,-0.173,-94.299,57.312,-17.212,1
0.611,0.351,-0.356,-67.688,53.528,-27.771,1
0.165,0.632,-0.432,22.888,59.448,-24.719,1
0.237,0.564,-0.273,37.720,54.810,-20.508,1
0.284,0.546,-0.215,8.972,47.974,-24.902,1
0.417,0.601,-0.252,24.597,43.701,-28.809,1
0.421,0.698,-0.262,69.580,40.955,-30.518,1
0.443,0.666,-0.324,60.730,40.466,-28.870,1
0.457,0.564,-0.316,-10.071,39.185,-29.541,1
0.451,0.620,-0.272,-76.416,36.682,-31.799,1
0.450,0.706,-0.287,-54.199,34.363,-35.400,1
0.439,0.763,-0.334,7.690,32.349,-36.438,1
0.483,0.729,-0.405,32.776,30.273,-33.325,1
0.525,0.743,-0.421,51.880,27.222,-29.053,1
0.504,0.739,-0.446,83.374,24.902,-24.780,1
0.444,0.726,-0.434,86.975,22.156,-22.034,1
0.465,0.693,-0.368,67.810,17.883,-18.738,1
0.515,0.639,-0.335,40.894,14.587,-14.587,1
0.483,0.625,-0.348,9.766,11.353,-9.705,1
0.457,0.597,-0.346,5.249,10.498,-5.188,1
0.471,0.565,-0.350,6.653,10.193,-1.404,1
0.499,0.568,-0.381,9.216,10.132,2.563,1
0.488,0.561,-0.311,13.977,10.803,6.470,1
0.488,0.613,-0.309,17.761,10.620,9.949,1
0.467,0.642,-0.258,21.484,10.132,12.207,1
0.575,0.741,-0.158,30.212,7.874,14.221,1
0.707,0.800,-0.150,29.297,3.479,15.137,1
0.770,0.824,-0.207,12.695,0.732,15.930,1
0.735,0.879,-0.211,14.771,1.404,16.296,1
0.699,0.936,-0.189,39.795,3.418,16.724,1
0.628,0.938,-0.171,53.406,5.249,15.625,1
0.560,0.928,-0.098,51.086,6.653,13.123,1
0.502,0.933,-0.142,47.791,8.057,9.888,1
0.459,0.962,-0.048,44.495,7.874,6.653,1
0.450,1.068,0.039,50.171,5.859,3.479,1
0.483,0.988,0.024,40.100,3.967,-0.488,1
0.514,0.960,-0.015,15.930,3.845,-4.395,1
0.530,0.992,-0.021,25.391,6.042,-7.019,1
0.504,1.003,-0.013,45.410,9.277,-9.277,1
0.496,0.986,-0.003,53.101,12.817,-11.963,1
0.513,0.962,0.001,49.255,16.296,-14.832,1
0.540,0.920,0.018,39.856,19.043,-16.724,1
0.533,0.882,-0.023,19.287,20.325,-17.395,1
0.452,0.897,0.013,8.972,21.240,-17.578,1
0.435,0.870,-0.016,12.451,21.667,-17.517,1
0.456,0.821,-0.064,11.047,23.010,-17.212,1
0.471,0.790,-0.076,6.592,24.902,-15.503,1
0.453,0.766,-0.099,-0.305,27.161,-13.306,1
0.412,0.761,-0.114,-3.723,29.419,-10.681,1
0.367,0.742,-0.142,-8.667,31.555,-7.629,1
0.314,0.705,-0.185,-20.020,34.302,-3.479,1
0.301,0.677,-0.213,-36.804,37.537,2.869,1
0.330,0.655,-0.240,-53.345,39.978,9.888,1
0.325,0.636,-0.278,-62.988,41.321,16.663,1
0.303,0.636,-0.314,-56.885,41.382,22.522,1
0.293,0.600,-0.358,-42.175,40.039,27.710,1
0.288,0.575,-0.381,-31.799,37.231,31.433,1
0.285,0.545,-0.444,-25.635,32.837,35.095,1
0.339,0.494,-0.497,-28.198,27.405,38.940,1
0.365,0.550,-0.606,-29.419,20.325,44.373,1
0.408,0.652,-0.585,-24.292,13.306,49.316,1
0.447,0.624,-0.621,-19.043,5.188,54.138,1
0.467,0.806,-0.708,-6.226,-4.639,59.875,1
0.466,0.791,-0.735,-5.859,-14.404,62.988,1
0.484,0.888,-0.681,-23.437,-23.804,63.477,1
0.507,0.994,-0.684,-26.978,-33.203,61.829,1
0.531,1.135,-0.641,-15.503,-43.274,57.312,1
0.526,1.257,-0.605,7.812,-52.490,51.270,1
0.562,1.372,-0.579,9.766,-60.608,43.396,1
0.628,1.604,-0.471,-4.700,-68.054,33.264,1
0.599,1.865,-0.354,-12.939,-74.646,17.639,1
0.588,2.004,-0.205,9.460,-78.796,-4.700,1
0.653,2.083,-0.029,46.875,-79.773,-30.579,1
0.678,2.053,0.168,50.049,-76.599,-56.763,1
0.506,2.023,0.285,21.545,-68.542,-81.604,1
0.721,1.912,0.458,-34.546,-58.472,-105.408,1
0.512,1.926,0.866,-7.080,-46.265,-123.840,1
0.502,1.643,0.716,0.488,-30.823,-143.555,1
0.463,1.474,0.852,-13.916,-14.221,-159.546,1
0.405,1.352,0.939,-6.470,5.493,-173.157,1
0.350,1.005,1.029,-1.221,25.757,-183.289,1
0.233,0.878,1.052,12.939,52.002,-191.101,1
0.163,0.645,1.042,37.842,81.543,-195.923,1
0.118,0.423,0.979,56.030,107.849,-195.801,1
-0.012,0.206,0.833,68.481,133.118,-191.956,1
-0.081,0.068,0.651,72.815,155.701,-184.082,1
-0.153,-0.040,0.481,74.951,174.499,-172.607,1
-0.287,-0.186,0.349,80.322,193.604,-157.715,1
-0.353,-0.294,0.212,76.843,210.571,-139.954,1
-0.386,-0.435,0.042,49.866,223.572,-122.131,1
-0.568,-0.563,-0.047,6.104,233.826,-101.624,1
-0.746,-0.614,-0.210,-25.208,239.441,-83.374,1
-0.985,-0.622,-0.357,-24.719,241.882,-60.669,1
-1.205,-0.759,-0.479,0.000,241.943,-33.752,1
-1.408,-0.890,-0.707,0.977,236.816,-1.953,1
-1.515,-0.903,-0.945,1.526,227.478,37.476,1
-1.705,-0.928,-1.035,39.917,213.379,83.557,1
-1.953,-1.044,-1.018,126.221,191.650,140.198,1
-2.084,-0.923,-1.224,220.886,162.720,202.087,1
-2.264,-0.999,-1.412,248.291,118.774,272.949,1
-2.235,-1.048,-1.423,243.591,60.181,350.647,1
-2.671,-1.438,-1.407,287.964,-14.038,427.429,1
-3.357,-1.336,-1.580,324.646,-113.586,506.409,1
-4.261,-0.922,-1.519,356.567,-217.407,569.336,1
-5.128,-0.570,-1.347,371.765,-326.599,618.530,1
-6.098,-0.137,-1.241,368.347,-423.401,650.879,1
-7.476,0.635,-0.994,342.224,-524.109,672.119,1
-8.000,1.071,-0.754,333.435,-610.840,666.321,1
-8.000,1.627,-0.307,363.892,-674.805,637.146,1
-8.000,3.011,0.306,625.977,-744.141,566.284,1
-8.000,3.096,0.512,951.050,-817.017,397.522,1
-8.000,2.158,-0.102,891.785,-806.763,166.504,1
-7.324,1.835,1.233,409.851,-718.445,-28.503,1
-6.303,2.362,2.126,410.339,-630.249,-121.338,1
-5.495,1.888,2.206,623.657,-511.047,-236.206,1
-4.488,1.100,1.795,435.974,-385.193,-320.862,1
-3.256,0.733,1.841,204.590,-290.955,-348.877,1
-2.950,0.656,1.976,164.551,-207.886,-356.934,1
-2.654,0.431,1.727,162.354,-136.353,-356.995,1
-2.363,0.284,1.403,128.235,-80.200,-350.464,1
-2.039,0.157,1.123,77.332,-38.574,-340.027,1
-1.774,0.106,1.097,53.589,-12.085,-328.003,1
-1.634,0.071,1.028,64.148,9.033,-313.293,1
-1.444,0.036,0.962,86.121,28.564,-294.495,1
-1.153,-0.029,0.855,114.746,48.889,-271.240,1
-0.949,-0.045,0.758,143.677,65.796,-248.169,1
-0.765,-0.061,0.649,148.682,84.412,-223.755,1
-0.562,-0.090,0.617,129.822,96.741,-200.500,1
-0.454,-0.080,0.518,101.318,104.492,-179.749,1
-0.387,-0.068,0.659,71.716,110.352,-161.438,1
-0.205,-0.030,0.429,42.236,112.244,-146.240,1
-0.084,0.010,0.357,36.743,112.671,-132.751,1
0.020,0.030,0.302,61.890,114.685,-120.056,1
0.092,0.010,0.116,89.905,119.507,-108.765,1
0.247,-0.039,0.271,82.825,124.390,-98.633,1
0.389,0.031,-0.012,60.730,126.404,-91.553,1
0.455,0.006,0.364,41.626,124.207,-84.961,1
0.500,0.074,0.212,53.955,122.803,-75.928,1
0.525,0.079,0.129,83.496,122.192,-65.186,1
0.633,0.052,0.040,89.111,122.498,-53.711,1
0.743,0.028,0.017,51.331,122.559,-44.250,1
0.812,0.104,0.003,33.447,121.704,-35.583,1
0.830,0.189,0.018,67.627,123.291,-25.757,1
0.941,0.243,-0.049,109.375,126.587,-13.184,1
0.904,0.281,-0.072,104.553,129.578,-2.930,1
0.799,0.343,-0.097,83.252,131.836,4.395,1
0.784,0.426,-0.118,81.909,133.972,8.362,1
0.807,0.484,-0.144,89.905,135.986,11.658,1
0.788,0.533,-0.207,96.497,137.390,15.320,1
0.697,0.580,-0.260,92.407,137.695,16.785,1
0.632,0.679,-0.300,104.370,136.719,16.785,1
0.566,0.729,-0.381,118.713,135.376,15.015,1
0.414,0.804,-0.551,112.732,133.423,10.010,1
0.374,0.881,-0.682,105.957,130.432,1.770,1
0.365,0.948,-0.757,114.197,124.695,-7.324,1
0.375,0.961,-0.796,133.118,118.225,-14.526,1
0.369,0.950,-0.798,129.395,112.061,-20.020,1
0.365,0.961,-0.798,103.394,103.882,-26.428,1
0.433,0.966,-0.791,96.619,95.154,-31.250,1
0.462,0.919,-0.779,124.268,86.731,-33.203,1
0.467,0.829,-0.729,165.283,80.566,-31.067,1
0.533,0.670,-0.773,171.265,77.209,-25.940,1
0.468,0.656,-0.729,141.663,73.425,-20.447,1
0.587,0.623,-0.617,117.493,67.383,-14.221,1
0.785,0.633,-0.560,153.503,60.547,-7.141,1
0.839,0.572,-0.646,192.810,56.274,2.441,1
0.940,0.422,-0.690,129.822,52.979,9.155,1
0.980,0.513,-0.614,31.738,48.889,13.794,1
0.968,0.740,-0.584,-3.235,44.495,16.357,1
1.081,0.962,-0.645,20.874,38.879,16.724,1
1.220,1.248,-0.651,36.072,31.982,13.123,1
1.085,1.550,-0.623,32.898,22.888,1.892,1
0.888,1.765,-0.561,30.762,12.878,-18.433,1
0.712,1.882,-0.438,50.476,3.235,-44.861,1
0.618,1.864,-0.313,74.219,-5.676,-72.327,1
0.517,1.784,-0.181,75.867,-11.536,-99.609,1
0.423,1.650,-0.048,75.073,-14.160,-123.108,1
0.305,1.550,0.102,84.778,-13.000,-144.775,1
0.255,1.289,0.184,98.022,-8.362,-161.316,1
0.211,1.041,0.285,92.712,-0.366,-173.035,1
0.194,0.794,0.322,91.553,9.094,-179.382,1
0.133,0.589,0.373,112.549,23.376,-180.786,1
0.085,0.347,0.375,123.962,40.894,-177.551,1
0.061,0.148,0.373,115.234,59.814,-170.532,1
0.010,-0.000,0.339,106.079,78.796,-159.973,1
-0.006,-0.110,0.299,109.802,98.450,-145.264,1
-0.054,-0.241,0.226,118.530,117.798,-128.052,1
-0.081,-0.395,0.154,108.887,138.123,-105.041,1
-0.147,-0.499,0.052,66.040,157.532,-80.322,1
-0.251,-0.587,-0.083,14.954,173.706,-58.411,1
-0.313,-0.601,-0.199,-20.264,188.965,-36.194,1
-0.469,-0.619,-0.345,-13.611,202.209,-14.587,1
-0.646,-0.693,-0.539,-2.686,213.318,6.409,1
-0.837,-0.639,-0.686,3.357,224.060,37.537,1
-0.999,-0.754,-0.836,14.954,229.492,69.336,1
-1.307,-0.812,-0.949,10.315,229.492,107.910,1
-1.493,-0.658,-1.095,64.819,227.112,152.344,1
-1.793,-1.071,-1.110,99.365,216.003,204.041,1
-2.048,-0.937,-1.290,164.673,191.895,277.588,1
-2.184,-1.279,-1.444,221.252,152.771,356.873,1
-2.572,-1.487,-1.389,267.395,88.135,446.533,1
-3.060,-1.059,-1.611,299.561,0.122,538.025,1
-3.866,-0.882,-1.463,313.782,-86.365,606.628,1
-4.800,-0.690,-1.388,328.796,-178.345,664.673,1
-5.967,-0.273,-1.453,302.002,-267.151,707.581,1
-7.436,0.251,-1.207,230.713,-351.929,738.037,1
-7.998,0.916,-0.977,249.756,-420.715,751.892,1
-8.000,1.695,-0.617,356.262,-504.578,741.516,1
-8.000,2.623,-0.320,562.927,-589.783,692.932,1
-8.000,3.346,0.096,855.408,-689.758,580.322,1
-8.000,3.038,0.092,950.928,-756.592,384.338,1
-7.295,2.545,0.783,743.652,-750.671,183.228,1
-7.248,2.613,2.083,763.489,-694.824,-11.658,1
-5.625,2.590,1.935,789.795,-600.830,-180.969,1
-5.470,1.755,1.772,723.450,-474.792,-315.918,1
-3.902,1.074,1.323,385.681,-364.258,-386.719,1
-3.566,0.937,1.499,246.826,-294.922,-408.630,1
-3.384,0.502,1.397,192.139,-236.206,-424.683,1
-3.036,0.406,1.367,164.612,-182.678,-427.978,1
-2.687,0.196,1.250,168.579,-131.531,-421.570,1
-2.443,0.039,1.182,162.598,-86.792,-407.532,1
-2.322,-0.081,1.093,143.982,-46.509,-386.353,1
-2.131,-0.250,0.970,137.268,-15.503,-363.220,1
-1.766,-0.241,0.937,136.780,16.541,-334.106,1
-1.336,-0.368,0.891,141.113,43.701,-303.406,1
-1.118,-0.466,0.744,134.949,67.322,-272.339,1
-0.933,-0.470,0.755,136.230,85.999,-239.258,1
-0.668,-0.469,0.677,126.526,99.365,-205.383,1
-0.479,-0.460,0.572,107.971,107.971,-174.988,1
-0.343,-0.447,0.476,86.304,113.403,-149.048,1
-0.174,-0.336,0.414,78.064,115.479,-127.319,1
-0.118,-0.300,0.353,93.872,117.065,-106.689,1
-0.046,-0.233,0.324,102.661,119.263,-88.684,1
0.104,-0.205,0.299,105.774,120.361,-72.021,1
0.192,-0.159,0.151,104.614,120.911,-55.908,1
0.231,-0.145,0.094,104.187,121.460,-41.443,1
0.292,-0.133,0.070,108.765,122.009,-27.954,1
0.387,-0.140,0.070,110.229,121.460,-15.930,1
0.516,-0.104,0.010,103.271,120.911,-5.310,1
0.591,-0.122,0.009,92.163,120.911,3.662,1
0.676,-0.075,0.057,85.632,120.789,11.719,1
0.754,-0.001,0.040,97.412,120.544,21.667,1
0.806,0.015,0.066,101.868,119.019,30.212,1
0.879,0.052,0.038,93.384,117.249,38.147,1
0.928,0.050,-0.014,72.632,117.004,47.546,1
0.970,0.083,-0.046,41.870,117.493,55.908,1
0.928,0.140,-0.050,32.959,119.690,61.890,1
0.874,0.176,-0.051,48.645,121.765,66.284,1
0.848,0.175,-0.085,72.815,123.291,70.129,1
0.820,0.203,-0.120,85.876,124.023,73.486,1
0.831,0.251,-0.146,88.562,124.268,78.247,1
0.780,0.293,-0.164,83.130,124.390,81.543,1
0.725,0.346,-0.221,84.167,124.146,83.252,1
0.657,0.409,-0.272,98.022,124.634,84.045,1
0.717,0.519,-0.310,105.164,123.718,86.243,1
0.746,0.619,-0.301,96.985,119.995,87.280,1
0.815,0.763,-0.380,104.919,113.953,87.585,1
0.761,0.890,-0.426,115.112,107.239,85.327,1
0.641,1.024,-0.460,108.337,100.830,79.834,1
0.553,1.099,-0.492,97.778,93.628,70.862,1
0.573,1.191,-0.536,99.182,86.914,62.439,1
0.591,1.263,-0.557,107.361,80.627,54.565,1
0.520,1.359,-0.563,117.920,73.364,44.983,1
0.448,1.323,-0.549,119.568,67.322,36.072,1
0.425,1.265,-0.551,106.201,62.744,26.550,1
0.429,1.223,-0.504,91.675,58.899,19.897,1
0.399,1.179,-0.475,90.210,55.054,13.733,1
0.381,1.100,-0.451,91.187,51.819,9.399,1
0.373,1.019,-0.446,83.069,47.852,5.615,1
0.375,0.948,-0.462,62.744,44.861,2.747,1
0.372,0.912,-0.432,48.828,42.236,1.282,1
0.404,0.871,-0.412,46.570,39.368,0.549,1
0.455,0.802,-0.381,38.147,36.499,1.587,1
0.542,0.814,-0.380,35.400,33.630,4.150,1
0.579,0.758,-0.378,33.630,31.128,7.690,1
0.577,0.771,-0.379,25.879,28.381,10.193,1
0.562,0.806,-0.383,36.621,25.574,11.963,1
0.592,0.800,-0.405,54.016,23.682,13.306,1
0.644,0.822,-0.410,37.476,21.790,13.855,1
0.668,0.920,-0.337,16.602,18.799,12.024,1
0.740,1.014,-0.303,19.226,14.954,9.521,1
0.759,1.121,-0.271,47.058,9.766,5.676,1
0.828,1.193,-0.312,66.223,4.761,0.366,1
0.774,1.212,-0.211,51.941,0.732,-8.484,1
0.802,1.333,-0.165,34.973,-1.221,-21.790,1
0.892,1.477,0.012,29.907,-2.991,-34.668,1
0.886,1.546,0.198,28.992,-4.517,-48.950,1
0.826,1.448,0.224,41.138,-3.113,-63.110,1
0.800,1.457,0.290,37.903,0.427,-74.402,1
0.789,1.339,0.301,42.419,5.310,-86.670,1
0.743,1.292,0.380,62.073,11.902,-96.252,1
0.748,1.246,0.433,76.294,20.264,-105.652,1
0.701,1.083,0.461,53.711,28.320,-114.380,1
0.615,0.975,0.460,66.101,36.377,-121.338,1
0.507,1.032,0.465,111.328,47.058,-127.319,1
0.512,0.928,0.450,119.507,58.167,-130.615,1
0.489,0.762,0.389,105.530,70.068,-131.165,1
0.398,0.759,0.355,100.342,82.458,-131.470,1
0.386,0.719,0.277,95.764,92.163,-131.836,1
0.324,0.651,0.250,98.145,102.661,-131.531,1
0.254,0.550,0.233,116.333,113.586,-129.761,1
0.225,0.418,0.174,107.788,124.695,-125.732,1
0.169,0.302,0.131,80.566,134.399,-121.094,1
0.143,0.244,0.089,64.209,141.541,-116.211,1
0.105,0.182,0.057,64.697,148.010,-109.802,1
0.066,0.106,0.046,85.876,154.907,-99.976,1
0.016,0.041,-0.022,111.023,163.025,-85.449,1
-0.058,-0.042,-0.082,122.498,171.753,-67.017,1
-0.198,-0.152,-0.182,111.023,179.871,-46.570,1
-0.330,-0.249,-0.316,71.594,185.852,-27.161,1
-0.504,-0.410,-0.509,0.916,191.528,-5.859,1
-0.752,-0.436,-0.583,-40.405,196.106,14.282,1
-0.996,-0.499,-0.757,-41.199,200.378,33.936,1
-1.242,-0.653,-0.919,-37.476,201.843,62.683,1
-1.349,-0.693,-1.071,-16.907,199.280,97.656,1
-1.475,-0.736,-1.175,21.240,190.674,142.151,1
-1.705,-0.869,-1.184,90.332,173.767,196.472,1
-1.932,-0.902,-1.396,167.480,141.357,267.212,1
-2.218,-0.921,-1.481,169.739,93.689,343.323,1
-2.450,-0.826,-1.989,158.875,34.180,425.049,1
-3.113,-0.892,-1.637,234.253,-44.556,507.874,1
-3.858,-0.605,-1.484,305.969,-139.160,578.064,1
-4.537,-0.521,-1.349,344.055,-255.676,637.939,1
-5.583,-0.125,-1.148,331.360,-361.999,680.237,1
-6.925,0.289,-0.864,353.210,-471.680,706.482,1
-7.999,0.861,-0.539,382.629,-569.702,706.604,1
-8.000,1.472,-0.057,410.522,-666.748,677.307,1
-8.000,2.736,0.531,648.621,-754.211,616.028,1
-8.000,3.388,0.872,1086.487,-870.727,447.754,1
-8.000,2.261,0.426,1256.165,-903.686,181.946,1
-8.000,0.876,0.505,1124.878,-818.664,-102.783,1
-8.000,0.749,0.865,491.882,-708.130,-264.526,1
-6.237,1.599,1.486,489.136,-601.379,-331.421,1
-5.678,1.042,1.720,541.443,-490.662,-388.184,1
-4.718,0.506,1.569,423.828,-375.488,-433.655,1
-3.860,0.272,1.561,299.927,-277.405,-448.486,1
-3.422,0.075,1.638,248.047,-186.279,-445.435,1
-3.093,-0.153,1.657,165.955,-111.755,-431.885,1
-2.729,-0.352,1.608,111.816,-46.448,-410.400,1
-2.291,-0.426,1.492,116.089,11.841,-382.568,1
-1.971,-0.387,1.275,111.877,55.420,-353.821,1
-1.690,-0.381,1.035,83.496,91.248,-326.355,1
-1.427,-0.312,0.995,51.331,116.577,-297.241,1
-1.327,-0.207,0.919,59.753,134.399,-268.127,1
-1.166,-0.159,0.878,85.205,148.804,-238.525,1
-1.025,-0.145,0.773,111.328,160.828,-209.351,1
-0.804,-0.155,0.694,106.018,168.823,-183.594,1
-0.617,-0.176,0.615,84.717,173.279,-158.020,1
-0.483,-0.108,0.565,68.359,174.561,-135.986,1
-0.342,-0.139,0.475,60.913,174.133,-114.990,1
-0.227,-0.105,0.369,65.308,173.889,-91.248,1
-0.127,-0.137,0.309,65.430,171.570,-74.341,1
0.017,-0.113,0.220,66.956,168.091,-57.983,1
0.135,-0.082,0.159,71.228,164.612,-42.175,1
0.213,-0.043,0.115,70.679,161.377,-27.954,1
0.253,-0.029,0.064,68.054,159.241,-16.418,1
0.226,-0.022,0.045,62.012,157.349,-6.226,1
0.222,-0.001,0.025,56.396,155.029,2.747,1
0.255,0.031,0.040,50.903,152.893,10.559,1
0.324,0.082,0.005,59.021,151.367,18.005,1
0.383,0.112,0.025,85.449,150.146,27.649,1
0.434,0.166,-0.062,111.084,151.062,39.673,1
0.462,0.147,-0.066,112.000,151.794,52.185,1
0.462,0.173,-0.118,102.783,154.175,64.758,1
0.488,0.206,-0.137,94.543,157.715,77.087,1
0.471,0.235,-0.166,95.276,162.231,88.623,1
0.461,0.265,-0.167,95.886,166.077,100.342,1
0.424,0.308,-0.211,93.201,170.898,111.816,1
0.353,0.391,-0.252,91.858,177.246,122.620,1
0.243,0.477,-0.263,84.229,181.641,130.676,1
0.165,0.638,-0.309,82.642,183.411,136.353,1
0.140,0.769,-0.412,97.656,181.519,140.381,1
0.042,0.892,-0.510,114.990,177.002,145.020,1
-0.040,1.062,-0.616,129.578,171.020,148.621,1
-0.125,1.124,-0.641,117.065,162.292,149.109,1
-0.208,1.352,-0.708,99.487,153.687,145.081,1
-0.234,1.487,-0.723,108.093,144.470,138.672,1
-0.244,1.594,-0.721,112.366,133.057,130.066,1
-0.297,1.704,-0.722,113.342,122.009,118.286,1
-0.303,1.760,-0.713,105.347,110.107,103.577,1
-0.277,1.772,-0.729,97.656,100.342,86.731,1
-0.253,1.740,-0.729,89.905,91.492,71.716,1
-0.166,1.671,-0.694,73.364,83.313,55.664,1
-0.140,1.616,-0.636,73.059,76.172,43.213,1
-0.064,1.546,-0.583,67.505,69.458,32.776,1
-0.050,1.457,-0.529,56.824,63.843,24.597,1
-0.029,1.354,-0.509,40.100,58.960,17.334,1
-0.022,1.242,-0.485,25.513,54.565,11.841,1
-0.036,1.186,-0.450,14.526,51.086,7.751,1
-0.046,1.154,-0.403,20.203,48.462,3.540,1
-0.008,1.153,-0.358,23.071,46.997,0.244,1
0.036,1.220,-0.298,19.958,46.326,-2.625,1
0.082,1.309,-0.248,6.348,45.410,-6.531,1
0.098,1.404,-0.209,-15.808,44.678,-14.954,1
0.242,1.417,-0.175,-29.358,43.884,-25.024,1
0.176,1.770,-0.055,12.207,46.753,-39.001,1
0.214,1.929,-0.023,33.691,50.415,-56.152,1
0.185,1.993,-0.012,25.879,53.406,-75.256,1
0.258,2.112,0.021,16.968,57.007,-97.046,1
0.208,2.128,0.139,-8.118,58.838,-117.126,1
0.130,2.022,0.201,2.747,62.012,-139.404,1
0.146,1.972,0.220,26.611,65.552,-157.043,1
0.126,1.785,0.223,32.227,69.275,-175.659,1
0.083,1.727,0.227,29.602,73.364,-189.270,1
0.049,1.708,0.265,22.949,77.332,-203.125,1
0.024,1.658,0.301,22.400,80.872,-215.515,1
0.071,1.513,0.230,14.099,82.458,-226.746,1
0.024,1.584,0.214,25.818,83.862,-236.999,1
-0.070,1.461,0.144,38.208,85.449,-247.620,1
-0.260,1.573,0.118,35.156,85.999,-254.822,1
-0.356,1.463,0.170,49.927,87.036,-265.259,1
-0.284,1.344,0.050,85.510,90.210,-270.874,1
-0.294,1.038,-0.051,86.731,94.360,-274.414,1
-0.349,0.947,-0.090,56.396,96.558,-276.733,1
-0.326,0.791,-0.172,21.851,95.703,-276.917,1
-0.301,0.587,-0.269,1.526,91.980,-276.123,1
-0.321,0.372,-0.338,-13.733,86.548,-275.452,1
-0.370,0.144,-0.439,-17.029,82.092,-271.301,1
-0.400,-0.059,-0.480,-11.536,79.895,-263.916,1
-0.474,-0.246,-0.510,6.958,80.444,-253.540,1
-0.490,-0.389,-0.535,57.007,84.839,-238.281,1
-0.369,-0.268,-0.385,130.981,95.581,-214.966,1
-0.338,-0.621,-0.366,179.687,109.070,-184.753,1
-0.370,-0.874,-0.366,144.287,120.544,-151.306,1
-0.418,-1.032,-0.397,50.781,127.258,-116.882,1
-0.437,-1.103,-0.423,-16.418,131.836,-76.355,1
-0.552,-1.269,-0.448,-16.052,134.521,-37.170,1
-0.585,-1.237,-0.578,5.798,139.709,13.367,1
-0.748,-1.359,-0.632,28.381,144.836,70.557,1
-1.121,-1.311,-0.770,28.870,146.912,127.563,1
-1.557,-1.296,-0.961,44.800,146.301,196.106,1
-1.894,-1.241,-0.987,57.739,140.930,257.324,1
-2.208,-1.267,-1.031,75.378,128.723,321.899,1
-2.531,-1.052,-1.172,122.375,105.225,395.508,1
-2.944,-0.944,-1.134,172.791,63.354,479.797,1
-3.443,-1.253,-1.031,242.371,7.629,558.655,1
-4.116,-0.856,-1.321,286.255,-59.570,631.165,1
-5.032,-0.751,-1.096,288.513,-140.442,702.515,1
-6.042,-0.511,-1.028,305.542,-227.966,765.076,1
-7.334,-0.277,-0.807,343.750,-324.341,812.988,1
-8.000,0.172,-0.564,380.432,-429.932,838.989,1
-8.000,0.605,-0.300,418.884,-541.260,837.646,1
-8.000,1.208,0.157,459.167,-647.949,807.739,1
-8.000,2.296,0.666,618.896,-750.244,741.882,1
-8.000,3.374,1.597,1083.557,-881.836,584.351,1
-8.000,2.288,0.913,1471.435,-936.218,265.442,1
-8.000,0.840,0.860,1181.824,-853.821,-140.625,1
-8.000,1.035,1.577,709.167,-716.247,-344.727,1
-6.508,0.716,1.453,563.965,-555.664,-442.688,1
-5.654,0.362,1.467,378.113,-434.265,-484.436,1
-4.781,0.208,1.500,294.800,-329.590,-495.239,1
-4.206,0.184,1.500,275.940,-238.892,-490.112,1
-3.444,0.046,1.283,261.230,-152.344,-473.083,1
-3.182,-0.129,1.226,210.266,-77.881,-447.632,1
-2.927,-0.353,1.197,145.447,-19.897,-421.631,1
-2.537,-0.425,1.204,120.666,31.372,-390.564,1
-2.048,-0.480,1.138,138.611,76.782,-354.919,1
-1.634,-0.469,0.954,148.071,113.220,-318.726,1
-1.355,-0.469,0.808,113.403,141.602,-283.875,1
-1.223,-0.332,0.743,90.881,160.034,-251.648,1
-1.080,-0.174,0.687,104.675,171.448,-219.055,1
-0.911,-0.123,0.595,125.793,178.833,-190.063,1
-0.757,-0.119,0.513,124.329,183.655,-160.217,1
-0.573,-0.078,0.449,122.192,185.303,-134.644,1
-0.421,-0.066,0.326,123.779,186.218,-111.084,1
-0.294,-0.023,0.237,116.516,186.768,-87.585,1
-0.206,-0.017,0.181,103.699,186.401,-67.322,1
-0.137,-0.003,0.135,87.585,184.692,-50.964,1
-0.057,0.046,0.116,84.290,182.312,-37.109,1
-0.026,0.037,0.085,85.449,179.077,-25.146,1
0.041,0.034,0.050,86.487,176.575,-16.052,1
0.157,0.048,-0.011,90.210,173.950,-6.592,1
0.265,0.055,-0.061,92.102,172.119,1.526,1
0.349,0.066,-0.095,91.736,169.556,8.850,1
0.445,0.124,-0.118,91.919,166.443,17.273,1
0.451,0.152,-0.142,91.064,163.330,25.879,1
0.435,0.135,-0.085,98.694,160.889,33.630,1
0.485,0.158,-0.272,108.337,158.752,40.405,1
0.530,0.161,-0.225,110.718,156.799,47.852,1
0.565,0.138,-0.459,107.300,154.297,55.725,1
0.525,0.234,-0.363,118.591,152.649,63.965,1
0.541,0.276,-0.337,151.978,151.001,75.867,1
0.496,0.318,-0.365,170.105,149.658,87.708,1
0.507,0.387,-0.392,169.128,148.010,100.159,1
0.481,0.430,-0.414,150.635,143.677,110.901,1
0.425,0.516,-0.463,131.226,138.428,118.164,1
0.369,0.625,-0.521,137.939,133.545,124.207,1
0.306,0.712,-0.553,147.827,129.272,129.883,1
0.272,0.815,-0.591,144.409,123.901,133.667,1
0.236,0.945,-0.595,135.742,118.347,135.254,1
0.226,1.104,-0.580,131.836,109.985,135.132,1
0.201,1.201,-0.606,143.860,102.356,133.667,1
0.182,1.285,-0.630,136.902,95.642,130.371,1
0.085,1.383,-0.640,109.619,87.708,122.681,1
0.015,1.502,-0.627,92.285,79.895,111.877,1
-0.004,1.573,-0.634,92.957,72.144,98.694,1
0.064,1.625,-0.628,94.971,66.040,84.351,1
0.076,1.731,-0.577,86.060,60.547,69.092,1
0.067,1.744,-0.507,73.792,55.969,54.993,1
0.148,1.770,-0.439,69.336,51.270,40.649,1
0.207,1.773,-0.407,68.054,46.814,26.428,1
0.196,1.724,-0.400,54.199,44.983,13.916,1
0.194,1.663,-0.347,31.921,45.227,0.671,1
0.202,1.614,-0.259,24.353,46.204,-11.597,1
0.298,1.434,-0.223,18.555,46.570,-18.982,1
0.312,1.537,-0.088,19.043,47.485,-24.475,1
0.394,1.400,-0.047,-13.306,47.546,-31.189,1
0.377,1.501,0.070,-31.128,46.692,-37.903,1
0.450,1.564,0.117,-43.579,47.119,-45.288,1
0.477,1.537,0.113,-63.965,50.232,-54.932,1
0.422,1.594,0.082,-45.715,57.861,-66.406,1
0.345,1.650,0.161,-4.028,66.284,-79.468,1
0.276,1.661,0.235,16.785,74.341,-95.032,1
0.180,1.688,0.286,35.583,82.520,-111.206,1
0.164,1.676,0.320,53.467,88.989,-125.610,1
0.130,1.633,0.294,69.458,95.154,-139.282,1
0.065,1.594,0.235,64.453,101.868,-151.978,1
-0.004,1.590,0.197,70.068,108.276,-163.208,1
-0.007,1.549,0.134,81.604,114.075,-173.096,1
-0.007,1.452,0.089,83.374,117.432,-180.298,1
-0.054,1.399,0.053,90.271,118.958,-185.669,1
-0.087,1.339,0.001,93.323,119.446,-189.087,1
-0.021,1.304,-0.025,83.252,117.859,-191.711,1
0.041,1.246,-0.099,63.538,115.356,-193.481,1
0.103,1.166,-0.156,21.606,110.413,-194.641,1
0.053,1.119,-0.190,21.912,104.492,-194.885,1
-0.009,0.974,-0.260,48.401,101.074,-193.970,1
-0.079,0.769,-0.358,48.889,100.159,-193.237,1
-0.119,0.528,-0.465,16.785,100.525,-195.496,1
-0.141,0.394,-0.507,-17.334,101.135,-198.547,1
-0.154,0.260,-0.447,-13.062,98.999,-199.524,1
-0.116,0.205,-0.489,3.479,97.412,-196.106,1
-0.091,0.078,-0.497,6.531,95.703,-191.040,1
-0.152,0.006,-0.533,22.583,94.360,-183.716,1
-0.212,-0.141,-0.531,38.208,93.811,-175.354,1
-0.225,-0.155,-0.627,54.260,94.543,-162.354,1
-0.229,-0.287,-0.597,62.134,96.802,-147.217,1
-0.236,-0.417,-0.609,64.819,99.976,-129.700,1
-0.382,-0.540,-0.632,71.594,104.736,-106.873,1
-0.504,-0.684,-0.665,68.542,107.483,-81.055,1
-0.733,-0.741,-0.780,62.622,109.619,-50.537,1
-0.694,-0.990,-0.905,34.302,109.802,-14.771,1
-0.803,-1.097,-0.970,3.723,109.009,27.222,1
-1.032,-1.106,-1.048,-4.089,108.032,75.500,1
-1.243,-1.151,-1.024,12.329,106.201,133.728,1
-1.508,-1.214,-1.209,45.898,102.051,196.106,1
-1.836,-1.243,-1.203,39.001,92.224,264.893,1
-2.167,-1.173,-1.117,50.903,74.951,345.520,1
-2.577,-1.271,-1.241,89.722,49.500,427.856,1
-3.026,-0.787,-1.333,129.761,8.423,514.343,1
-3.711,-1.097,-1.279,166.016,-52.124,608.032,1
-4.498,-0.653,-1.250,188.721,-122.375,693.176,1
-5.366,-0.518,-1.068,278.320,-212.280,768.799,1
-6.607,-0.108,-0.926,377.808,-324.890,822.571,1
-8.000,0.200,-0.655,451.477,-443.115,844.849,1
-8.000,1.102,-0.373,541.992,-582.153,831.726,1
-8.000,1.749,0.115,647.522,-721.130,769.836,1
-8.000,2.781,0.645,972.656,-861.816,636.108,1
-8.000,2.322,1.018,1273.621,-965.820,375.183,1
-8.000,1.067,0.897,1260.193,-942.749,22.827,1
-8.000,1.202,1.347,996.765,-823.303,-257.324,1
-8.000,1.085,1.420,934.387,-662.170,-417.725,1
-6.462,0.392,1.514,719.788,-503.967,-504.211,1
-5.347,0.182,1.429,632.812,-372.803,-539.978,1
-4.511,-0.364,0.796,478.638,-228.210,-554.321,1
-3.864,-0.258,1.056,205.444,-149.292,-539.551,1
-4.212,-0.184,1.261,182.434,-86.304,-511.353,1
-3.684,-0.602,1.265,161.438,-27.954,-487.366,1
-3.043,-0.678,1.292,137.939,18.372,-451.965,1
-2.513,-0.709,1.174,170.349,62.073,-405.334,1
-2.032,-0.788,0.953,171.082,95.642,-362.244,1
-1.662,-0.719,0.819,142.456,122.498,-313.477,1
-1.352,-0.657,0.803,116.882,137.695,-270.386,1
-1.310,-0.592,0.764,104.187,147.339,-227.905,1
-1.207,-0.540,0.756,97.168,155.151,-188.110,1
-0.933,-0.505,0.679,87.463,159.790,-152.100,1
-0.603,-0.470,0.618,88.562,161.926,-120.239,1
-0.416,-0.429,0.499,102.600,163.757,-92.407,1
-0.303,-0.379,0.482,93.628,164.307,-65.186,1
-0.216,-0.247,0.466,101.440,165.222,-40.527,1
-0.204,-0.234,0.427,99.426,165.161,-18.311,1
-0.136,-0.186,0.404,93.567,163.696,0.977,1
-0.028,-0.125,0.348,101.318,162.598,15.991,1
0.191,-0.115,0.318,106.384,160.339,32.593,1
0.347,-0.101,0.262,98.145,158.875,44.495,1
0.406,-0.029,0.201,72.937,157.654,55.237,1
0.402,-0.011,0.173,38.391,154.968,60.547,1
0.450,0.005,0.157,13.245,151.733,63.171,1
0.570,0.045,0.139,20.874,148.437,65.247,1
0.643,0.095,0.086,47.546,145.935,67.444,1
0.693,0.140,0.018,85.999,144.287,70.190,1
0.711,0.193,-0.024,110.901,141.968,74.341,1
0.728,0.211,-0.042,86.243,136.963,78.979,1
0.787,0.235,-0.146,57.983,130.676,83.069,1
0.788,0.264,-0.031,77.576,125.854,85.693,1
0.724,0.151,-0.295,109.619,122.253,87.341,1
0.570,0.206,-0.203,115.234,117.554,89.600,1
0.589,0.266,-0.223,85.632,110.901,96.069,1
0.662,0.324,-0.047,55.908,107.422,104.553,1
0.725,0.234,-0.063,30.579,105.469,114.075,1
0.702,0.298,-0.150,31.982,106.567,122.253,1
0.573,0.326,-0.141,45.044,108.643,129.883,1
0.472,0.384,-0.145,49.805,109.985,136.658,1
0.492,0.498,-0.177,66.711,111.572,143.433,1
0.437,0.577,-0.214,87.341,112.366,149.902,1
0.383,0.686,-0.228,93.628,111.389,154.358,1
0.326,0.849,-0.237,90.271,109.253,156.128,1
0.224,1.012,-0.236,87.646,107.971,155.029,1
0.193,1.243,-0.218,95.337,107.300,151.855,1
0.160,1.421,-0.213,107.056,105.835,145.203,1
0.102,1.535,-0.267,96.130,102.539,135.742,1
0.061,1.649,-0.286,76.355,98.206,122.925,1
0.096,1.721,-0.312,74.219,93.994,108.276,1
0.126,1.789,-0.316,89.783,87.708,87.402,1
0.124,1.760,-0.330,90.149,83.252,71.838,1
0.165,1.754,-0.320,89.050,79.773,58.044,1
0.156,1.778,-0.253,70.740,75.317,42.908,1
0.180,1.811,-0.185,54.260,71.594,27.710,1
0.195,1.809,-0.143,52.979,70.190,11.841,1
0.275,1.656,-0.131,24.536,68.604,-2.991,1
0.269,1.821,-0.061,19.226,70.190,-16.785,1
0.315,1.729,-0.029,17.151,71.533,-31.616,1
0.374,1.749,0.096,5.737,72.388,-44.556,1
0.355,1.656,0.177,24.902,75.256,-58.411,1
0.403,1.626,0.223,50.903,79.651,-70.618,1
0.404,1.663,0.324,47.485,85.083,-82.092,1
0.387,1.640,0.364,42.419,91.980,-94.116,1
0.296,1.511,0.369,50.659,100.647,-106.384,1
0.240,1.520,0.387,72.144,110.046,-117.920,1
0.215,1.495,0.410,108.276,118.896,-126.953,1
0.224,1.430,0.344,110.046,128.235,-134.949,1
0.278,1.386,0.328,78.247,135.742,-142.578,1
0.275,1.403,0.341,61.890,140.015,-149.597,1
0.313,1.390,0.289,70.984,143.066,-155.273,1
0.310,1.334,0.262,94.910,143.127,-158.203,1
0.319,1.256,0.114,105.896,141.235,-158.691,1
0.273,1.172,-0.005,107.910,138.428,-158.508,1
0.243,1.148,-0.041,112.793,135.254,-157.776,1
0.222,1.100,-0.138,113.831,130.005,-158.997,1
0.178,1.086,-0.197,120.361,124.878,-160.950,1
0.198,1.045,-0.249,135.559,120.911,-163.574,1
0.185,0.931,-0.317,152.893,119.995,-165.833,1
0.043,0.795,-0.339,135.254,119.690,-168.091,1
-0.148,0.613,-0.299,101.929,119.995,-170.288,1
-0.031,0.474,-0.407,66.589,120.911,-171.936,1
-0.056,0.356,-0.365,44.312,120.850,-171.082,1
-0.095,0.188,-0.429,17.639,121.521,-167.603,1
-0.167,-0.002,-0.433,-22.888,123.291,-163.879,1
-0.272,-0.094,-0.439,-26.978,126.709,-157.837,1
-0.270,-0.201,-0.419,10.376,133.179,-148.254,1
-0.243,-0.327,-0.437,79.468,144.775,-131.042,1
-0.306,-0.483,-0.437,93.079,155.518,-107.178,1
-0.454,-0.613,-0.531,49.927,163.269,-79.346,1
-0.658,-0.688,-0.667,13.306,167.786,-51.453,1
-0.751,-0.765,-0.789,0.061,169.312,-16.785,1
-0.901,-0.930,-0.983,1.892,169.800,25.208,1
-1.134,-1.125,-1.155,-23.193,167.725,75.012,1
-1.373,-1.247,-1.373,-46.448,163.452,131.348,1
-1.638,-1.300,-1.188,-0.732,155.579,195.068,1
-2.016,-1.882,-1.288,59.875,137.512,270.447,1
-2.349,-1.743,-1.146,75.317,110.596,349.182,1
-2.658,-0.393,-1.461,107.605,77.576,422.790,1
-3.033,-1.137,-1.224,174.438,20.081,514.221,1
-3.523,-0.719,-1.229,274.170,-41.321,588.623,1
-4.125,-0.500,-1.115,366.211,-125.488,653.992,1
-4.941,-0.290,-0.957,389.343,-225.647,700.989,1
-5.956,-0.270,-0.842,407.532,-339.172,733.948,1
-7.407,0.027,-0.562,452.698,-467.895,744.263,1
-8.000,0.454,-0.285,488.770,-589.417,727.478,1
-8.000,0.990,0.167,531.860,-703.430,684.265,1
-8.000,1.865,0.574,669.189,-813.904,612.061,1
-8.000,2.977,1.176,1082.764,-910.095,471.924,1
-8.000,2.121,1.038,1360.168,-964.661,194.824,1
-8.000,1.315,-0.372,1387.939,-886.352,-138.062,1
-8.000,0.769,0.598,1044.861,-760.681,-372.070,1
-7.508,0.702,0.751,820.923,-604.553,-510.071,1
-6.637,0.473,0.607,647.888,-465.149,-581.726,1
-6.332,0.256,0.563,460.693,-348.877,-617.737,1
-5.498,0.106,0.676,288.025,-262.695,-625.732,1
-4.856,0.176,0.895,212.891,-197.571,-614.502,1
-4.667,0.223,0.953,257.385,-137.207,-593.872,1
-4.645,0.003,0.804,327.393,-66.833,-570.007,1
-3.968,-0.418,0.668,269.897,0.549,-542.603,1
-3.286,-0.697,0.684,169.861,44.189,-512.451,1
-2.819,-0.680,0.670,98.083,73.914,-474.487,1
-2.407,-0.674,0.746,94.055,94.727,-432.861,1
-1.917,-0.639,0.830,158.325,116.882,-382.874,1
-1.485,-0.678,0.796,211.914,138.245,-336.792,1
-1.230,-0.773,0.767,216.370,159.363,-284.790,1
-1.090,-0.776,0.735,180.115,172.729,-234.802,1
-1.057,-0.634,0.664,179.199,183.044,-187.378,1
-0.906,-0.629,0.554,176.941,191.040,-147.949,1
-0.726,-0.576,0.445,157.043,196.838,-110.229,1
-0.573,-0.512,0.385,145.020,199.951,-77.454,1
-0.494,-0.435,0.344,136.292,199.707,-48.767,1
-0.379,-0.349,0.266,138.184,197.144,-23.132,1
-0.295,-0.284,0.227,139.160,192.627,-0.244,1
-0.224,-0.216,0.208,145.325,187.073,19.836,1
-0.133,-0.163,0.196,158.569,180.847,38.574,1
-0.070,-0.127,0.152,171.570,174.805,55.664,1
-0.013,-0.121,0.155,168.640,168.274,71.228,1
0.091,-0.113,0.103,146.301,161.926,84.351,1
