ax,ay,az,gx,gy,gz,label
-1.315,1.075,-0.418,-10.742,7.263,-26.978,1
-1.345,1.092,-0.478,-7.263,6.897,-44.312,1
-1.239,1.089,-0.496,-58.167,6.226,-61.096,1
-1.221,1.137,-0.486,-122.925,5.371,-74.219,1
-1.047,1.253,-0.380,-132.568,3.418,-81.848,1
-1.011,1.298,-0.331,-96.069,1.648,-87.036,1
-0.926,1.287,-0.299,-63.049,-1.465,-92.102,1
-0.966,1.263,-0.347,-47.424,-3.601,-98.022,1
-0.784,1.229,-0.341,-82.031,-7.385,-104.614,1
-0.764,1.303,-0.288,-79.346,-9.399,-110.474,1
-0.686,1.291,-0.271,-56.519,-8.850,-117.004,1
-0.564,1.294,-0.269,-54.016,-7.141,-124.084,1
-0.623,1.315,-0.247,-40.100,-4.883,-133.301,1
-0.562,1.253,-0.239,-32.043,-2.319,-143.982,1
-0.528,1.185,-0.214,-32.104,0.000,-155.090,1
-0.504,1.111,-0.194,-31.494,3.357,-163.696,1
-0.508,1.061,-0.159,-21.667,7.751,-172.913,1
-0.424,0.998,-0.127,2.686,13.306,-181.335,1
-0.577,0.910,-0.098,3.296,18.677,-190.247,1
-0.526,0.875,-0.082,16.663,24.170,-196.960,1
-0.563,0.790,-0.097,47.729,32.959,-204.529,1
-0.523,0.641,-0.102,51.941,42.725,-210.449,1
-0.490,0.516,-0.136,9.644,51.086,-215.027,1
-0.510,0.483,-0.072,-49.194,55.542,-220.093,1
-0.566,0.565,0.023,-43.640,55.725,-219.421,1
-0.476,0.586,0.030,44.373,59.387,-214.783,1
-0.394,0.518,0.027,101.624,66.162,-204.590,1
-0.122,0.426,-0.030,65.308,74.524,-188.416,1
-0.088,0.542,-0.094,-9.949,77.576,-171.570,1
-0.025,0.760,-0.031,-9.277,78.125,-157.532,1
0.016,0.920,-0.053,39.490,79.224,-142.456,1
-0.042,1.067,-0.132,57.556,79.407,-133.118,1
-0.142,1.198,-0.201,41.748,78.247,-129.700,1
-0.121,1.316,-0.221,49.194,75.195,-130.859,1
0.027,1.350,-0.253,92.224,72.998,-130.615,1
0.157,1.314,-0.323,83.740,71.716,-131.042,1
0.159,1.287,-0.357,53.528,69.946,-135.315,1
0.163,1.293,-0.341,65.979,66.956,-139.893,1
0.133,1.208,-0.345,127.441,64.636,-141.663,1
0.192,0.996,-0.420,144.775,65.857,-141.602,1
0.200,0.882,-0.435,87.708,64.331,-144.958,1
0.329,0.804,-0.431,54.932,62.073,-148.010,1
0.341,0.765,-0.387,71.228,60.486,-147.217,1
0.202,0.508,-0.510,105.286,62.805,-144.104,1
0.259,0.398,-0.670,79.651,64.392,-140.259,1
0.123,0.381,-0.535,46.021,63.416,-136.353,1
0.209,0.254,-0.439,9.094,62.012,-135.376,1
0.202,0.209,-0.319,-58.899,56.580,-132.324,1
0.385,0.239,-0.278,-96.130,48.584,-126.160,1
0.555,0.236,-0.298,-78.918,43.945,-120.544,1
0.459,0.266,-0.370,-10.376,43.091,-109.192,1
0.190,0.234,-0.360,64.209,46.692,-98.267,1
0.127,0.165,-0.385,95.947,49.438,-90.576,1
0.412,0.137,-0.387,84.106,50.842,-81.116,1
0.825,0.140,-0.392,55.664,52.246,-69.458,1
0.863,0.160,-0.480,27.893,50.781,-60.547,1
0.599,0.238,-0.528,12.207,49.927,-49.133,1
0.447,0.170,-0.517,15.381,46.570,-42.114,1
0.480,0.191,-0.468,23.804,39.185,-42.175,1
0.417,0.214,-0.503,43.030,33.569,-41.870,1
0.547,0.247,-0.489,45.288,28.564,-40.039,1
0.623,0.312,-0.471,46.448,21.545,-36.255,1
0.640,0.394,-0.503,56.030,14.099,-28.748,1
0.646,0.410,-0.519,65.186,7.507,-23.437,1
0.646,0.435,-0.512,70.374,2.869,-21.851,1
0.787,0.451,-0.484,67.871,-1.526,-20.813,1
0.871,0.476,-0.462,60.669,-5.066,-18.250,1
0.911,0.503,-0.449,55.603,-6.836,-12.817,1
0.829,0.442,-0.448,46.814,-7.080,-8.545,1
0.822,0.465,-0.336,30.823,-7.141,-8.118,1
0.807,0.434,-0.267,25.269,-5.310,-8.362,1
0.780,0.394,-0.239,17.944,-4.028,-8.423,1
0.818,0.422,-0.291,10.010,-2.625,-8.057,1
0.865,0.467,-0.352,12.024,-0.427,-7.263,1
0.846,0.492,-0.381,7.629,1.648,-5.981,1
0.764,0.524,-0.402,4.700,5.005,-5.310,1
0.685,0.571,-0.410,18.677,9.460,-4.944,1
0.728,0.571,-0.351,22.034,13.489,-5.798,1
0.709,0.587,-0.289,17.151,15.564,-6.897,1
0.658,0.552,-0.284,-2.686,15.625,-9.033,1
0.683,0.544,-0.319,-25.391,15.198,-11.169,1
0.690,0.547,-0.358,-17.273,15.503,-12.268,1
0.728,0.513,-0.412,6.226,15.625,-12.146,1
0.734,0.487,-0.449,17.212,15.991,-12.146,1
0.771,0.463,-0.473,6.592,16.479,-12.268,1
0.790,0.466,-0.474,-10.315,16.113,-12.756,1
0.767,0.464,-0.483,-17.029,14.893,-13.672,1
0.755,0.462,-0.489,-14.343,12.878,-13.977,1
0.795,0.471,-0.476,2.686,10.925,-12.878,1
0.826,0.471,-0.463,11.719,10.193,-12.390,1
0.853,0.489,-0.469,5.920,8.789,-12.268,1
0.841,0.512,-0.468,-7.690,7.263,-13.977,1
0.856,0.531,-0.442,-10.742,5.005,-15.747,1
0.884,0.553,-0.405,3.113,1.831,-17.883,1
0.932,0.557,-0.381,15.869,-1.038,-19.409,1
0.952,0.564,-0.368,8.301,-3.235,-21.606,1
0.918,0.595,-0.361,-7.568,-5.188,-25.818,1
0.909,0.636,-0.306,-0.305,-7.080,-30.396,1
0.945,0.659,-0.303,29.663,-8.423,-34.424,1
0.988,0.619,-0.267,54.687,-10.315,-38.757,1
1.033,0.588,-0.247,45.837,-11.719,-42.603,1
0.995,0.595,-0.199,26.550,-13.733,-47.424,1
0.955,0.618,-0.181,34.790,-15.625,-52.368,1
1.002,0.588,-0.184,53.040,-16.174,-56.396,1
1.035,0.543,-0.179,58.228,-15.015,-60.791,1
1.019,0.556,-0.186,52.551,-12.695,-66.650,1
0.946,0.596,-0.193,44.983,-11.414,-73.853,1
0.958,0.620,-0.164,47.729,-10.559,-82.764,1
0.993,0.573,-0.131,48.523,-7.996,-90.820,1
1.015,0.534,-0.098,40.527,-4.272,-98.816,1
1.011,0.469,-0.055,45.532,0.916,-108.582,1
1.055,0.416,-0.024,40.527,6.531,-117.065,1
1.118,0.352,-0.049,37.109,14.771,-124.146,1
1.023,0.275,-0.018,25.146,23.987,-132.629,1
1.049,0.223,0.011,19.897,33.386,-141.235,1
0.852,0.131,-0.008,36.316,43.274,-147.095,1
0.670,-0.092,-0.043,48.828,56.396,-153.015,1
0.552,-0.216,-0.088,40.649,70.923,-155.823,1
0.481,-0.392,-0.140,14.160,83.679,-154.785,1
0.509,-0.547,-0.208,-15.503,91.614,-147.461,1
0.414,-0.774,-0.154,-41.199,92.346,-137.207,1
0.119,-0.937,-0.282,-31.372,92.834,-123.413,1
-0.220,-1.122,-0.387,10.620,96.375,-106.384,1
-0.507,-1.287,-0.520,17.761,103.027,-86.487,1
-0.684,-1.381,-0.489,24.536,107.727,-60.669,1
-0.774,-1.552,-0.525,25.757,113.098,-27.344,1
-0.784,-1.631,-0.521,-6.775,117.371,13.855,1
-0.795,-1.672,-0.453,-10.071,120.728,62.439,1
-0.971,-1.744,-0.585,4.700,122.803,116.943,1
-1.307,-1.613,-0.829,21.973,122.375,177.979,1
-1.808,-1.635,-0.922,15.259,118.713,247.314,1
-2.254,-1.557,-0.880,19.043,111.389,316.162,1
-2.875,-1.449,-0.892,30.640,97.290,387.512,1
-3.562,-1.260,-1.018,44.861,77.454,459.412,1
-4.341,-1.144,-1.137,75.867,44.434,538.513,1
-5.299,-0.946,-1.305,97.412,3.723,614.014,1
-6.623,-1.318,-1.238,216.064,-66.467,709.106,1
-7.988,-0.960,-1.731,317.871,-170.227,800.171,1
-8.000,-0.660,-1.486,342.346,-303.162,876.465,1
-8.000,-0.302,-1.089,430.725,-446.472,924.866,1
-8.000,0.133,-0.572,544.373,-631.531,928.650,1
-8.000,0.690,0.358,646.423,-827.637,868.042,1
-8.000,1.583,1.136,781.494,-1012.390,743.042,1
-8.000,1.806,1.465,901.306,-1145.142,565.430,1
-8.000,1.975,2.182,1219.910,-1192.139,265.747,1
-8.000,1.297,2.017,1233.948,-1144.775,-95.032,1
-8.000,1.469,1.966,1223.328,-971.435,-399.963,1
-8.000,0.455,1.394,1233.459,-699.646,-630.676,1
-8.000,-0.641,0.583,834.106,-417.419,-750.671,1
-8.000,-0.876,0.790,404.114,-232.971,-746.643,1
-7.365,-0.849,1.219,409.973,-106.079,-693.909,1
-6.270,-1.267,1.117,465.393,18.188,-622.742,1
-4.903,-1.620,0.773,323.181,111.633,-549.072,1
-4.162,-1.556,0.637,185.486,163.879,-476.685,1
-3.760,-1.453,0.627,215.027,199.585,-402.588,1
-3.304,-1.578,0.392,168.457,222.290,-333.435,1
-2.786,-1.415,0.410,108.765,229.126,-270.691,1
-2.257,-1.195,0.401,89.844,225.952,-215.454,1
-1.744,-1.009,0.375,75.500,217.285,-159.546,1
-1.339,-0.803,0.270,105.774,206.909,-114.075,1
-1.044,-0.624,0.298,123.169,195.251,-72.937,1
-0.856,-0.497,0.288,130.554,186.035,-38.391,1
-0.707,-0.361,0.255,112.427,178.772,-10.925,1
-0.579,-0.212,0.303,83.618,173.645,10.376,1
-0.518,-0.126,0.345,78.674,168.884,25.208,1
-0.330,-0.111,0.355,91.614,164.062,36.743,1
0.002,-0.065,0.320,105.225,160.583,48.279,1
0.053,-0.082,0.258,90.820,158.386,55.054,1
0.178,-0.045,0.268,79.468,156.250,58.044,1
0.272,0.005,0.265,93.994,155.334,60.059,1
0.444,0.015,0.260,111.023,155.212,62.256,1
0.491,0.017,0.241,103.210,152.954,62.744,1
0.561,0.100,0.208,87.646,150.818,62.805,1
0.613,0.177,0.144,102.600,150.085,62.744,1
0.577,0.209,0.056,128.662,150.452,61.829,1
0.549,0.206,-0.012,140.198,150.330,61.218,1
0.626,0.215,-0.026,124.268,149.414,62.683,1
0.724,0.309,-0.006,100.647,148.193,66.406,1
0.802,0.412,0.008,89.600,145.569,69.580,1
0.744,0.545,-0.028,107.910,143.005,72.388,1
0.686,0.631,-0.083,150.818,140.503,74.585,1
0.620,0.698,-0.133,180.176,138.367,76.782,1
0.490,0.756,-0.209,187.195,136.230,77.148,1
0.479,0.836,-0.285,153.076,134.338,74.951,1
0.554,1.002,-0.332,116.394,132.629,69.702,1
0.553,1.181,-0.306,138.611,129.883,63.232,1
0.482,1.251,-0.339,186.096,124.695,57.312,1
0.506,1.289,-0.446,187.134,118.958,50.354,1
0.584,1.415,-0.511,164.734,113.708,41.016,1
0.670,1.484,-0.514,139.282,109.741,27.954,1
0.743,1.487,-0.492,131.165,106.140,13.733,1
0.780,1.456,-0.462,144.165,103.149,0.183,1
0.852,1.438,-0.504,153.137,100.708,-10.254,1
0.837,1.376,-0.531,138.489,99.060,-20.691,1
0.781,1.334,-0.548,132.507,96.802,-30.945,1
0.722,1.220,-0.476,147.766,95.337,-40.039,1
0.713,1.075,-0.433,155.334,93.872,-45.288,1
0.648,0.944,-0.415,130.859,91.675,-47.546,1
0.735,0.887,-0.458,137.573,88.257,-46.021,1
0.721,0.798,-0.483,143.860,85.144,-43.335,1
0.549,0.755,-0.443,131.958,83.557,-40.649,1
0.531,0.819,-0.478,117.004,82.092,-38.452,1
0.626,0.809,-0.516,109.131,81.116,-36.926,1
0.596,0.933,-0.496,138.672,78.735,-35.400,1
0.743,0.963,-0.513,134.338,74.158,-34.851,1
0.754,1.055,-0.540,112.671,69.885,-36.987,1
0.801,1.103,-0.517,76.843,64.758,-43.823,1
0.829,1.254,-0.537,37.109,58.594,-54.871,1
0.861,1.405,-0.528,36.865,49.988,-66.406,1
0.795,1.460,-0.626,65.918,39.734,-79.163,1
0.644,1.461,-0.675,93.140,28.198,-93.018,1
0.759,1.270,-0.789,61.401,12.085,-108.276,1
1.012,1.072,-0.978,-19.897,-9.644,-121.277,1
1.113,0.979,-0.924,-50.415,-33.997,-126.160,1
1.117,0.800,-0.908,-6.470,-55.725,-124.390,1
1.132,0.744,-0.854,51.941,-69.458,-120.605,1
0.942,0.631,-0.809,83.801,-79.468,-119.507,1
0.733,0.542,-0.701,104.370,-87.708,-121.216,1
0.629,0.480,-0.575,155.212,-91.248,-123.596,1
0.646,0.358,-0.473,183.350,-89.905,-127.747,1
0.577,0.151,-0.361,152.222,-84.412,-132.202,1
0.534,0.134,-0.248,104.431,-77.759,-137.207,1
0.559,0.215,-0.054,95.398,-70.496,-141.724,1
0.668,0.225,0.153,105.896,-61.707,-145.630,1
0.659,0.214,0.280,125.061,-48.889,-149.841,1
0.576,0.104,0.393,129.700,-34.668,-153.198,1
0.482,0.010,0.488,116.333,-16.602,-156.250,1
0.368,-0.058,0.557,106.628,5.005,-155.640,1
0.208,-0.183,0.631,96.008,27.039,-151.733,1
0.089,-0.285,0.684,86.121,48.828,-145.264,1
-0.020,-0.395,0.722,97.595,73.242,-133.118,1
-0.089,-0.576,0.666,104.248,99.182,-116.028,1
-0.303,-0.757,0.535,84.045,125.977,-94.666,1
-0.519,-0.920,0.335,67.688,150.146,-73.364,1
-0.693,-1.007,0.234,51.758,171.448,-47.302,1
-0.909,-1.063,0.119,69.092,191.162,-15.198,1
-1.057,-1.229,-0.110,74.219,209.778,24.536,1
-1.378,-1.425,-0.357,70.496,226.868,68.359,1
-1.704,-1.363,-0.618,44.434,243.164,122.253,1
-2.208,-1.388,-0.798,58.228,254.517,176.819,1
-2.813,-1.464,-1.075,-35.095,260.803,244.080,1
-3.541,-1.272,-1.321,-59.753,265.625,310.120,1
-4.326,-1.174,-1.712,-50.903,264.099,384.644,1
-4.766,-1.123,-1.787,16.785,249.451,472.656,1
-5.431,-1.112,-2.035,172.485,202.332,596.985,1
-6.328,-1.177,-2.295,307.190,104.675,745.178,1
-7.908,-1.070,-2.289,367.187,-30.151,881.714,1
-8.000,-0.816,-2.025,452.820,-216.553,1006.653,1
-8.000,-0.452,-1.458,566.345,-440.552,1077.881,1
-8.000,0.156,-1.081,715.271,-687.012,1076.355,1
-8.000,0.613,-0.299,621.521,-916.199,989.075,1
-8.000,1.188,1.124,558.228,-1085.632,896.301,1
-8.000,1.927,1.197,745.178,-1194.946,788.635,1
-8.000,1.955,0.739,1262.634,-1251.160,516.418,1
-8.000,1.773,1.110,1585.937,-1230.225,65.735,1
-8.000,0.884,0.701,1276.550,-1046.143,-360.718,1
-8.000,0.284,0.824,1066.711,-797.302,-601.379,1
-8.000,-0.240,0.595,803.711,-566.223,-721.252,1
-8.000,-0.274,0.560,551.025,-394.836,-747.681,1
-8.000,-0.567,0.763,342.407,-258.240,-722.107,1
-6.956,-0.801,0.710,319.092,-168.213,-679.321,1
-5.531,-1.016,0.620,363.708,-68.726,-618.164,1
-4.633,-1.441,0.592,303.650,16.357,-546.326,1
-3.910,-1.662,0.530,185.181,71.411,-470.337,1
-3.282,-1.658,0.544,205.749,106.750,-395.691,1
-2.775,-1.704,0.390,199.341,136.108,-315.979,1
-2.546,-1.654,0.311,125.854,151.306,-244.141,1
-2.064,-1.523,0.301,61.096,158.813,-181.091,1
-1.584,-1.513,0.284,70.862,161.194,-124.390,1
-1.265,-1.385,0.309,59.265,157.715,-79.590,1
-1.001,-1.172,0.343,65.002,151.978,-32.166,1
-0.712,-0.905,0.391,73.975,145.813,1.953,1
-0.395,-0.609,0.429,91.858,139.038,34.241,1
-0.212,-0.358,0.432,101.440,133.362,60.852,1
-0.112,-0.214,0.463,107.422,130.432,81.238,1
0.057,-0.068,0.469,82.153,127.625,93.811,1
0.133,-0.024,0.489,76.660,127.258,100.830,1
0.469,0.179,0.597,72.632,124.817,107.178,1
0.475,0.252,0.625,68.726,123.413,107.544,1
0.523,0.256,0.605,63.599,121.033,103.210,1
0.655,0.307,0.590,73.547,119.507,97.839,1
0.752,0.339,0.479,76.904,117.920,93.201,1
0.865,0.419,0.406,89.722,116.150,89.539,1
0.906,0.459,0.325,88.440,115.601,84.839,1
0.894,0.492,0.255,92.896,114.624,76.599,1
0.998,0.578,0.228,124.451,112.549,69.824,1
1.092,0.604,0.196,165.039,108.826,67.871,1
1.098,0.602,0.118,198.608,107.239,70.313,1
1.039,0.603,0.092,203.796,107.178,75.500,1
0.967,0.549,0.049,182.556,107.788,78.918,1
0.898,0.666,0.069,191.650,106.995,81.970,1
0.909,0.688,0.083,237.488,106.567,83.557,1
0.796,0.680,0.000,251.831,104.248,85.266,1
0.678,0.634,-0.055,233.276,103.882,85.327,1
0.605,0.589,-0.071,164.429,105.469,83.923,1
0.528,0.621,-0.074,88.867,107.666,78.552,1
0.484,0.798,-0.043,78.552,109.009,73.303,1
0.437,0.917,-0.038,118.835,108.093,67.932,1
0.520,0.949,-0.097,157.776,107.178,63.171,1
0.658,0.970,-0.160,135.376,108.337,57.617,1
0.681,1.040,-0.257,61.707,111.877,45.227,1
0.636,1.286,-0.211,22.034,114.746,30.334,1
0.665,1.490,-0.198,36.255,114.624,14.832,1
0.662,1.580,-0.169,74.097,111.206,-0.732,1
0.695,1.550,-0.190,80.933,107.117,-16.541,1
0.641,1.421,-0.320,30.762,103.455,-37.903,1
0.600,1.387,-0.479,23.560,101.440,-61.279,1
0.466,1.262,-0.479,96.191,99.976,-80.811,1
0.531,1.096,-0.464,119.995,97.900,-93.201,1
0.720,0.955,-0.347,111.145,94.727,-102.722,1
0.852,0.858,-0.313,121.887,93.201,-106.018,1
0.826,0.681,-0.328,142.883,94.788,-105.896,1
0.833,0.459,-0.486,147.522,99.976,-105.408,1
0.950,0.382,-0.394,101.440,105.041,-106.628,1
1.133,0.410,-0.306,113.281,109.924,-105.957,1
1.028,0.412,-0.258,146.301,116.577,-101.074,1
0.782,0.543,-0.331,158.020,126.343,-84.778,1
0.910,0.328,-0.455,103.638,128.113,-64.575,1
0.917,0.278,-0.406,61.523,130.249,-50.598,1
0.866,0.274,-0.319,48.767,131.470,-44.128,1
0.680,0.349,-0.293,86.243,131.836,-37.964,1
0.511,0.383,-0.275,124.878,128.601,-38.757,1
0.316,0.512,-0.398,131.042,120.911,-40.466,1
0.418,0.683,-0.490,161.316,114.807,-40.283,1
0.656,0.798,-0.582,196.838,107.178,-41.748,1
0.740,0.924,-0.704,198.853,100.525,-45.044,1
0.755,1.052,-0.757,172.974,94.971,-52.185,1
0.839,1.133,-0.796,154.602,92.041,-59.631,1
0.877,1.216,-0.793,147.095,90.393,-67.627,1
0.916,1.289,-0.742,144.104,90.088,-77.393,1
0.942,1.399,-0.616,126.526,89.172,-88.928,1
0.929,1.449,-0.510,136.047,90.759,-108.032,1
0.793,1.463,-0.433,140.625,95.276,-134.094,1
0.651,1.406,-0.378,102.844,104.370,-160.217,1
0.468,1.240,-0.268,75.806,115.417,-180.603,1
0.288,0.993,-0.244,40.283,125.488,-197.937,1
0.082,0.764,-0.297,-3.540,134.705,-210.266,1
-0.092,0.563,-0.364,-39.490,142.029,-218.750,1
-0.301,0.364,-0.373,-66.895,148.010,-223.755,1
-0.558,0.172,-0.404,-55.420,153.748,-224.670,1
-0.668,-0.057,-0.400,-28.198,160.156,-220.764,1
-0.839,-0.231,-0.430,-4.211,167.236,-210.083,1
-1.031,-0.495,-0.419,12.024,173.889,-191.956,1
-1.043,-0.679,-0.614,10.437,180.237,-169.800,1
-1.146,-0.834,-0.819,-23.926,186.340,-142.151,1
-1.193,-0.998,-0.939,-67.932,189.697,-110.046,1
-1.141,-0.976,-0.996,-47.791,190.918,-72.754,1
-1.221,-0.917,-1.030,24.048,187.256,-31.067,1
-1.302,-0.765,-1.239,92.407,179.321,18.250,1
-1.524,-0.771,-1.230,168.823,165.710,75.256,1
-1.589,-0.817,-1.431,160.400,144.287,136.841,1
-1.568,-0.896,-1.547,77.576,118.835,195.068,1
-1.790,-0.983,-1.751,-34.180,86.487,259.155,1
-2.089,-1.032,-1.936,-106.445,51.880,325.989,1
-2.671,-1.202,-2.254,-123.108,5.432,418.152,1
-3.396,-1.347,-2.711,-117.371,-46.753,510.864,1
-4.187,-1.430,-2.809,-2.686,-120.605,623.413,1
-5.498,-1.376,-2.821,129.700,-234.131,729.736,1
-7.234,-1.114,-2.619,289.612,-395.813,805.420,1
-8.000,-0.770,-2.051,392.883,-593.323,831.787,1
-8.000,-0.576,-1.469,444.458,-797.424,802.795,1
-8.000,-0.205,-0.872,467.224,-970.276,736.511,1
-8.000,0.038,-0.355,411.316,-1088.684,675.842,1
-8.000,0.099,0.164,385.254,-1181.702,612.122,1
-8.000,0.987,1.332,525.330,-1249.878,543.274,1
-8.000,1.270,1.924,748.535,-1321.777,371.521,1
-8.000,1.240,2.035,912.842,-1333.557,134.583,1
-8.000,1.285,2.400,1208.923,-1261.841,-167.358,1
-8.000,0.615,2.324,1184.509,-1087.341,-507.568,1
-8.000,0.507,1.765,1180.359,-813.599,-743.896,1
-8.000,-0.593,0.657,840.027,-530.579,-867.432,1
-8.000,-0.840,0.720,340.210,-361.572,-868.103,1
-8.000,-1.127,0.817,166.138,-281.860,-815.918,1
-7.321,-1.123,1.401,254.822,-222.168,-753.418,1
-6.311,-1.439,1.322,394.104,-147.278,-692.200,1
-4.354,-1.905,1.555,290.222,-68.726,-615.601,1
-3.388,-1.367,1.457,290.222,-3.723,-514.221,1
-2.717,-1.296,1.440,392.700,60.181,-412.720,1
-2.174,-1.241,1.156,387.695,129.272,-289.673,1
-2.194,-0.905,1.004,350.464,171.143,-195.984,1
-2.256,-0.494,0.960,279.541,195.374,-116.760,1
-2.296,-0.325,0.911,197.693,205.383,-57.251,1
-1.997,-0.233,0.882,94.543,204.773,-12.207,1
-1.746,-0.094,0.871,86.731,199.890,19.409,1
-1.636,0.049,0.788,123.352,196.533,46.326,1
-1.448,0.195,0.771,171.814,194.641,70.862,1
-1.308,0.214,0.705,184.875,193.176,96.130,1
-1.143,0.247,0.717,169.678,192.749,115.356,1
-0.990,0.292,0.758,143.066,195.312,131.470,1
-0.836,0.359,0.860,130.432,198.547,142.517,1
-0.655,0.342,0.883,128.052,202.393,148.682,1
-0.524,0.338,0.888,102.966,205.200,151.367,1
-0.389,0.408,0.865,67.444,207.397,149.231,1
-0.214,0.508,0.844,41.565,209.839,144.470,1
-0.018,0.551,0.850,46.387,211.121,137.268,1
0.251,0.587,0.776,86.731,209.229,132.446,1
0.505,0.656,0.708,125.732,204.224,132.690,1
0.688,0.829,0.699,164.185,198.120,137.085,1
0.678,0.911,0.688,168.091,193.237,139.038,1
0.570,0.957,0.596,155.945,193.848,133.850,1
0.490,1.087,0.630,149.170,193.054,126.404,1
0.453,1.160,0.577,159.180,189.636,120.178,1
0.394,1.189,0.554,198.486,182.800,113.831,1
0.422,1.170,0.450,195.496,178.284,106.018,1
0.480,1.196,0.425,165.649,177.185,96.375,1
0.405,1.281,0.398,167.908,177.795,82.642,1
0.353,1.397,0.368,223.328,179.138,72.876,1
0.347,1.301,0.239,289.001,179.687,66.711,1
0.345,1.266,0.113,283.569,181.641,63.965,1
0.338,1.207,0.060,223.328,183.350,58.655,1
0.288,1.273,0.067,189.514,182.373,52.429,1
0.251,1.264,-0.023,189.697,179.626,47.302,1
0.206,1.329,-0.156,227.112,177.124,43.823,1
0.147,1.145,-0.351,221.008,175.171,40.833,1
0.158,1.083,-0.336,154.907,171.020,33.630,1
0.333,1.227,-0.308,138.794,164.673,25.146,1
0.413,1.313,-0.367,164.246,155.945,17.700,1
0.317,1.258,-0.552,193.115,153.625,9.827,1
0.359,1.306,-0.519,178.711,153.137,1.099,1
0.402,1.239,-0.471,120.728,151.978,-11.963,1
0.540,1.295,-0.520,88.867,148.560,-27.893,1
0.612,1.321,-0.541,105.530,143.738,-40.405,1
0.638,1.365,-0.590,114.929,139.343,-50.842,1
0.587,1.386,-0.674,114.685,136.658,-63.904,1
0.588,1.344,-0.612,124.634,136.047,-75.623,1
0.616,1.240,-0.620,134.827,136.475,-86.609,1
0.605,1.141,-0.616,118.530,136.780,-95.642,1
0.583,1.146,-0.629,92.163,135.681,-104.553,1
0.609,1.124,-0.640,79.651,132.263,-113.647,1
0.625,0.986,-0.754,82.520,129.272,-120.422,1
0.567,0.850,-0.772,78.735,125.793,-125.854,1
0.617,0.644,-0.836,70.801,123.230,-128.113,1
0.628,0.576,-0.771,63.721,120.605,-127.625,1
0.591,0.546,-0.752,80.811,116.638,-124.329,1
0.510,0.453,-0.789,77.148,112.549,-120.850,1
0.476,0.424,-0.796,73.303,107.117,-119.202,1
0.548,0.414,-0.864,89.478,103.088,-116.821,1
0.560,0.427,-0.807,100.220,98.267,-113.831,1
0.593,0.480,-0.825,114.136,93.994,-110.840,1
0.636,0.495,-0.835,103.943,91.003,-109.131,1
0.646,0.529,-0.845,79.224,87.036,-109.741,1
0.649,0.534,-0.803,60.120,82.397,-112.671,1
0.614,0.509,-0.790,59.631,77.942,-116.821,1
0.567,0.450,-0.710,52.429,74.402,-120.911,1
0.645,0.459,-0.653,55.542,72.937,-123.474,1
0.588,0.473,-0.661,63.599,73.120,-125.793,1
0.555,0.432,-0.685,60.486,73.303,-130.371,1
0.489,0.373,-0.724,28.748,72.632,-135.986,1
0.462,0.312,-0.721,0.427,71.472,-141.907,1
0.373,0.210,-0.673,-5.188,68.298,-146.851,1
0.318,0.139,-0.667,21.301,64.636,-150.391,1
0.208,0.034,-0.753,53.528,64.087,-152.222,1
0.083,-0.062,-0.847,55.603,66.284,-152.893,1
-0.011,-0.109,-0.840,44.128,69.702,-151.428,1
-0.099,-0.127,-0.775,49.255,74.402,-148.071,1
-0.182,-0.166,-0.711,63.171,80.444,-142.700,1
-0.194,-0.194,-0.736,55.481,86.914,-134.338,1
-0.276,-0.248,-0.763,21.301,93.018,-124.573,1
-0.331,-0.291,-0.800,5.798,97.778,-113.464,1
-0.343,-0.370,-0.876,-21.118,100.647,-101.074,1
-0.432,-0.463,-0.893,-48.218,100.891,-87.769,1
-0.485,-0.548,-0.900,-35.217,101.562,-72.449,1
-0.544,-0.708,-0.948,-15.320,101.990,-54.138,1
-0.807,-0.971,-1.095,-42.053,102.844,-31.311,1
-1.112,-1.152,-1.253,-83.313,103.149,-4.089,1
-1.339,-1.364,-1.378,-65.002,103.516,35.278,1
-1.648,-1.645,-1.615,-65.796,105.408,87.952,1
-1.957,-1.781,-1.642,-108.887,108.093,158.936,1
-2.439,-1.816,-1.636,-98.938,109.009,240.845,1
-2.829,-2.149,-1.870,-119.751,103.455,338.928,1
-3.607,-2.363,-2.101,-108.643,89.966,453.186,1
-4.602,-2.471,-2.358,-70.435,57.373,583.496,1
-5.905,-2.434,-2.620,27.893,-6.592,726.501,1
-7.818,-2.356,-2.430,182.983,-125.488,862.732,1
-8.000,-1.818,-1.988,349.853,-298.462,968.872,1
-8.000,-1.272,-1.477,487.610,-512.329,1020.508,1
-8.000,-0.715,-0.794,550.781,-725.952,1007.935,1
-8.000,0.022,0.149,644.592,-938.904,927.856,1
-8.000,0.556,1.066,755.493,-1118.713,784.790,1
-8.000,0.875,2.132,856.445,-1272.339,572.205,1
-8.000,1.244,2.335,900.085,-1344.543,328.979,1
-8.000,1.471,2.633,1115.112,-1305.847,-10.803,1
-8.000,1.123,1.862,1248.596,-1148.010,-374.084,1
-8.000,0.333,0.685,1173.767,-888.245,-644.653,1
-8.000,-0.332,0.730,874.878,-601.318,-803.772,1
-8.000,-0.802,1.060,474.487,-406.006,-836.548,1
-8.000,-0.827,1.314,269.897,-294.983,-812.195,1
-8.000,-0.969,1.577,384.644,-191.833,-771.362,1
-6.832,-1.131,1.566,416.138,-105.774,-722.168,1
-5.777,-1.421,1.487,318.665,-6.104,-630.615,1
-4.300,-1.455,1.670,289.673,79.712,-520.996,1
-3.105,-1.400,1.611,353.516,148.315,-408.752,1
-2.397,-1.373,1.077,388.550,193.665,-315.369,1
-2.566,-0.367,1.403,436.707,224.609,-212.708,1
-2.458,-0.233,1.205,391.907,244.446,-122.437,1
-1.960,-0.186,1.216,286.682,251.038,-48.889,1
-1.722,-0.034,1.246,258.301,250.977,6.165,1
-1.548,0.049,1.187,249.207,247.620,48.035,1
-1.525,0.159,1.160,227.783,240.601,83.679,1
-1.522,0.143,1.099,187.317,233.276,108.643,1
-1.335,0.210,1.072,147.888,225.342,124.756,1
-1.195,0.234,0.969,147.217,219.971,134.583,1
-1.081,0.199,0.899,152.710,214.905,138.489,1
-0.891,0.186,0.733,136.230,208.923,139.343,1
-0.800,0.196,0.582,94.055,207.153,138.733,1
-0.617,0.174,0.590,62.683,205.383,134.521,1
-0.486,0.213,0.486,61.035,204.834,130.432,1
-0.271,0.180,0.364,84.106,203.186,126.953,1
-0.129,0.171,0.291,103.943,202.209,125.000,1
0.015,0.208,0.232,115.051,198.853,124.023,1
-0.025,0.212,0.216,145.569,195.435,122.559,1
0.035,0.271,0.156,171.509,188.110,121.338,1
0.107,0.226,0.089,166.443,179.626,121.277,1
0.276,0.310,0.021,150.696,173.645,122.253,1
0.337,0.377,0.068,145.691,170.288,125.122,1
0.279,0.460,0.047,140.564,166.321,124.390,1
0.371,0.632,0.114,145.447,163.086,122.864,1
0.328,0.818,0.091,168.823,162.415,120.666,1
0.248,1.000,0.151,185.303,160.156,113.770,1
0.221,1.102,0.048,192.810,160.522,103.455,1
0.287,1.241,-0.042,183.105,160.950,92.224,1
0.334,1.432,-0.066,193.237,161.316,80.078,1
0.423,1.529,-0.130,199.829,161.377,68.420,1
0.428,1.613,-0.147,191.772,161.377,55.664,1
0.507,1.655,-0.214,201.233,162.415,42.969,1
0.472,1.687,-0.291,184.937,162.109,29.480,1
0.449,1.706,-0.339,172.546,163.147,15.503,1
0.510,1.754,-0.266,162.292,163.452,2.258,1
0.508,1.720,-0.207,167.541,163.330,-11.536,1
0.533,1.575,-0.277,173.401,164.551,-22.278,1
0.538,1.411,-0.413,155.518,167.053,-33.264,1
0.495,1.325,-0.534,118.958,167.725,-44.678,1
0.502,1.301,-0.513,111.572,166.992,-55.054,1
0.491,1.245,-0.436,141.541,166.260,-61.951,1
0.469,1.212,-0.389,169.128,165.405,-65.369,1
0.403,1.185,-0.475,179.932,163.330,-68.359,1
0.360,1.157,-0.482,161.255,158.203,-71.472,1
0.414,1.146,-0.579,146.240,152.283,-74.036,1
0.534,1.065,-0.818,119.934,147.095,-76.782,1
0.393,0.997,-0.984,89.905,143.188,-80.566,1
0.415,1.018,-0.983,106.201,140.076,-83.374,1
0.355,0.960,-0.969,89.844,135.803,-88.501,1
0.437,0.948,-0.925,66.406,129.456,-94.238,1
0.468,0.938,-0.850,75.317,120.666,-99.243,1
0.485,0.879,-0.792,102.722,113.098,-101.074,1
0.437,0.859,-0.859,106.445,105.347,-101.990,1
0.383,0.896,-0.930,106.018,98.572,-104.797,1
0.388,0.856,-0.991,105.469,92.651,-108.398,1
0.398,0.801,-0.965,81.787,87.036,-111.511,1
0.488,0.761,-0.910,73.303,81.299,-113.098,1
0.598,0.742,-0.886,85.693,77.759,-113.525,1
0.632,0.715,-0.856,88.135,74.585,-113.770,1
0.668,0.686,-0.845,75.500,71.899,-114.136,1
0.712,0.676,-0.829,59.814,69.702,-113.098,1
0.730,0.702,-0.745,58.411,67.139,-111.450,1
0.651,0.720,-0.743,80.872,64.880,-110.229,1
0.576,0.685,-0.749,108.032,63.354,-110.474,1
0.553,0.575,-0.755,98.999,63.354,-111.877,1
0.597,0.507,-0.732,58.044,65.247,-113.892,1
0.624,0.475,-0.632,12.390,66.589,-114.929,1
0.592,0.501,-0.530,20.020,68.054,-114.685,1
0.528,0.508,-0.501,89.355,72.510,-111.938,1
0.446,0.455,-0.510,147.705,81.299,-106.384,1
0.335,0.365,-0.545,144.714,92.407,-100.098,1
0.295,0.275,-0.514,76.965,103.333,-95.276,1
0.330,0.229,-0.475,2.136,112.183,-93.750,1
0.352,0.268,-0.429,-40.100,118.713,-94.604,1
0.294,0.289,-0.430,-52.734,123.657,-95.947,1
0.212,0.243,-0.486,-78.125,127.686,-98.755,1
0.138,0.189,-0.564,-134.949,130.066,-103.149,1
0.075,0.190,-0.603,-179.016,131.348,-109.741,1
-0.034,0.159,-0.630,-187.927,131.226,-116.760,1
-0.198,0.145,-0.635,-168.091,130.371,-124.390,1
-0.415,0.074,-0.679,-139.954,129.211,-133.118,1
-0.540,-0.027,-0.719,-108.215,129.578,-140.381,1
-0.620,-0.144,-0.786,-74.829,130.493,-143.127,1
-0.722,-0.298,-0.868,-48.279,129.456,-139.709,1
-0.751,-0.524,-1.047,-42.480,127.869,-128.479,1
-0.718,-0.674,-1.140,-29.114,127.014,-113.342,1
-0.665,-0.802,-1.214,-50.842,124.817,-91.736,1
-0.639,-0.857,-1.278,-77.881,120.666,-68.298,1
-0.748,-0.974,-1.360,-88.745,115.540,-37.109,1
-0.919,-1.076,-1.418,-108.887,108.643,-4.761,1
-1.116,-1.225,-1.406,-114.929,99.060,30.640,1
-1.400,-1.428,-1.464,-90.759,89.661,72.205,1
-1.544,-1.664,-1.473,-95.459,77.393,121.765,1
-2.051,-1.892,-1.599,-83.130,62.866,180.298,1
-2.438,-2.146,-1.773,-86.243,44.189,251.160,1
-2.877,-2.563,-2.026,-75.317,21.301,329.407,1
-3.097,-2.900,-2.306,-57.373,-13.794,443.420,1
-3.850,-3.132,-2.518,-3.052,-58.533,568.665,1
-4.978,-3.227,-2.652,54.932,-115.112,690.796,1
-6.811,-2.901,-2.472,134.827,-194.153,818.909,1
-7.998,-2.279,-2.186,181.885,-298.279,933.472,1
-8.000,-1.518,-1.653,225.708,-403.198,1008.789,1
-8.000,-0.748,-0.986,303.833,-526.123,1050.842,1
-8.000,-0.104,-0.316,356.018,-641.479,1052.551,1
-8.000,0.574,0.546,425.171,-761.902,1014.343,1
-8.000,0.659,1.362,503.174,-882.446,924.133,1
-8.000,0.815,1.721,517.456,-954.834,810.608,1
-8.000,1.017,2.194,754.822,-1021.851,639.038,1
-8.000,1.283,2.422,965.515,-1085.083,374.817,1
-8.000,1.555,2.594,1131.226,-1092.834,120.056,1
-8.000,1.326,2.311,1236.694,-1024.231,-166.565,1
-8.000,0.605,1.800,1060.242,-901.794,-407.837,1
-8.000,0.412,1.514,750.061,-759.643,-545.715,1
-8.000,-0.248,1.519,516.235,-631.104,-613.037,1
-8.000,-0.203,1.793,420.532,-529.236,-639.465,1
-7.938,-0.217,1.927,426.453,-431.152,-641.785,1
-6.481,-0.300,1.856,464.539,-327.820,-622.131,1
-5.637,-0.683,1.744,500.000,-214.661,-588.867,1
-4.533,-0.782,1.645,510.925,-115.417,-548.340,1
-3.696,-0.694,1.383,533.447,-10.254,-490.112,1
-3.155,-0.803,1.093,507.080,91.431,-418.945,1
-2.955,-0.572,1.029,471.497,179.260,-332.336,1
-2.796,-0.279,0.965,439.026,232.910,-252.319,1
-2.594,-0.104,0.876,352.661,267.334,-170.166,1
-2.461,-0.059,0.981,261.414,282.532,-103.699,1
-2.347,0.024,0.865,191.650,286.743,-52.124,1
-2.147,0.065,0.801,145.569,287.170,-15.808,1
-1.977,0.122,0.717,116.455,284.485,10.742,1
-1.767,0.189,0.705,102.661,277.954,31.982,1
-1.540,0.188,0.682,111.328,268.982,50.537,1
-1.297,0.237,0.687,124.390,259.460,65.247,1
-1.065,0.285,0.713,139.160,247.009,80.688,1
-0.888,0.244,0.690,150.879,234.741,92.346,1
-0.665,0.255,0.711,152.771,221.863,100.464,1
-0.439,0.241,0.723,169.373,208.984,105.774,1
-0.312,0.304,0.686,202.087,199.463,111.633,1
-0.059,0.240,0.569,218.384,190.308,119.873,1
0.148,0.218,0.464,177.063,183.777,125.305,1
0.266,0.217,0.438,119.568,178.589,124.756,1
0.155,0.217,0.365,93.933,175.476,118.408,1
0.334,0.250,0.323,93.262,173.889,112.061,1
0.469,0.299,0.261,93.445,171.143,107.605,1
0.559,0.324,0.264,97.290,168.152,102.722,1
0.519,0.420,0.167,115.906,163.330,96.863,1
0.549,0.413,0.152,131.348,158.630,90.393,1
0.578,0.394,0.120,112.183,153.870,82.764,1
0.597,0.461,0.027,96.497,150.146,75.867,1
0.658,0.525,0.078,114.380,145.203,71.594,1
0.643,0.663,0.141,169.678,138.672,70.313,1
0.605,0.755,0.139,221.741,131.775,70.923,1
0.611,0.798,0.041,250.488,125.488,71.594,1
0.649,0.753,-0.032,213.867,121.582,69.702,1
0.659,0.799,-0.038,157.166,117.126,65.552,1
0.683,0.932,-0.007,147.949,111.511,61.829,1
0.673,0.968,-0.083,181.152,108.093,60.791,1
0.669,1.037,-0.030,223.328,103.882,59.814,1
0.687,0.940,0.045,220.215,102.173,56.335,1
0.653,0.873,0.122,176.025,104.187,49.866,1
0.616,0.937,0.113,141.479,106.628,42.175,1
0.565,0.976,0.087,133.545,109.924,34.546,1
0.604,1.025,0.104,147.766,110.596,27.161,1
0.594,1.027,0.100,154.907,111.328,21.606,1
0.593,1.051,0.070,153.870,112.427,15.564,1
0.587,1.075,0.012,161.987,112.854,9.460,1
0.613,1.030,-0.116,155.762,113.708,4.272,1
0.631,1.003,-0.185,142.395,113.403,-1.038,1
0.634,1.018,-0.155,156.982,111.084,-4.333,1
0.716,1.036,-0.198,182.373,109.192,-4.700,1
0.697,1.025,-0.233,199.829,106.018,-5.005,1
0.761,0.989,-0.252,205.627,103.455,-4.883,1
0.718,0.954,-0.311,207.458,99.060,-4.089,1
0.719,0.896,-0.227,180.237,94.666,-4.578,1
0.698,0.902,-0.236,161.377,94.421,-6.470,1
0.686,0.832,-0.329,127.686,94.971,-7.935,1
0.682,0.890,-0.290,117.004,95.947,-15.076,1
0.759,0.900,-0.176,127.869,95.886,-22.034,1
0.846,0.895,-0.197,96.802,93.994,-27.161,1
0.869,1.003,-0.190,53.589,90.698,-32.227,1
0.794,1.022,-0.133,17.395,87.341,-40.344,1
0.796,1.070,-0.227,21.790,87.036,-50.720,1
0.726,1.143,-0.269,57.190,86.731,-63.721,1
0.765,1.157,-0.339,71.594,86.914,-76.050,1
0.719,1.135,-0.401,59.631,84.412,-88.806,1
0.752,1.103,-0.469,28.442,77.393,-101.257,1
0.764,1.090,-0.539,34.851,69.336,-110.291,1
0.790,1.069,-0.602,95.337,62.439,-117.126,1
0.806,0.927,-0.712,116.272,55.542,-122.009,1
0.786,0.841,-0.801,116.638,48.279,-126.282,1
0.788,0.758,-0.820,140.198,40.955,-129.761,1
0.772,0.630,-0.856,152.039,34.729,-132.446,1
0.817,0.545,-0.879,139.282,27.832,-134.521,1
0.754,0.483,-0.797,132.996,20.691,-135.742,1
0.876,0.478,-0.752,129.944,14.465,-135.376,1
0.872,0.460,-0.735,124.329,9.338,-134.216,1
0.826,0.446,-0.741,145.081,3.113,-132.629,1
0.771,0.391,-0.782,164.185,-1.770,-132.080,1
0.690,0.301,-0.815,167.786,-5.737,-132.690,1
0.652,0.218,-0.809,156.982,-8.606,-134.277,1
0.629,0.155,-0.793,147.217,-10.376,-134.888,1
0.660,0.125,-0.785,141.541,-12.512,-132.935,1
0.688,0.047,-0.790,120.422,-16.052,-130.310,1
0.716,-0.027,-0.780,90.942,-21.118,-128.784,1
0.656,-0.080,-0.743,68.726,-26.123,-127.869,1
0.643,-0.123,-0.618,75.256,-29.602,-126.404,1
0.611,-0.161,-0.498,102.844,-29.358,-123.352,1
0.538,-0.204,-0.399,130.066,-26.245,-120.483,1
0.483,-0.360,-0.322,138.306,-20.020,-119.629,1
0.241,-0.526,-0.187,140.930,-12.817,-121.826,1
0.035,-0.630,-0.126,131.348,-5.188,-124.329,1
-0.141,-0.756,-0.014,125.366,4.822,-122.803,1
-0.300,-0.900,0.053,140.320,17.700,-114.990,1
-0.193,-1.062,0.078,161.133,32.654,-101.746,1
-0.183,-1.228,0.126,173.645,50.476,-77.942,1
-0.087,-1.353,0.093,191.162,70.862,-45.349,1
-0.257,-1.315,-0.126,249.695,88.989,-4.028,1
-0.734,-1.429,-0.434,239.807,104.431,39.124,1
-0.529,-1.605,-0.370,31.250,113.770,79.407,1
-0.888,-1.246,-0.337,-9.094,129.822,130.615,1
-1.356,-1.193,-0.698,8.606,144.470,187.744,1
-2.028,-1.172,-1.108,43.579,156.006,249.390,1
-2.741,-1.218,-1.381,50.110,160.156,318.359,1
-3.366,-1.400,-1.540,-62.866,155.823,390.320,1
-3.942,-1.239,-1.624,-185.181,158.020,466.125,1
-4.743,-1.208,-1.681,-103.455,153.015,554.443,1
-5.659,-1.381,-1.806,77.026,118.530,654.175,1
-6.696,-1.480,-2.088,193.848,40.039,775.330,1
-7.954,-1.229,-1.964,363.403,-87.585,896.789,1
-8.000,-0.941,-1.689,530.212,-284.119,996.277,1
-8.000,-0.589,-1.303,593.689,-488.281,1033.447,1
-8.000,-0.059,-0.730,562.134,-671.387,1020.630,1
-8.000,0.461,-0.008,469.055,-820.007,972.656,1
-8.000,1.377,1.239,467.834,-941.772,924.255,1
-8.000,2.811,1.743,1021.545,-1054.688,816.833,1
-8.000,2.345,1.576,1669.189,-1186.279,448.547,1
-8.000,1.672,0.488,1840.393,-1143.250,-99.731,1
-8.000,0.699,0.547,1319.397,-923.950,-503.357,1
-8.000,0.367,0.889,945.618,-693.054,-690.369,1
-8.000,-0.065,1.153,662.048,-510.803,-761.352,1
-8.000,-0.025,1.050,495.117,-368.896,-782.898,1
-8.000,-0.012,0.961,404.968,-247.681,-769.104,1
-7.411,-0.280,1.204,410.706,-140.198,-738.525,1
-6.780,-0.539,1.053,346.802,-43.762,-696.960,1
-5.936,-0.765,0.763,184.326,24.536,-645.508,1
-5.214,-0.542,0.645,151.855,74.524,-588.074,1
-4.543,-0.713,0.571,163.879,113.586,-530.212,1
-3.988,-0.968,0.510,144.592,139.832,-474.915,1
-3.650,-0.989,0.470,138.672,158.447,-419.861,1
-3.210,-1.111,0.327,125.366,171.143,-363.281,1
-2.540,-1.218,0.196,86.121,174.377,-308.472,1
-1.901,-1.236,0.182,59.143,170.105,-256.104,1
-1.270,-1.121,0.232,87.280,163.757,-205.261,1
-0.993,-1.043,0.234,131.897,157.593,-161.316,1
-0.808,-0.928,0.247,173.462,154.114,-117.859,1
-0.545,-0.854,0.219,168.091,150.513,-77.454,1
-0.294,-0.723,0.241,144.836,145.142,-42.664,1
