ax,ay,az,gx,gy,gz,label
-0.848,0.616,-0.236,-38.818,19.043,0.610,1
-0.912,0.600,-0.285,-29.480,19.958,1.160,1
-0.902,0.623,-0.303,-70.251,19.653,-1.465,1
-0.948,0.725,-0.303,-89.905,20.081,-6.775,1
-0.943,0.827,-0.272,-61.951,20.996,-13.000,1
-0.952,0.881,-0.281,-9.460,21.423,-20.752,1
-0.953,0.873,-0.330,-0.793,21.667,-30.212,1
-0.939,0.904,-0.365,-38.330,21.484,-41.260,1
-0.925,1.006,-0.355,-58.716,19.531,-53.650,1
-0.908,1.091,-0.337,-32.898,16.602,-66.101,1
-0.875,1.112,-0.349,-0.916,14.893,-76.111,1
-0.871,1.086,-0.371,-8.240,12.451,-87.036,1
-0.873,1.103,-0.384,-36.011,10.254,-98.755,1
-0.821,1.132,-0.357,-43.457,7.690,-108.826,1
-0.800,1.143,-0.352,-33.203,5.432,-117.798,1
-0.789,1.127,-0.343,-24.475,3.662,-127.136,1
-0.780,1.097,-0.352,-26.550,2.747,-135.681,1
-0.797,1.086,-0.345,-43.884,1.343,-145.691,1
-0.803,1.090,-0.331,-57.068,-0.854,-154.419,1
-0.816,1.123,-0.295,-67.688,-3.662,-162.354,1
-0.825,1.181,-0.245,-43.518,-7.141,-169.739,1
-0.846,1.184,-0.217,-26.245,-9.888,-174.927,1
-0.868,1.177,-0.156,-38.635,-13.855,-181.213,1
-0.790,1.110,-0.086,-59.082,-20.569,-185.425,1
-1.021,1.279,-0.066,-32.227,-22.400,-189.636,1
-0.889,1.221,-0.105,19.592,-18.005,-195.190,1
-0.848,1.245,-0.112,37.598,-11.536,-199.707,1
-0.884,1.271,-0.091,52.490,-5.005,-204.773,1
-0.855,1.312,-0.098,69.519,0.610,-208.740,1
-0.821,1.315,-0.119,81.238,6.653,-212.280,1
-0.769,1.298,-0.119,79.102,11.536,-214.172,1
-0.715,1.274,-0.127,67.078,15.198,-215.637,1
-0.571,1.250,-0.116,70.801,19.653,-215.454,1
-0.375,1.164,-0.123,76.965,24.170,-211.914,1
-0.186,1.055,-0.154,66.956,28.259,-204.590,1
-0.076,0.982,-0.157,66.772,29.785,-195.740,1
-0.035,0.928,-0.156,92.468,30.640,-186.890,1
0.021,0.784,-0.349,103.394,34.424,-180.359,1
-0.078,0.651,-0.272,67.139,35.767,-176.758,1
0.124,0.500,-0.292,44.861,35.889,-173.157,1
0.170,0.489,-0.338,41.321,35.767,-166.992,1
0.247,0.378,-0.538,56.458,40.955,-162.231,1
0.237,0.388,-0.518,50.110,42.175,-158.264,1
0.227,0.451,-0.393,66.223,40.588,-151.855,1
0.268,0.467,-0.281,115.479,38.269,-143.188,1
0.304,0.456,-0.238,150.757,36.926,-133.911,1
0.360,0.359,-0.249,125.061,34.424,-124.207,1
0.321,0.272,-0.280,36.804,30.518,-116.638,1
0.361,0.323,-0.289,-9.277,27.161,-111.450,1
0.358,0.384,-0.275,24.414,26.672,-107.056,1
0.348,0.323,-0.281,68.237,28.381,-104.065,1
0.361,0.236,-0.237,66.833,30.701,-102.356,1
0.372,0.208,-0.218,40.527,32.043,-100.464,1
0.444,0.228,-0.220,17.151,32.898,-96.436,1
0.537,0.228,-0.243,-4.822,33.386,-91.980,1
0.596,0.271,-0.287,-22.461,32.898,-85.999,1
0.619,0.349,-0.319,-20.142,32.532,-80.139,1
0.727,0.377,-0.318,-5.798,31.738,-73.853,1
0.790,0.388,-0.304,7.263,31.494,-69.702,1
0.821,0.418,-0.288,6.348,31.433,-66.223,1
0.836,0.453,-0.272,-5.127,30.640,-63.660,1
0.910,0.497,-0.239,-15.991,27.710,-60.059,1
0.958,0.556,-0.209,-15.442,23.254,-57.007,1
0.949,0.573,-0.209,-1.709,19.104,-54.871,1
0.899,0.607,-0.178,20.508,15.686,-54.321,1
0.914,0.546,-0.147,40.833,13.794,-55.298,1
0.943,0.516,-0.136,32.593,12.878,-56.824,1
0.940,0.538,-0.107,24.963,11.719,-60.791,1
0.913,0.562,-0.090,34.729,9.949,-66.101,1
0.917,0.522,-0.108,42.542,7.996,-71.594,1
0.945,0.495,-0.119,57.861,6.165,-76.355,1
1.027,0.467,-0.112,77.576,5.737,-80.750,1
1.062,0.450,-0.136,88.867,5.493,-84.595,1
1.019,0.439,-0.135,72.266,5.371,-88.745,1
0.994,0.419,-0.146,58.533,5.554,-93.140,1
0.985,0.395,-0.135,50.598,5.798,-97.778,1
0.994,0.376,-0.121,59.937,7.080,-101.501,1
0.989,0.339,-0.083,72.449,9.399,-104.309,1
1.046,0.229,-0.132,66.711,13.000,-104.919,1
1.038,0.245,-0.076,70.557,18.066,-104.919,1
0.938,0.249,-0.032,75.256,23.376,-107.117,1
0.826,0.226,-0.098,58.411,29.114,-109.741,1
0.740,0.199,-0.111,33.630,33.569,-112.732,1
0.687,0.164,-0.103,25.574,36.621,-116.272,1
0.622,0.083,-0.120,35.034,39.246,-119.385,1
0.630,-0.038,-0.156,34.424,43.152,-120.972,1
0.638,-0.109,-0.156,20.447,46.448,-120.178,1
0.593,-0.174,-0.181,0.732,49.927,-118.164,1
0.554,-0.227,-0.180,-12.268,52.307,-115.967,1
0.484,-0.249,-0.195,-7.202,55.542,-113.403,1
0.426,-0.307,-0.170,15.442,59.082,-109.924,1
0.331,-0.374,-0.200,39.551,64.392,-104.431,1
0.240,-0.489,-0.240,32.166,70.496,-98.267,1
0.087,-0.595,-0.253,19.409,77.576,-89.661,1
-0.116,-0.698,-0.228,18.311,84.290,-78.125,1
-0.414,-0.798,-0.242,38.391,92.102,-60.791,1
-0.569,-0.973,-0.212,52.856,99.304,-38.635,1
-0.757,-1.143,-0.246,63.782,108.765,-8.972,1
-0.920,-1.299,-0.296,11.841,120.666,30.762,1
-1.065,-1.390,-0.300,-17.456,136.169,78.613,1
-1.398,-1.457,-0.388,-5.676,154.358,134.094,1
-1.806,-1.597,-0.653,51.331,170.105,197.449,1
-2.344,-1.635,-0.651,-21.545,176.331,270.081,1
-2.924,-1.647,-0.713,-62.927,185.608,348.206,1
-3.734,-1.418,-0.898,-15.015,189.697,451.111,1
-4.431,-1.445,-1.258,109.985,173.340,581.604,1
-5.793,-1.361,-1.433,184.753,130.249,710.022,1
-7.635,-1.203,-1.496,284.851,44.922,848.999,1
-8.000,-0.782,-1.358,405.212,-79.773,966.614,1
-8.000,-0.365,-1.149,501.648,-246.155,1053.284,1
-8.000,0.138,-0.880,494.812,-452.393,1096.985,1
-8.000,1.158,0.392,534.851,-640.991,1087.708,1
-8.000,2.001,1.436,845.215,-871.033,1002.197,1
-8.000,2.281,0.788,1215.210,-1091.125,807.556,1
-8.000,2.602,1.399,1807.068,-1243.835,223.816,1
-8.000,1.647,0.872,1449.829,-1117.737,-362.061,1
-8.000,1.008,1.005,1069.092,-870.789,-625.183,1
-8.000,0.102,0.940,910.889,-604.553,-772.400,1
-8.000,0.057,0.691,734.680,-392.639,-828.125,1
-8.000,0.198,0.526,648.193,-231.018,-826.599,1
-8.000,-0.073,0.420,460.632,-106.506,-784.607,1
-7.466,-0.281,0.796,339.966,-10.132,-724.365,1
-6.226,-0.795,0.578,288.635,66.650,-652.588,1
-5.027,-1.248,0.120,194.641,122.620,-587.036,1
-4.203,-1.147,0.277,192.505,159.485,-521.606,1
-3.625,-1.375,0.178,273.437,191.833,-457.031,1
-2.857,-1.607,-0.177,276.428,216.858,-393.555,1
-2.726,-1.479,0.058,168.457,224.487,-332.031,1
-2.703,-1.111,0.204,130.493,217.285,-268.372,1
-1.890,-1.255,0.054,123.169,207.703,-210.876,1
-1.187,-1.247,0.048,80.627,194.092,-155.762,1
-0.716,-1.075,0.117,107.300,180.481,-103.943,1
-0.541,-0.921,0.156,125.610,166.992,-57.739,1
-0.452,-0.733,0.167,129.700,155.273,-19.287,1
-0.406,-0.614,0.128,115.540,145.935,11.658,1
-0.339,-0.505,0.149,95.703,137.085,35.278,1
-0.318,-0.398,0.163,96.558,128.174,52.673,1
-0.302,-0.376,0.136,103.577,119.080,65.491,1
-0.187,-0.315,0.101,104.309,110.779,75.562,1
-0.079,-0.262,0.105,120.117,103.455,83.740,1
0.031,-0.265,0.107,130.859,97.351,89.600,1
0.187,-0.190,0.128,125.671,90.332,93.384,1
0.248,-0.118,0.136,126.831,85.083,95.093,1
0.329,-0.127,0.137,133.057,81.116,94.727,1
0.418,-0.201,0.073,122.986,78.796,91.492,1
0.629,-0.142,0.056,109.741,78.369,89.600,1
0.793,-0.039,0.099,112.244,78.796,90.393,1
0.801,0.017,0.148,118.530,77.271,90.942,1
0.832,0.037,0.102,129.517,75.500,91.797,1
1.032,0.136,0.054,132.874,74.280,91.187,1
0.991,0.143,0.010,129.028,74.036,89.294,1
0.966,0.190,-0.031,128.967,76.538,85.449,1
0.976,0.261,-0.008,126.221,79.407,84.045,1
0.971,0.337,0.034,134.155,81.848,82.703,1
1.028,0.403,0.012,156.433,84.473,81.421,1
1.048,0.499,-0.016,160.828,86.487,78.979,1
0.984,0.561,-0.052,153.809,88.013,75.623,1
0.915,0.640,-0.104,137.939,90.454,70.496,1
0.913,0.789,-0.094,137.695,91.492,64.880,1
0.944,0.901,-0.173,146.179,91.064,57.983,1
0.912,0.861,-0.280,132.263,92.346,50.842,1
0.841,0.873,-0.331,112.366,93.872,41.931,1
0.837,0.915,-0.353,107.056,93.872,34.241,1
0.839,0.929,-0.395,114.746,91.187,27.161,1
0.875,0.903,-0.402,127.380,88.806,21.057,1
0.769,0.868,-0.498,132.080,87.402,16.357,1
0.727,0.823,-0.561,108.215,86.304,10.315,1
0.675,0.803,-0.600,103.210,84.839,2.441,1
0.674,0.779,-0.631,111.206,82.703,-4.089,1
0.735,0.734,-0.643,122.498,80.444,-9.033,1
0.859,0.751,-0.620,145.874,77.271,-11.292,1
0.837,0.757,-0.636,165.100,73.608,-12.451,1
0.840,0.732,-0.682,152.954,68.909,-14.954,1
0.823,0.762,-0.694,132.263,64.880,-17.639,1
0.852,0.795,-0.701,126.526,59.753,-20.813,1
0.869,0.832,-0.787,135.376,54.626,-23.010,1
0.871,0.823,-0.801,144.226,49.500,-24.902,1
0.963,0.864,-0.731,139.282,43.274,-26.245,1
0.921,0.866,-0.769,116.028,35.156,-29.663,1
0.938,0.848,-0.737,77.026,25.513,-32.715,1
0.965,0.853,-0.729,70.862,16.846,-35.034,1
1.005,0.881,-0.719,98.083,10.803,-36.560,1
1.095,0.884,-0.598,129.944,5.005,-38.147,1
1.045,0.846,-0.621,142.883,-0.549,-40.466,1
1.080,0.918,-0.462,121.033,-7.141,-43.335,1
1.076,0.881,-0.277,114.441,-11.475,-47.974,1
1.063,0.962,-0.199,132.751,-14.771,-51.880,1
0.906,0.961,-0.221,125.000,-16.907,-54.077,1
0.649,0.822,-0.197,145.508,-18.494,-62.500,1
0.750,0.779,-0.157,170.105,-18.066,-69.702,1
0.783,0.789,-0.200,146.667,-18.066,-76.660,1
0.865,0.741,-0.226,113.037,-17.944,-81.604,1
0.895,0.689,-0.188,78.491,-18.372,-85.876,1
0.928,0.634,-0.126,65.186,-19.226,-89.844,1
0.896,0.624,-0.071,84.534,-18.066,-93.262,1
0.802,0.552,-0.076,98.083,-14.160,-97.107,1
0.697,0.508,-0.043,95.764,-8.972,-102.356,1
0.601,0.426,0.014,79.224,-2.197,-108.948,1
0.456,0.334,0.085,75.745,3.845,-117.371,1
0.277,0.218,0.245,83.130,14.709,-125.305,1
0.223,0.091,0.307,87.219,29.541,-129.639,1
0.136,0.020,0.352,61.462,49.805,-129.272,1
0.067,0.029,0.368,49.133,70.557,-121.216,1
0.063,-0.084,0.338,52.368,93.079,-109.253,1
-0.119,-0.261,0.243,48.523,120.239,-94.727,1
-0.322,-0.375,0.183,38.025,145.508,-81.421,1
-0.427,-0.531,0.055,24.414,171.814,-67.017,1
-0.665,-0.691,-0.096,-21.240,200.134,-48.096,1
-0.905,-0.817,-0.236,-73.059,222.900,-28.320,1
-1.165,-0.944,-0.328,-99.121,244.812,-6.165,1
-1.500,-1.076,-0.461,-85.937,267.090,20.081,1
-1.804,-1.272,-0.546,-63.843,286.011,54.138,1
-2.098,-1.468,-0.669,-71.655,301.575,97.900,1
-2.549,-1.714,-0.913,-89.416,312.134,160.034,1
-2.564,-1.854,-1.308,19.226,317.993,242.737,1
-2.903,-2.327,-1.699,134.338,302.795,355.835,1
-3.685,-2.466,-1.876,257.263,258.179,495.789,1
-5.254,-2.439,-2.036,303.589,179.932,648.804,1
-7.243,-2.072,-1.875,295.776,91.370,780.579,1
-8.000,-1.339,-1.432,368.713,-23.315,906.067,1
-8.000,-0.754,-1.160,409.912,-161.743,1000.977,1
-8.000,-0.044,-0.824,455.505,-310.303,1061.707,1
-8.000,0.797,-0.331,555.176,-479.004,1078.186,1
-8.000,1.485,0.331,671.875,-668.640,1038.879,1
-8.000,2.047,1.015,807.861,-862.427,950.378,1
-8.000,2.565,0.626,1209.290,-1011.597,760.071,1
-8.000,2.882,0.985,1728.271,-1121.460,335.266,1
-8.000,1.618,0.583,1587.402,-1062.256,-174.255,1
-8.000,0.784,0.561,1070.923,-868.713,-458.679,1
-8.000,0.418,0.940,830.810,-659.119,-615.234,1
-8.000,0.173,1.002,611.206,-490.112,-696.045,1
-8.000,0.112,0.874,497.925,-334.839,-715.149,1
-6.951,-0.163,1.084,331.787,-215.027,-697.449,1
-6.355,-0.691,1.183,196.411,-126.648,-664.551,1
-5.369,-0.855,1.278,127.197,-62.195,-622.131,1
-4.157,-0.826,1.229,212.341,3.357,-567.688,1
-3.533,-1.265,0.974,244.629,64.026,-513.794,1
-3.027,-1.134,0.912,269.531,123.169,-450.745,1
-2.810,-1.245,0.854,243.835,169.739,-383.240,1
-2.572,-1.224,0.728,167.541,196.472,-318.481,1
-1.961,-1.170,0.682,141.418,211.609,-257.935,1
-1.519,-1.071,0.588,146.606,219.788,-201.050,1
-1.086,-0.900,0.453,159.729,223.145,-148.865,1
-0.798,-0.762,0.408,152.161,219.604,-99.182,1
-0.750,-0.627,0.350,156.555,214.722,-63.171,1
-0.653,-0.542,0.294,151.184,209.961,-29.480,1
-0.488,-0.420,0.238,148.010,204.895,-2.808,1
-0.304,-0.321,0.183,143.982,197.021,23.193,1
-0.176,-0.244,0.147,137.390,187.866,43.030,1
-0.096,-0.199,0.106,144.836,178.223,58.899,1
0.010,-0.165,0.028,164.368,168.396,72.998,1
0.054,-0.150,-0.033,182.007,160.522,83.618,1
0.173,-0.110,-0.079,197.083,152.466,94.482,1
0.332,-0.101,-0.121,186.401,143.433,103.577,1
0.417,-0.062,-0.167,165.955,136.047,109.985,1
0.438,-0.036,-0.175,142.212,128.784,112.427,1
0.451,-0.028,-0.206,116.760,122.620,110.596,1
0.487,0.060,-0.253,90.576,117.554,107.056,1
0.507,0.146,-0.273,99.670,114.868,104.736,1
0.566,0.271,-0.269,151.367,112.305,105.164,1
0.617,0.322,-0.331,197.632,109.009,107.666,1
0.643,0.345,-0.376,203.064,105.286,110.962,1
0.685,0.388,-0.412,169.922,101.807,114.868,1
0.678,0.444,-0.404,117.981,100.220,116.028,1
0.649,0.527,-0.419,116.516,99.915,115.234,1
0.697,0.674,-0.422,169.739,99.670,116.028,1
0.691,0.791,-0.477,227.478,96.741,119.202,1
0.752,0.874,-0.519,236.633,91.492,123.474,1
0.772,0.965,-0.588,206.177,86.365,124.329,1
0.780,1.480,-0.538,273.743,79.407,124.023,1
0.877,1.550,-0.569,331.238,71.045,122.864,1
0.778,1.483,-0.576,294.983,63.477,116.211,1
0.639,1.373,-0.513,181.274,60.852,104.980,1
0.609,1.526,-0.439,80.750,60.791,88.745,1
0.613,1.650,-0.410,91.431,62.256,71.899,1
0.586,1.751,-0.408,115.295,62.927,54.687,1
0.559,1.782,-0.429,109.741,63.843,37.598,1
0.460,1.768,-0.497,61.157,64.453,18.616,1
0.410,1.862,-0.436,51.880,64.697,-2.991,1
0.386,1.869,-0.380,91.370,63.477,-21.851,1
0.349,1.758,-0.375,105.530,63.049,-38.147,1
0.353,1.594,-0.407,59.753,63.965,-54.504,1
0.395,1.534,-0.365,-1.709,62.744,-70.313,1
0.335,1.485,-0.433,-30.884,62.134,-78.796,1
0.302,1.347,-0.568,14.160,62.378,-92.468,1
0.267,1.139,-0.384,44.739,60.608,-98.206,1
0.179,0.861,-0.479,61.096,60.791,-101.685,1
0.163,0.700,-0.665,54.016,60.120,-104.309,1
0.354,0.578,-0.505,28.015,57.373,-103.455,1
0.481,0.539,-0.448,19.043,53.528,-99.304,1
0.493,0.550,-0.380,42.053,50.354,-91.248,1
0.590,0.571,-0.421,91.187,50.598,-81.055,1
0.852,0.486,-0.421,113.281,51.941,-67.932,1
0.905,0.461,-0.407,79.834,49.927,-58.533,1
0.858,0.567,-0.361,46.387,43.579,-55.664,1
0.957,0.752,-0.340,57.312,40.405,-53.406,1
0.870,0.914,-0.349,69.519,34.668,-56.152,1
0.807,1.034,-0.344,88.501,28.931,-61.584,1
0.819,1.118,-0.343,105.164,23.254,-67.383,1
0.793,1.159,-0.304,106.201,15.869,-72.815,1
0.780,1.137,-0.288,95.215,8.606,-78.186,1
0.761,1.097,-0.270,77.942,2.502,-84.961,1
0.755,0.984,-0.237,57.251,-1.099,-90.393,1
0.710,0.992,-0.065,46.509,-4.700,-94.238,1
0.650,0.884,-0.103,52.063,-6.409,-98.145,1
0.697,0.806,-0.135,50.171,-8.240,-101.929,1
0.734,0.832,-0.099,49.133,-9.460,-104.004,1
0.683,0.785,-0.109,48.279,-10.254,-109.070,1
0.716,0.756,-0.139,30.151,-13.550,-114.685,1
0.814,0.747,-0.120,29.846,-18.921,-120.117,1
0.826,0.756,-0.135,68.298,-22.095,-122.986,1
0.824,0.657,-0.161,100.708,-22.339,-125.427,1
0.849,0.570,-0.029,117.371,-22.217,-130.554,1
0.827,0.461,0.009,120.239,-18.616,-136.536,1
0.774,0.396,-0.095,105.957,-11.536,-141.479,1
0.652,0.324,-0.068,88.806,-1.831,-146.179,1
0.475,0.283,-0.082,68.970,7.446,-149.109,1
0.395,0.165,-0.047,75.073,16.479,-151.367,1
0.277,-0.019,-0.028,70.618,26.184,-153.198,1
0.038,-0.185,-0.044,84.595,38.696,-154.968,1
-0.250,-0.276,-0.061,112.183,58.899,-152.222,1
-0.504,-0.403,-0.063,129.211,84.167,-143.005,1
-0.582,-0.509,0.036,169.434,113.770,-125.305,1
-0.722,-0.717,0.044,181.030,137.512,-103.333,1
-0.823,-0.875,0.098,147.644,157.166,-76.111,1
-0.870,-0.982,0.091,112.610,171.814,-48.096,1
-1.152,-1.197,-0.041,14.709,190.796,-10.803,1
-1.029,-1.266,-0.126,-90.393,209.534,24.536,1
-1.285,-1.364,-0.204,-101.624,235.840,65.063,1
-1.455,-1.525,-0.406,-80.933,262.207,112.732,1
-1.910,-1.595,-0.579,-20.203,280.090,172.546,1
-2.453,-1.759,-0.870,12.390,285.095,252.441,1
-3.039,-1.640,-1.046,11.292,283.142,330.139,1
-3.726,-1.566,-1.347,122.009,271.301,430.176,1
-3.978,-1.351,-1.788,260.193,236.267,540.955,1
-5.984,-1.126,-2.124,216.797,179.138,654.419,1
-7.241,-0.526,-1.922,410.095,95.398,777.466,1
-7.998,-0.422,-1.631,409.729,-24.780,881.592,1
-8.000,0.075,-1.257,485.229,-171.265,974.548,1
-8.000,0.313,-0.901,521.912,-344.482,1027.771,1
-8.000,0.708,-0.374,538.818,-526.611,1035.645,1
-8.000,1.364,0.549,635.742,-718.567,999.634,1
-8.000,2.213,0.711,875.427,-882.446,920.593,1
-8.000,2.864,1.542,1253.662,-1060.974,700.256,1
-8.000,2.048,0.313,1445.312,-1140.503,314.819,1
-8.000,1.272,0.121,1204.956,-1077.820,-66.895,1
-8.000,0.940,0.486,880.798,-937.805,-305.298,1
-8.000,0.881,0.716,869.568,-755.859,-468.750,1
-8.000,0.549,0.714,781.555,-595.337,-574.219,1
-7.975,0.627,0.403,659.912,-450.317,-624.512,1
-7.118,0.475,0.369,593.689,-285.583,-639.038,1
-6.572,-0.063,0.424,393.311,-171.387,-628.967,1
-5.967,-0.546,0.688,136.169,-93.933,-599.915,1
-4.846,-0.692,0.922,150.757,-40.100,-562.927,1
-4.128,-1.034,0.845,228.088,18.982,-514.526,1
-3.205,-1.214,0.500,179.932,66.528,-466.003,1
-2.462,-0.900,0.339,130.493,97.839,-409.668,1
-2.413,-0.732,0.445,175.659,113.342,-352.173,1
-2.013,-0.823,0.415,165.161,130.127,-286.133,1
-1.662,-0.871,0.369,108.276,140.991,-236.938,1
-1.250,-0.853,0.362,105.713,148.621,-189.209,1
-1.037,-0.914,0.445,82.214,151.917,-145.508,1
-0.827,-0.799,0.421,80.627,151.733,-111.206,1
-0.647,-0.632,0.391,96.008,149.414,-78.613,1
-0.403,-0.524,0.420,106.934,144.470,-49.866,1
-0.242,-0.406,0.296,117.554,137.634,-25.269,1
-0.083,-0.370,0.213,130.432,132.507,-5.493,1
0.009,-0.317,0.122,137.695,127.014,12.451,1
0.051,-0.258,0.099,138.550,120.117,24.902,1
0.281,-0.148,0.109,153.320,112.671,35.828,1
0.556,-0.119,0.080,176.758,105.957,46.265,1
0.708,-0.130,0.023,175.720,101.501,53.894,1
0.777,-0.073,0.013,181.580,98.083,59.509,1
0.806,-0.055,0.002,182.922,95.276,61.340,1
0.777,-0.038,-0.043,177.917,93.262,59.814,1
0.740,0.033,-0.076,156.982,90.332,58.105,1
0.732,0.083,-0.046,121.033,86.853,56.763,1
0.760,0.111,-0.042,98.267,84.717,55.115,1
0.717,0.186,-0.086,104.126,84.106,54.260,1
0.810,0.224,-0.074,134.033,85.937,54.321,1
0.826,0.234,-0.094,154.846,86.304,53.833,1
0.863,0.232,-0.112,163.940,87.280,52.246,1
0.868,0.240,-0.135,165.405,87.524,49.927,1
0.868,0.280,-0.182,161.804,89.600,48.462,1
0.844,0.280,-0.175,148.376,92.590,48.035,1
0.804,0.290,-0.164,141.724,95.337,46.631,1
0.762,0.336,-0.180,141.907,97.351,47.058,1
0.846,0.403,-0.234,140.747,98.206,49.072,1
0.931,0.470,-0.314,140.076,98.267,51.453,1
0.942,0.475,-0.405,145.447,99.854,52.979,1
0.927,0.513,-0.409,136.719,100.830,52.795,1
0.887,0.695,-0.374,150.940,99.365,52.979,1
0.879,0.802,-0.375,184.509,95.581,52.979,1
0.859,0.839,-0.448,188.721,90.820,51.880,1
0.851,0.908,-0.516,164.429,85.754,47.729,1
0.828,1.046,-0.566,140.869,82.092,41.565,1
0.731,1.182,-0.646,149.841,78.064,30.884,1
0.729,1.259,-0.683,155.945,73.486,18.433,1
0.735,1.385,-0.681,165.955,68.237,4.395,1
0.762,1.475,-0.685,174.683,63.416,-9.705,1
0.761,1.482,-0.690,164.856,59.387,-25.146,1
0.765,1.456,-0.703,148.010,55.786,-39.185,1
0.781,1.408,-0.683,141.296,52.002,-51.941,1
0.777,1.339,-0.684,139.526,47.607,-63.721,1
0.788,1.233,-0.653,136.780,43.579,-72.327,1
0.772,1.102,-0.605,137.878,38.635,-79.468,1
0.748,0.948,-0.574,134.827,34.302,-84.351,1
0.722,0.836,-0.577,136.597,29.907,-84.656,1
0.677,0.684,-0.536,132.751,25.208,-80.566,1
0.678,0.637,-0.571,133.911,22.034,-74.280,1
0.751,0.562,-0.578,174.316,21.545,-67.200,1
0.704,0.474,-0.646,203.064,23.193,-61.646,1
0.779,0.388,-0.608,168.091,24.231,-55.725,1
0.921,0.321,-0.529,106.567,21.606,-51.331,1
1.051,0.404,-0.437,88.318,18.860,-48.096,1
1.132,0.446,-0.372,98.511,16.785,-44.861,1
1.131,0.399,-0.322,86.060,16.479,-44.861,1
1.112,0.434,-0.283,74.036,14.465,-51.697,1
1.160,0.587,-0.246,67.078,11.414,-59.082,1
1.198,0.676,-0.198,83.740,6.409,-67.261,1
1.169,0.682,-0.228,91.370,1.831,-76.172,1
1.098,0.674,-0.206,71.777,-1.648,-85.815,1
1.056,0.713,-0.118,66.345,-2.258,-94.849,1
0.896,0.759,-0.068,86.731,-1.099,-104.431,1
0.759,0.710,-0.005,97.473,1.099,-115.234,1
0.673,0.615,0.085,87.952,4.272,-126.099,1
0.570,0.506,0.162,90.271,8.301,-136.169,1
0.412,0.343,0.176,107.056,16.235,-144.226,1
0.257,0.176,0.139,142.517,29.663,-149.353,1
0.105,0.057,0.066,182.678,45.044,-148.132,1
0.125,-0.083,-0.002,235.229,65.979,-138.000,1
0.212,-0.302,-0.134,230.408,83.252,-123.169,1
0.187,-0.417,-0.264,171.814,99.792,-102.234,1
0.059,-0.486,-0.399,138.916,110.413,-83.313,1
0.117,-0.613,-0.482,87.036,114.929,-63.171,1
0.009,-0.653,-0.568,62.012,117.737,-37.415,1
0.010,-0.765,-0.540,61.707,120.056,-7.507,1
-0.166,-0.807,-0.596,35.889,122.925,22.949,1
-0.345,-0.780,-0.638,30.334,124.084,53.955,1
-0.578,-0.925,-0.710,7.141,126.404,83.740,1
-0.809,-0.893,-0.707,-55.664,130.066,115.845,1
-1.000,-0.975,-0.645,-100.098,137.146,150.574,1
-1.339,-1.004,-0.728,-105.103,148.560,190.918,1
-1.780,-1.025,-0.780,-73.669,157.959,238.953,1
-2.372,-1.097,-1.051,-58.289,163.879,297.241,1
-2.780,-1.020,-1.011,-53.528,163.696,356.995,1
-3.506,-0.977,-0.956,-119.751,156.311,422.668,1
-4.331,-0.738,-1.105,56.519,148.743,504.822,1
-5.309,-0.929,-1.257,198.059,103.516,608.887,1
-6.461,-1.008,-1.334,284.668,23.071,721.069,1
-7.919,-0.954,-1.221,326.660,-88.013,830.688,1
-8.000,-0.658,-1.094,377.808,-210.632,921.814,1
-8.000,-0.335,-0.874,477.234,-371.094,992.065,1
-8.000,0.065,-0.593,559.265,-540.649,1013.916,1
-8.000,0.837,-0.083,587.646,-728.088,982.666,1
-8.000,2.362,0.725,674.133,-898.376,919.128,1
-8.000,3.786,1.923,1324.280,-1057.983,744.446,1
-8.000,2.161,1.777,1927.734,-1179.871,211.426,1
-8.000,0.549,0.715,1249.634,-1026.184,-358.398,1
-8.000,0.454,1.306,526.245,-841.919,-524.597,1
-8.000,0.776,1.745,553.162,-705.017,-568.787,1
-8.000,0.175,1.578,640.198,-544.495,-624.817,1
-7.639,-0.166,1.277,578.979,-382.874,-654.785,1
-6.529,-0.312,1.115,435.242,-244.568,-644.226,1
-5.876,-0.584,1.097,259.460,-141.357,-613.525,1
-4.932,-0.592,1.242,175.598,-72.571,-570.557,1
-4.397,-0.767,1.099,183.411,-7.446,-517.822,1
-3.921,-1.131,0.917,111.633,39.673,-471.497,1
-3.083,-1.211,0.868,78.613,71.472,-430.237,1
-2.362,-1.087,0.838,105.469,97.656,-374.512,1
-1.814,-0.957,0.768,122.681,114.929,-322.021,1
-1.375,-0.679,0.764,113.037,127.625,-263.794,1
-1.324,-0.773,0.638,95.276,132.019,-215.149,1
-1.259,-0.794,0.599,115.906,140.686,-175.415,1
-0.950,-0.798,0.506,91.003,149.963,-138.184,1
-0.556,-0.687,0.486,63.599,154.541,-99.670,1
-0.303,-0.596,0.471,75.439,154.297,-71.716,1
-0.123,-0.569,0.513,89.905,149.170,-46.448,1
0.089,-0.403,0.418,110.168,142.578,-23.315,1
0.197,-0.296,0.351,139.404,136.047,-3.479,1
0.275,-0.191,0.261,148.560,129.517,14.221,1
0.244,-0.140,0.208,147.583,123.169,27.344,1
0.318,-0.076,0.181,145.447,116.577,35.583,1
0.372,-0.107,0.149,143.860,110.962,39.978,1
0.537,-0.053,0.093,128.357,107.056,42.236,1
0.725,-0.008,0.075,129.028,105.408,44.678,1
0.835,0.062,0.049,139.038,104.553,47.363,1
0.862,0.061,0.023,126.038,103.882,48.828,1
0.907,0.118,0.011,96.985,104.065,47.119,1
0.961,0.195,-0.006,86.731,102.539,43.884,1
0.926,0.255,-0.068,97.046,100.952,39.124,1
1.013,0.297,-0.187,117.249,101.257,34.241,1
0.988,0.366,-0.270,138.550,102.356,29.846,1
0.881,0.418,-0.255,156.250,102.173,24.902,1
0.828,0.490,-0.270,168.579,100.830,20.630,1
0.848,0.495,-0.256,175.659,98.206,16.968,1
0.850,0.480,-0.453,162.964,95.459,13.428,1
0.854,0.429,-0.573,143.677,95.459,9.766,1
0.818,0.434,-0.557,125.671,93.811,5.981,1
0.745,0.468,-0.562,132.385,92.957,2.747,1
0.713,0.496,-0.490,157.715,92.041,3.174,1
0.656,0.352,-0.524,188.171,92.285,5.615,1
0.634,0.287,-0.587,188.416,95.276,9.399,1
0.610,0.348,-0.549,159.912,97.412,11.841,1
0.674,0.396,-0.513,157.715,96.375,14.893,1
0.606,0.419,-0.520,182.007,94.849,18.799,1
0.549,0.395,-0.574,221.985,94.666,23.437,1
0.552,0.473,-0.642,253.784,97.778,29.785,1
0.698,0.561,-0.680,248.840,97.351,33.752,1
0.864,0.693,-0.698,196.716,93.262,35.278,1
0.973,0.889,-0.703,148.682,85.754,34.851,1
0.934,1.167,-0.780,141.479,79.468,35.522,1
1.008,1.379,-0.976,193.481,70.313,27.466,1
1.008,1.404,-0.987,200.806,59.937,16.907,1
0.955,1.452,-0.998,121.948,48.950,0.061,1
0.926,1.580,-0.996,83.618,38.086,-21.301,1
0.806,1.644,-0.986,108.582,28.198,-40.161,1
0.817,1.294,-1.504,107.910,19.409,-61.279,1
0.769,1.569,-1.207,139.648,11.292,-76.294,1
0.685,1.436,-0.937,140.930,2.747,-91.125,1
0.702,1.224,-0.610,113.647,-3.357,-104.309,1
0.683,1.067,-0.522,92.590,-6.348,-113.220,1
0.619,0.952,-0.375,100.525,-8.240,-122.437,1
0.600,0.783,-0.308,102.539,-8.606,-126.648,1
0.623,0.656,-0.294,79.407,-8.972,-129.272,1
0.641,0.621,-0.238,43.457,-11.414,-127.563,1
0.736,0.595,-0.198,23.315,-13.733,-123.352,1
0.829,0.473,-0.228,16.846,-15.137,-122.375,1
0.921,0.487,-0.253,33.691,-15.991,-119.629,1
0.945,0.486,-0.220,75.684,-15.381,-114.990,1
1.060,0.470,-0.211,100.708,-13.916,-110.229,1
0.971,0.385,-0.188,91.187,-11.902,-106.384,1
0.918,0.349,-0.165,81.177,-9.583,-106.750,1
0.861,0.384,-0.127,110.901,-8.423,-109.314,1
0.805,0.333,-0.136,132.935,-6.042,-111.328,1
0.737,0.236,-0.120,127.441,-2.197,-114.502,1
0.673,0.169,-0.009,117.432,3.845,-119.080,1
0.581,0.081,-0.031,109.619,9.399,-122.681,1
0.475,0.000,-0.005,119.141,16.541,-126.465,1
0.356,-0.110,0.040,146.484,27.649,-127.747,1
0.298,-0.205,0.017,166.931,41.626,-126.343,1
0.157,-0.394,-0.037,151.733,57.678,-122.009,1
0.048,-0.543,-0.029,126.892,73.364,-112.000,1
0.006,-0.681,0.006,117.554,86.914,-96.985,1
-0.082,-0.801,0.012,105.347,99.060,-75.867,1
-0.213,-0.953,-0.044,72.937,111.572,-49.866,1
-0.324,-1.072,-0.109,37.415,122.620,-22.339,1
-0.530,-1.176,-0.203,34.119,134.949,11.780,1
-0.663,-1.232,-0.207,-0.732,146.729,49.255,1
-0.878,-1.236,-0.227,5.432,159.241,86.670,1
-1.285,-1.150,-0.365,44.678,174.072,131.165,1
-1.727,-1.285,-0.691,19.958,188.171,177.490,1
-2.344,-1.188,-0.521,-42.542,202.270,223.022,1
-2.863,-1.058,-0.648,53.955,216.370,274.109,1
-3.635,-1.137,-0.860,116.211,215.027,340.393,1
-4.055,-0.997,-1.096,151.001,201.660,422.485,1
-4.980,-1.053,-1.177,255.737,167.664,522.827,1
-5.841,-1.290,-1.493,237.549,111.267,623.962,1
-6.857,-1.084,-1.455,242.310,39.612,730.347,1
-8.000,-0.862,-1.380,328.674,-78.003,850.464,1
-8.000,-0.574,-1.165,416.321,-209.778,937.378,1
-8.000,-0.152,-0.957,522.278,-379.700,998.657,1
-8.000,0.333,-0.509,508.667,-556.824,1009.338,1
-8.000,1.185,0.343,469.849,-719.604,998.108,1
-8.000,2.413,0.918,699.219,-856.872,966.186,1
-8.000,2.504,-0.006,1327.881,-1008.728,760.681,1
-8.000,2.281,-0.153,1657.593,-1115.295,349.365,1
-8.000,1.574,-0.041,1444.397,-1046.936,-165.588,1
-8.000,0.928,0.191,1040.527,-830.810,-452.881,1
-8.000,0.161,0.318,751.099,-624.268,-603.027,1
-8.000,-0.121,0.732,372.620,-473.145,-657.288,1
-7.943,0.105,1.228,286.987,-378.662,-654.419,1
-6.893,0.027,1.305,362.549,-278.320,-642.029,1
-5.675,-0.590,1.169,264.709,-163.147,-619.873,1
-4.870,-0.743,1.370,205.444,-81.116,-582.214,1
-4.137,-0.999,1.312,205.505,-16.174,-538.940,1
-3.388,-0.980,1.091,205.688,43.701,-486.816,1
-2.823,-0.989,0.887,203.247,90.332,-430.542,1
-2.659,-0.925,0.827,188.721,122.620,-372.864,1
-2.298,-0.842,0.671,172.485,147.339,-314.331,1
-1.789,-0.886,0.525,125.793,164.917,-259.705,1
-1.208,-0.789,0.442,108.215,172.546,-210.999,1
-0.900,-0.703,0.379,105.530,174.377,-169.434,1
-0.605,-0.608,0.329,105.164,173.645,-129.639,1
-0.453,-0.506,0.270,96.497,170.105,-96.680,1
-0.352,-0.394,0.233,98.145,165.344,-69.824,1
-0.253,-0.317,0.171,101.257,158.875,-47.729,1
-0.159,-0.270,0.103,104.675,151.428,-30.212,1
-0.059,-0.208,0.074,115.479,143.799,-14.648,1
0.129,-0.214,0.028,115.356,136.230,-2.563,1
0.259,-0.173,-0.020,108.337,128.601,8.301,1
0.385,-0.126,-0.050,118.408,123.291,17.090,1
0.486,-0.077,-0.110,136.108,120.117,26.672,1
0.485,-0.099,-0.145,142.761,118.225,31.555,1
0.433,-0.129,-0.162,131.836,114.502,31.372,1
0.454,-0.111,-0.164,112.000,108.948,27.649,1
0.580,-0.052,-0.226,104.309,103.088,25.818,1
0.699,-0.016,-0.272,107.910,99.365,26.428,1
0.817,0.031,-0.301,112.915,97.229,29.114,1
0.857,0.034,-0.313,114.197,97.168,31.006,1
0.786,0.094,-0.527,112.305,98.206,31.250,1
0.739,0.077,-0.354,109.741,98.206,30.334,1
0.774,0.168,-0.335,130.676,98.083,31.860,1
0.889,0.098,-0.389,161.072,100.342,33.813,1
0.906,0.052,-0.473,181.702,104.126,32.837,1
0.774,0.079,-0.473,177.673,106.018,33.386,1
0.737,0.185,-0.398,181.885,107.117,35.339,1
0.784,0.298,-0.382,215.759,107.483,40.100,1
0.895,0.370,-0.425,250.610,106.995,48.645,1
0.867,0.252,-0.564,227.173,106.628,54.260,1
0.756,0.251,-0.597,155.396,106.140,56.274,1
0.604,0.371,-0.527,133.789,106.140,55.359,1
0.613,0.499,-0.539,161.499,105.774,55.542,1
0.647,0.597,-0.555,206.909,103.882,57.190,1
0.646,0.627,-0.639,209.534,102.295,58.899,1
0.603,0.723,-0.727,168.213,99.854,57.312,1
0.591,0.888,-0.777,141.296,97.778,54.077,1
0.588,1.070,-0.821,142.944,94.727,49.011,1
0.564,1.209,-0.846,158.203,89.966,43.518,1
0.615,1.373,-0.873,173.401,83.801,36.072,1
0.579,1.549,-0.923,157.349,75.806,28.198,1
0.564,1.579,-0.883,140.625,66.345,13.794,1
0.601,1.643,-0.874,131.042,57.495,-0.488,1
0.665,1.687,-0.902,133.240,49.622,-12.939,1
0.675,1.663,-0.909,144.165,41.382,-25.146,1
0.646,1.604,-0.874,145.020,33.813,-38.086,1
0.625,1.503,-0.812,139.282,28.015,-51.941,1
0.636,1.421,-0.715,135.315,24.536,-64.331,1
0.664,1.345,-0.634,137.329,22.522,-74.707,1
0.635,1.258,-0.549,135.986,21.057,-84.045,1
0.662,1.214,-0.468,112.793,19.592,-91.125,1
0.798,0.913,-0.528,57.617,18.433,-96.680,1
0.806,1.107,-0.491,45.837,16.174,-100.464,1
0.961,1.128,-0.419,64.087,15.320,-103.577,1
0.964,1.075,-0.326,73.792,15.442,-107.422,1
0.835,1.078,-0.333,58.350,14.771,-111.755,1
0.905,1.043,-0.178,22.095,13.611,-119.629,1
0.656,1.143,-0.290,55.237,12.878,-125.610,1
0.454,1.066,-0.270,86.304,10.620,-132.446,1
0.650,1.084,-0.271,90.698,9.277,-138.367,1
0.586,1.078,-0.281,63.660,6.592,-144.287,1
0.533,1.108,-0.262,58.960,1.648,-149.414,1
0.476,1.049,-0.259,87.402,-4.150,-155.151,1
0.427,0.981,-0.267,123.596,-8.484,-160.522,1
0.373,0.898,-0.256,127.502,-12.756,-165.161,1
0.284,0.744,-0.312,126.953,-15.625,-171.143,1
0.264,0.622,-0.310,122.681,-17.090,-176.086,1
0.262,0.482,-0.278,130.371,-16.174,-180.054,1
0.272,0.268,-0.250,139.893,-11.780,-183.594,1
0.162,0.056,-0.215,120.178,-5.127,-187.012,1
0.140,-0.087,-0.199,109.802,2.686,-190.369,1
0.054,-0.177,-0.160,130.249,12.085,-192.322,1
0.011,-0.287,-0.142,176.147,29.114,-191.528,1
-0.023,-0.370,-0.030,212.830,48.706,-184.265,1
-0.061,-0.573,-0.088,182.800,68.909,-169.128,1
-0.122,-0.868,-0.005,107.544,86.670,-150.635,1
-0.315,-0.812,-0.082,59.448,100.769,-126.099,1
-0.319,-1.020,-0.115,75.989,117.737,-91.187,1
-0.440,-1.236,-0.204,55.359,132.935,-57.068,1
-0.559,-1.333,-0.230,25.635,149.963,-14.221,1
-0.696,-1.426,-0.258,19.409,168.213,34.851,1
-1.024,-1.506,-0.375,1.587,188.049,89.050,1
-1.432,-1.437,-0.458,9.521,208.740,145.142,1
-1.980,-1.406,-0.611,25.696,228.271,208.679,1
-2.591,-1.291,-0.840,53.223,241.943,273.376,1
-3.138,-1.088,-1.001,91.003,248.474,341.309,1
-3.807,-1.000,-1.315,112.244,245.117,427.307,1
-4.776,-0.920,-1.499,140.503,226.318,535.645,1
-5.826,-1.036,-1.616,140.259,184.448,645.691,1
-7.016,-0.719,-1.913,194.275,118.774,764.770,1
-7.997,-0.566,-1.650,335.754,9.033,885.559,1
-8.000,-0.415,-1.489,470.947,-152.710,987.854,1
-8.000,-0.059,-1.224,592.102,-374.084,1050.842,1
-8.000,0.546,-0.882,621.338,-587.524,1055.969,1
-8.000,1.073,0.001,607.666,-781.128,1010.864,1
-8.000,2.109,0.949,749.268,-941.711,933.777,1
-8.000,2.487,1.487,1307.983,-1115.173,699.402,1
-8.000,1.602,0.647,1408.569,-1191.040,232.239,1
-8.000,1.013,2.247,1194.824,-1097.351,-180.908,1
-8.000,0.892,1.761,976.501,-892.883,-445.312,1
-8.000,0.299,1.434,760.864,-682.983,-591.736,1
-8.000,-0.088,1.299,614.319,-505.554,-665.832,1
-7.597,-0.321,1.340,521.729,-355.896,-694.336,1
-6.306,-0.699,1.452,409.790,-223.389,-691.772,1
-5.929,-0.852,1.466,294.434,-121.948,-665.039,1
-5.485,-0.940,1.550,288.879,-27.649,-626.953,1
-4.915,-1.166,1.293,261.047,45.837,-586.975,1
-4.034,-1.245,1.003,207.642,102.905,-541.199,1
-3.395,-1.326,0.838,206.604,143.860,-492.187,1
-3.011,-1.268,0.576,210.327,173.157,-436.829,1
-2.621,-1.213,0.459,191.650,194.458,-377.869,1
-2.210,-0.994,0.514,165.894,200.745,-318.848,1
-1.690,-0.836,0.452,197.998,203.247,-257.385,1
-1.239,-0.864,0.359,220.032,206.299,-208.252,1
-0.957,-0.940,0.211,167.664,204.590,-161.987,1
-0.810,-0.879,0.196,131.775,201.233,-122.681,1
-0.629,-0.800,0.151,133.789,197.510,-84.961,1
-0.420,-0.755,0.081,129.333,192.322,-54.504,1
-0.233,-0.644,0.041,131.775,184.753,-26.062,1
-0.222,-0.377,0.036,173.340,178.101,-1.648,1
0.044,-0.359,-0.028,191.956,167.969,19.653,1
0.147,-0.326,-0.096,170.837,156.433,36.377,1
0.154,-0.209,-0.047,184.265,145.813,50.171,1
0.227,-0.138,-0.128,205.444,135.315,62.378,1
0.290,-0.086,-0.208,225.464,123.840,71.411,1
0.414,-0.065,-0.298,235.474,112.061,77.454,1
0.430,0.009,-0.487,228.638,101.868,81.055,1
0.527,0.175,-0.567,254.517,93.323,84.229,1
0.578,0.192,-0.559,246.765,85.266,83.740,1
0.618,0.248,-0.610,208.801,78.735,78.064,1
0.636,0.357,-0.588,172.241,73.364,70.251,1
0.762,0.428,-0.552,146.912,68.420,61.401,1
0.853,0.576,-0.536,169.617,64.270,53.711,1
0.861,0.652,-0.613,218.079,59.937,46.814,1
0.930,0.700,-0.687,237.183,56.030,40.527,1
1.011,0.736,-0.788,210.327,51.941,32.410,1
1.040,0.764,-0.822,181.519,50.232,23.254,1
1.056,0.831,-0.835,176.575,49.805,15.015,1
1.061,0.871,-0.843,186.157,49.011,6.653,1
1.012,1.055,-0.779,174.499,47.363,3.235,1
0.990,0.827,-0.709,163.269,45.471,-5.676,1
0.854,0.802,-0.682,179.321,47.485,-12.085,1
0.818,0.704,-0.879,173.462,50.720,-20.081,1
0.811,0.765,-0.853,160.645,52.917,-25.879,1
0.800,0.741,-0.812,147.705,55.847,-31.067,1
0.810,0.625,-0.809,132.385,58.594,-37.354,1
0.727,0.693,-0.728,119.141,60.547,-39.429,1
0.654,0.640,-0.719,123.108,61.646,-43.823,1
0.570,0.590,-0.767,152.710,61.951,-47.119,1
0.583,0.534,-0.819,156.128,61.890,-48.279,1
0.705,0.495,-0.868,133.240,59.021,-48.096,1
0.721,0.529,-0.906,120.972,57.129,-45.654,1
0.782,0.575,-0.874,135.864,54.138,-41.443,1
0.818,0.595,-0.942,145.874,50.842,-36.621,1
0.835,0.687,-0.925,155.273,43.762,-35.645,1
0.939,0.712,-0.881,138.428,36.194,-34.668,1
0.902,0.798,-0.902,93.994,26.672,-36.865,1
0.861,0.934,-0.919,57.434,14.709,-41.931,1
0.826,1.038,-0.912,79.468,2.258,-48.096,1
0.823,1.064,-0.892,107.605,-8.423,-55.054,1
0.852,1.055,-0.827,110.229,-19.287,-63.904,1
0.886,1.081,-0.725,110.535,-28.564,-71.655,1
0.937,1.049,-0.622,102.051,-37.720,-78.674,1
