ax,ay,az,gx,gy,gz,label
-0.732,0.580,-0.323,-100.708,18.494,-21.790,1
-0.778,0.647,-0.332,-71.594,19.287,-23.804,1
-0.804,0.684,-0.353,-59.814,20.386,-28.381,1
-0.815,0.752,-0.365,-54.749,21.179,-33.447,1
-0.825,0.818,-0.348,-41.199,22.583,-40.039,1
-0.859,0.859,-0.359,-21.729,23.804,-47.363,1
-0.851,0.873,-0.371,-23.010,25.085,-55.664,1
-0.883,0.922,-0.385,-26.611,26.001,-64.636,1
-0.917,0.954,-0.398,-24.780,27.039,-73.914,1
-0.938,0.980,-0.424,-38.757,27.405,-84.778,1
-0.930,1.027,-0.415,-39.246,26.794,-95.886,1
-0.935,1.053,-0.416,-32.898,26.184,-106.628,1
-0.961,1.070,-0.444,-29.297,26.001,-116.882,1
-0.953,1.093,-0.447,-26.978,24.414,-124.756,1
-0.921,1.114,-0.455,-20.325,22.583,-133.545,1
-0.888,1.122,-0.450,-6.897,20.081,-140.686,1
-0.907,1.071,-0.465,-10.864,18.188,-147.522,1
-0.885,1.063,-0.442,-19.714,15.564,-154.968,1
-0.905,1.057,-0.425,-12.085,12.634,-163.208,1
-0.858,0.983,-0.414,-26.001,10.376,-170.593,1
-0.804,0.998,-0.380,-44.312,7.874,-176.636,1
-0.794,1.005,-0.352,-43.152,5.249,-181.091,1
-0.784,1.013,-0.322,-29.907,3.418,-184.021,1
-0.752,0.998,-0.325,-15.076,2.686,-184.753,1
-0.721,0.984,-0.333,-10.559,3.052,-184.082,1
-0.680,1.006,-0.331,-18.433,3.113,-182.068,1
-0.671,1.055,-0.306,-7.141,2.502,-179.016,1
-0.648,1.056,-0.279,17.822,2.197,-174.805,1
-0.568,1.035,-0.268,40.649,3.052,-169.434,1
-0.465,1.017,-0.257,57.129,4.395,-162.292,1
-0.357,1.000,-0.251,71.899,7.507,-153.259,1
-0.272,0.973,-0.273,67.383,10.193,-143.860,1
-0.219,0.933,-0.278,49.255,12.695,-137.146,1
-0.200,0.942,-0.249,28.992,14.404,-130.554,1
-0.157,0.818,-0.280,23.254,15.808,-126.831,1
-0.038,0.790,-0.276,29.114,16.602,-122.864,1
-0.010,0.729,-0.253,40.222,17.700,-118.347,1
-0.039,0.749,-0.354,51.270,21.484,-115.540,1
-0.094,0.763,-0.804,38.147,27.039,-112.366,1
0.095,0.534,-0.691,-12.512,30.090,-115.540,1
-0.005,0.651,-0.547,-39.307,31.433,-116.577,1
0.094,0.633,-0.483,-16.052,32.288,-115.662,1
0.147,0.594,-0.355,-18.616,29.541,-113.281,1
0.155,0.621,-0.346,-12.512,24.170,-108.704,1
0.186,0.615,-0.345,8.606,19.775,-102.722,1
0.232,0.581,-0.359,27.893,16.907,-96.680,1
0.272,0.547,-0.365,47.485,16.296,-90.881,1
0.343,0.474,-0.398,52.673,17.578,-85.327,1
0.429,0.448,-0.379,41.321,19.958,-79.956,1
0.468,0.438,-0.364,20.691,21.912,-74.646,1
0.399,0.485,-0.326,2.563,21.729,-70.190,1
0.393,0.506,-0.304,2.991,21.179,-65.247,1
0.431,0.503,-0.335,4.395,20.447,-61.096,1
0.455,0.498,-0.368,-10.315,19.592,-56.091,1
0.476,0.531,-0.348,-30.090,18.860,-52.063,1
0.521,0.653,-0.351,-28.625,17.761,-47.668,1
0.581,0.747,-0.311,-3.174,15.381,-44.128,1
0.627,0.839,-0.306,26.062,12.512,-41.626,1
0.577,0.864,-0.320,37.537,10.254,-42.175,1
0.576,0.793,-0.385,18.494,9.644,-43.701,1
0.589,0.852,-0.477,8.850,10.132,-50.110,1
0.696,1.033,-0.384,15.869,9.216,-57.861,1
0.773,1.115,-0.223,18.250,7.263,-67.139,1
0.758,1.220,-0.242,32.654,7.141,-77.026,1
0.764,1.272,-0.228,38.635,7.324,-88.318,1
0.710,1.427,-0.137,7.385,6.775,-94.543,1
0.633,1.408,-0.150,37.659,6.042,-111.511,1
0.741,1.204,-0.170,44.983,3.784,-122.925,1
0.709,1.151,-0.197,12.512,1.099,-133.179,1
0.578,1.142,-0.145,3.113,-2.991,-142.090,1
0.702,1.097,-0.214,16.235,-7.324,-149.780,1
0.617,1.122,-0.163,33.020,-13.062,-155.518,1
0.879,0.942,-0.281,51.636,-15.259,-159.363,1
0.830,0.847,-0.324,37.354,-16.907,-162.231,1
0.771,0.831,-0.351,34.363,-18.494,-165.466,1
0.691,0.716,-0.398,42.053,-20.264,-169.678,1
0.561,0.563,-0.405,40.771,-24.475,-174.438,1
0.460,0.456,-0.397,56.335,-29.907,-178.528,1
0.438,0.322,-0.398,80.933,-32.166,-180.847,1
0.470,0.212,-0.366,92.407,-31.372,-181.824,1
0.512,0.108,-0.348,83.801,-27.771,-180.420,1
0.521,0.056,-0.276,69.519,-23.682,-177.429,1
0.511,0.010,-0.229,65.979,-19.287,-173.645,1
0.497,-0.053,-0.180,67.444,-13.428,-170.105,1
0.437,-0.113,-0.141,64.697,-6.958,-168.030,1
0.370,-0.225,-0.114,66.711,0.732,-167.175,1
0.283,-0.330,-0.074,75.134,11.963,-167.114,1
0.232,-0.389,-0.047,74.707,24.048,-165.771,1
0.052,-0.480,-0.057,57.922,38.818,-158.813,1
0.043,-0.557,-0.058,41.077,55.603,-148.865,1
-0.030,-0.766,-0.014,38.330,73.853,-137.939,1
-0.181,-0.923,0.046,34.180,97.107,-120.117,1
-0.329,-1.096,0.050,13.611,117.126,-97.717,1
-0.703,-1.098,-0.080,10.498,137.573,-71.045,1
-0.858,-1.127,-0.219,-4.700,159.546,-41.077,1
-1.102,-1.048,-0.351,-20.386,182.068,-3.418,1
-1.074,-1.159,-0.400,-33.997,204.224,46.143,1
-1.357,-1.004,-0.408,-1.099,223.022,100.586,1
-1.604,-1.028,-0.510,22.705,236.389,159.485,1
-1.943,-0.954,-0.659,20.569,246.094,212.524,1
-2.281,-0.904,-0.697,58.777,252.747,277.405,1
-2.740,-0.772,-0.858,80.383,249.878,358.398,1
-3.219,-0.624,-1.034,142.883,238.770,439.941,1
-3.717,-0.633,-1.237,244.934,202.454,552.063,1
-4.328,-0.592,-1.341,305.847,131.165,673.523,1
-5.438,-0.382,-1.362,380.676,34.607,786.194,1
-6.851,-0.281,-1.261,438.049,-90.942,885.925,1
-8.000,0.002,-1.043,492.554,-237.671,963.135,1
-8.000,0.298,-0.858,508.240,-381.531,1005.188,1
-8.000,0.747,-0.496,522.705,-534.363,1017.395,1
-8.000,1.496,0.478,615.967,-702.698,999.390,1
-8.000,2.130,0.534,857.666,-867.248,922.424,1
-8.000,2.013,0.755,1109.680,-1037.354,709.595,1
-8.000,1.888,0.972,1261.963,-1139.648,350.891,1
-8.000,1.670,1.067,1308.472,-1087.463,-97.778,1
-8.000,0.962,0.747,993.591,-908.997,-393.799,1
-8.000,0.531,1.290,791.016,-699.585,-559.143,1
-8.000,0.219,1.081,739.502,-510.010,-643.799,1
-7.326,-0.374,1.074,524.841,-337.280,-679.810,1
-6.389,-0.887,1.417,306.030,-222.412,-673.462,1
-5.888,-1.153,1.563,224.976,-143.127,-647.949,1
-4.613,-1.133,1.859,232.422,-69.092,-600.037,1
-3.810,-1.171,1.448,258.728,0.916,-536.865,1
-2.745,-1.528,1.172,248.901,65.247,-473.022,1
-2.094,-1.475,1.070,177.429,104.370,-406.494,1
-2.047,-1.153,0.905,190.613,128.113,-336.060,1
-1.759,-0.972,0.852,221.191,146.851,-272.583,1
-1.509,-0.770,0.730,209.412,162.231,-209.778,1
-1.361,-0.619,0.679,194.763,170.837,-159.668,1
-1.152,-0.545,0.554,159.668,175.293,-114.685,1
-0.971,-0.482,0.462,133.362,176.575,-78.918,1
-0.795,-0.415,0.358,118.347,176.270,-49.561,1
-0.601,-0.363,0.300,104.980,175.110,-27.161,1
-0.421,-0.271,0.291,97.900,172.363,-3.784,1
-0.231,-0.160,0.304,101.257,169.617,14.282,1
-0.076,-0.102,0.333,113.403,164.307,31.494,1
0.105,-0.046,0.308,131.897,158.386,46.509,1
0.241,0.002,0.272,148.804,153.381,57.983,1
0.367,0.010,0.227,154.663,148.682,68.359,1
0.410,0.019,0.199,140.686,144.836,75.500,1
0.500,0.048,0.166,119.080,141.357,79.834,1
0.524,0.072,0.121,105.713,139.465,81.787,1
0.607,0.084,0.073,103.333,138.672,82.275,1
0.679,0.139,0.044,111.389,138.245,84.167,1
0.727,0.194,0.027,115.906,137.207,86.914,1
0.753,0.230,0.021,107.300,134.827,88.745,1
0.789,0.265,-0.025,95.642,132.751,89.355,1
0.809,0.293,-0.039,88.684,131.165,88.135,1
0.822,0.381,-0.068,83.923,130.310,86.853,1
0.806,0.475,-0.058,100.342,130.005,85.388,1
0.761,0.557,-0.107,115.601,129.211,85.999,1
0.699,0.601,-0.127,117.187,126.953,85.999,1
0.607,0.619,-0.217,119.080,127.014,83.374,1
0.574,0.658,-0.243,142.578,128.113,78.430,1
0.520,0.778,-0.242,164.246,128.113,74.890,1
0.425,0.817,-0.285,177.307,127.197,72.266,1
0.338,0.804,-0.292,176.697,125.916,71.899,1
0.323,0.852,-0.353,186.096,127.686,73.669,1
0.371,0.875,-0.299,187.561,127.014,72.693,1
0.385,0.855,-0.298,150.208,126.709,71.350,1
0.463,0.977,-0.454,130.920,129.395,73.486,1
0.689,1.169,-0.388,174.011,131.409,72.937,1
0.820,1.197,-0.390,169.617,128.418,73.730,1
0.737,1.195,-0.304,123.169,123.352,69.824,1
0.672,1.217,-0.310,102.173,119.995,63.416,1
0.625,1.248,-0.344,121.948,119.751,56.030,1
0.549,1.195,-0.470,128.418,120.483,47.119,1
0.480,1.185,-0.488,97.839,120.972,35.461,1
0.489,1.294,-0.455,76.477,119.141,24.170,1
0.555,1.389,-0.442,78.247,116.089,12.695,1
0.594,1.381,-0.509,46.570,111.572,2.136,1
0.509,1.448,-0.567,-11.963,103.455,-11.536,1
0.458,1.461,-0.625,-18.799,94.238,-25.574,1
0.434,1.399,-0.697,5.127,84.045,-39.795,1
0.386,1.321,-0.764,6.775,75.500,-52.551,1
0.357,1.267,-0.809,-18.066,64.392,-66.345,1
0.456,1.234,-0.816,-26.489,53.223,-77.332,1
0.586,1.174,-0.802,-16.357,42.480,-85.205,1
0.647,1.085,-0.785,-0.671,32.593,-90.027,1
0.683,1.066,-0.797,8.789,23.193,-92.468,1
0.685,1.043,-0.792,22.583,15.320,-94.360,1
0.681,1.023,-0.773,47.852,7.324,-96.313,1
0.654,0.911,-0.751,60.242,-0.549,-98.755,1
0.644,0.806,-0.712,63.660,-7.629,-100.830,1
0.661,0.727,-0.636,57.678,-12.451,-101.685,1
0.700,0.674,-0.563,58.472,-15.991,-101.318,1
0.749,0.637,-0.483,70.496,-18.677,-100.037,1
0.789,0.611,-0.440,94.849,-18.555,-96.680,1
0.783,0.595,-0.363,109.863,-17.456,-94.299,1
0.766,0.573,-0.358,100.891,-17.639,-92.285,1
0.751,0.603,-0.311,99.304,-19.043,-89.050,1
0.722,0.590,-0.297,101.074,-19.714,-83.862,1
0.751,0.542,-0.176,101.501,-20.142,-81.909,1
0.755,0.548,-0.122,111.633,-20.508,-80.322,1
0.746,0.495,-0.136,116.150,-19.104,-81.238,1
0.720,0.510,-0.111,99.731,-15.259,-82.703,1
0.697,0.504,-0.115,60.974,-9.216,-84.900,1
0.675,0.596,-0.090,41.809,-3.479,-89.050,1
0.651,0.640,-0.022,37.720,0.732,-95.825,1
0.580,0.659,-0.023,36.560,3.113,-103.333,1
0.533,0.665,-0.106,20.447,4.028,-112.915,1
0.540,0.644,-0.161,9.827,3.235,-121.277,1
0.571,0.599,-0.190,20.996,1.038,-128.723,1
0.624,0.481,-0.205,33.569,-1.587,-134.155,1
0.710,0.380,-0.199,35.217,-5.127,-137.512,1
0.857,0.339,-0.139,50.537,-7.690,-135.437,1
1.077,0.309,-0.210,76.782,-6.775,-129.089,1
1.159,0.217,-0.201,98.206,-2.563,-119.629,1
1.031,0.147,-0.174,102.966,1.709,-112.183,1
0.799,0.073,-0.134,113.892,6.104,-108.398,1
0.605,-0.057,-0.115,115.417,11.719,-109.558,1
0.519,-0.143,-0.165,90.942,19.104,-112.488,1
0.479,-0.260,-0.172,39.185,26.611,-117.432,1
0.498,-0.257,-0.174,1.587,34.424,-120.789,1
0.444,-0.244,-0.198,-4.822,43.457,-121.155,1
0.408,-0.193,-0.211,16.296,53.894,-118.408,1
0.442,-0.385,-0.158,56.152,65.308,-113.037,1
0.395,-0.468,-0.146,62.439,76.599,-105.835,1
0.219,-0.470,-0.123,34.668,91.980,-94.849,1
-0.025,-0.479,-0.060,28.564,110.596,-81.360,1
-0.141,-0.587,-0.047,41.687,130.981,-66.895,1
-0.342,-0.649,-0.156,30.151,157.532,-48.950,1
-0.648,-0.675,-0.302,19.897,186.890,-30.090,1
-1.025,-0.649,-0.430,21.606,218.933,-6.409,1
-1.478,-0.612,-0.567,16.724,247.559,22.400,1
-1.660,-0.600,-0.590,-15.991,276.550,61.035,1
-1.996,-0.635,-0.716,-87.952,305.664,104.736,1
-2.064,-0.575,-0.770,-133.972,338.379,149.841,1
-2.418,-0.489,-0.811,-154.175,375.244,202.698,1
-2.703,-0.469,-0.861,-124.573,413.696,263.489,1
-2.944,-0.362,-0.975,-17.883,445.740,346.374,1
-3.364,-0.558,-1.313,222.229,454.956,469.543,1
-4.046,-0.894,-1.555,333.069,413.025,605.469,1
-5.152,-0.854,-1.653,467.468,308.472,754.089,1
-6.612,-0.661,-1.769,572.144,144.836,891.174,1
-8.000,-0.456,-1.561,576.904,-48.523,991.821,1
-8.000,-0.212,-1.302,515.442,-230.103,1047.668,1
-8.000,0.315,-0.976,447.266,-377.869,1073.059,1
-8.000,0.933,-0.269,443.115,-515.320,1076.843,1
-8.000,1.646,0.285,621.704,-675.842,1052.246,1
-8.000,1.634,0.342,773.926,-855.774,940.247,1
-8.000,1.715,0.611,876.343,-962.830,767.578,1
-8.000,2.533,1.037,1196.838,-1044.434,479.919,1
-8.000,2.210,1.212,1393.310,-1054.138,118.286,1
-8.000,1.092,0.819,976.929,-940.002,-194.885,1
-8.000,0.784,1.308,790.466,-804.016,-341.064,1
-7.363,0.074,1.722,776.672,-657.410,-457.336,1
-6.176,-0.636,1.638,478.027,-505.066,-532.959,1
-5.289,-0.901,1.645,324.036,-403.748,-538.574,1
-4.674,-1.236,1.917,286.682,-310.486,-522.888,1
-3.664,-1.425,2.237,272.888,-243.225,-495.483,1
-2.587,-1.641,2.173,258.362,-171.570,-450.500,1
-2.229,-1.704,2.151,188.293,-105.041,-389.282,1
-1.644,-1.672,2.008,193.848,-37.842,-315.369,1
-1.391,-1.563,1.913,177.063,17.517,-246.643,1
-1.118,-1.330,1.825,176.575,62.744,-181.396,1
-0.907,-1.280,1.539,167.786,93.933,-124.878,1
-0.703,-0.881,1.391,152.100,117.554,-71.594,1
-0.635,-0.657,1.246,141.846,133.911,-27.710,1
-0.599,-0.478,1.047,121.338,145.386,8.301,1
-0.642,-0.368,0.931,96.863,154.114,34.973,1
-0.578,-0.250,0.860,84.656,159.668,55.237,1
-0.455,-0.138,0.809,86.304,164.185,73.303,1
-0.346,-0.005,0.785,103.333,166.931,89.478,1
-0.325,0.026,0.774,133.179,166.443,103.943,1
-0.273,0.007,0.717,135.803,164.917,112.854,1
-0.144,-0.005,0.685,107.788,162.109,118.286,1
0.073,0.036,0.640,88.562,160.095,123.047,1
0.227,0.051,0.547,83.435,158.569,126.831,1
0.322,0.065,0.531,85.754,156.067,129.883,1
0.443,0.147,0.559,103.638,151.733,132.263,1
0.461,0.210,0.538,128.418,145.874,134.949,1
0.423,0.204,0.460,128.174,142.578,134.949,1
0.501,0.224,0.448,97.290,140.076,134.399,1
0.650,0.247,0.429,71.716,136.414,132.812,1
0.717,0.320,0.430,79.773,132.141,130.493,1
0.740,0.407,0.427,133.118,128.845,130.066,1
0.788,0.534,0.395,175.293,126.160,133.545,1
0.761,0.512,0.363,163.269,124.390,137.634,1
0.748,0.517,0.412,98.938,124.573,136.597,1
0.806,0.717,0.478,82.642,127.930,132.568,1
0.684,0.832,0.542,124.268,133.301,127.686,1
0.570,0.858,0.568,133.850,140.991,121.094,1
0.590,0.833,0.536,57.129,153.748,113.037,1
0.812,0.793,0.694,-40.039,171.631,105.652,1
0.694,1.064,0.586,-37.842,193.237,94.238,1
0.545,1.160,0.441,-17.273,210.815,83.313,1
0.357,1.139,0.246,-39.856,227.844,64.575,1
0.167,1.133,0.029,-62.927,239.746,43.152,1
0.127,1.177,-0.159,-42.542,245.300,21.790,1
0.102,1.183,-0.356,-3.723,244.263,4.456,1
0.068,1.145,-0.518,33.630,238.281,-9.460,1
0.092,1.158,-0.698,55.298,231.445,-18.372,1
0.140,1.216,-0.761,64.636,221.558,-28.259,1
0.001,1.208,-0.886,104.187,211.243,-37.231,1
0.151,1.182,-0.948,131.042,202.332,-41.565,1
0.137,1.174,-0.935,135.132,193.054,-46.387,1
0.191,1.240,-1.059,161.560,183.289,-52.673,1
0.160,1.284,-1.012,198.853,173.706,-57.495,1
0.160,1.285,-1.024,200.195,163.208,-62.378,1
0.101,1.290,-0.964,185.547,153.137,-67.810,1
0.182,1.307,-0.952,155.029,143.127,-75.867,1
0.228,1.300,-0.877,140.076,135.986,-84.412,1
0.210,1.286,-0.802,138.794,131.348,-93.201,1
0.295,1.250,-0.783,131.592,128.052,-102.539,1
0.373,1.215,-0.779,124.451,125.977,-111.694,1
0.401,1.157,-0.751,105.041,124.390,-120.117,1
0.375,1.201,-0.814,72.449,121.582,-130.493,1
0.388,1.146,-0.783,51.392,117.859,-141.846,1
0.371,1.123,-0.767,57.861,113.220,-149.292,1
0.437,1.078,-0.761,78.369,108.948,-154.114,1
0.387,0.991,-0.794,72.571,103.821,-157.349,1
0.390,0.865,-0.849,56.152,99.060,-160.278,1
0.392,0.774,-0.942,21.118,94.055,-165.161,1
0.423,0.779,-0.895,29.297,88.074,-169.922,1
0.459,0.702,-0.862,42.297,82.092,-173.706,1
0.462,0.613,-0.865,27.893,75.928,-176.941,1
0.492,0.592,-0.911,9.399,69.214,-179.199,1
0.538,0.563,-0.969,2.502,61.523,-180.969,1
0.608,0.557,-0.992,19.409,52.551,-181.824,1
0.593,0.500,-0.992,34.424,44.189,-182.556,1
0.510,0.416,-0.958,16.418,36.804,-183.044,1
0.449,0.355,-0.861,-5.737,28.931,-184.082,1
0.398,0.364,-0.773,6.836,22.400,-184.143,1
0.323,0.321,-0.758,22.949,16.357,-184.875,1
0.100,0.278,-0.859,25.391,14.160,-188.293,1
-0.000,0.163,-0.881,9.888,13.428,-192.688,1
-0.066,0.099,-0.836,-2.014,12.024,-195.251,1
-0.087,0.004,-0.793,9.399,11.108,-195.557,1
-0.151,-0.141,-0.769,2.258,11.230,-192.322,1
-0.099,-0.269,-0.714,-11.597,11.658,-187.378,1
-0.203,-0.391,-0.640,-5.249,14.526,-179.504,1
-0.143,-0.494,-0.598,-6.226,20.630,-168.579,1
-0.172,-0.527,-0.613,-2.991,30.396,-152.893,1
-0.224,-0.598,-0.589,19.409,45.227,-131.531,1
-0.213,-0.739,-0.444,68.909,66.467,-107.666,1
-0.358,-0.806,-0.453,28.442,91.736,-73.914,1
-0.580,-0.817,-0.437,30.457,117.126,-36.560,1
-0.668,-0.855,-0.407,35.767,142.944,5.615,1
-0.986,-0.799,-0.420,34.668,167.541,47.791,1
-1.282,-0.804,-0.513,18.738,196.106,94.971,1
-1.377,-0.794,-0.593,14.343,222.534,146.545,1
-1.702,-0.815,-0.654,65.918,241.455,202.148,1
-1.672,-0.893,-1.047,84.106,253.296,266.785,1
-2.378,-1.022,-1.437,30.396,261.597,329.895,1
-2.745,-0.962,-1.609,32.410,265.991,403.809,1
-3.452,-0.933,-1.802,22.583,259.277,492.493,1
-4.201,-0.835,-1.958,-8.362,246.887,575.623,1
-5.077,-0.643,-2.010,18.066,228.455,661.194,1
-6.302,-0.487,-1.941,104.675,186.218,750.549,1
-7.417,-0.323,-1.936,269.287,95.581,848.328,1
-8.000,-0.093,-1.707,421.997,-38.330,927.429,1
-8.000,0.102,-1.345,540.283,-229.492,975.952,1
-8.000,0.289,-0.858,587.524,-421.997,968.689,1
-8.000,0.566,-0.292,569.824,-616.516,909.729,1
-8.000,0.992,0.512,532.471,-791.382,817.139,1
-8.000,1.462,0.951,609.741,-927.551,707.214,1
-8.000,1.425,1.133,694.336,-1024.414,585.266,1
-8.000,1.642,1.684,842.224,-1076.904,396.301,1
-8.000,2.128,2.498,972.534,-1093.323,186.768,1
-8.000,2.025,2.631,1239.075,-1042.053,-111.694,1
-8.000,1.131,1.864,1114.136,-902.283,-364.563,1
-8.000,0.126,2.002,749.206,-730.469,-515.015,1
-7.213,-0.364,1.834,504.517,-568.542,-588.379,1
-6.293,-0.667,1.764,385.193,-448.303,-603.638,1
-5.594,-1.328,1.765,332.947,-338.745,-600.098,1
-4.545,-1.505,1.604,211.365,-256.226,-573.975,1
-3.736,-1.515,1.832,165.344,-196.899,-530.579,1
-3.162,-1.629,2.254,201.111,-138.123,-480.225,1
-3.194,-2.036,2.193,206.177,-73.730,-421.326,1
-2.410,-2.584,2.987,134.155,-21.362,-367.187,1
-1.882,-1.686,2.298,171.387,23.254,-304.993,1
-1.685,-1.844,2.115,237.427,69.946,-227.661,1
-1.315,-1.923,1.990,191.956,97.839,-166.260,1
-1.172,-1.659,1.742,151.306,117.310,-104.004,1
-1.096,-1.408,1.536,167.480,131.226,-44.678,1
-1.014,-1.070,1.328,159.607,141.968,6.287,1
-0.904,-0.841,1.167,143.494,149.963,46.387,1
-0.834,-0.657,1.033,124.695,155.640,83.130,1
-0.671,-0.519,0.955,118.469,156.921,109.680,1
-0.504,-0.381,0.923,113.831,154.602,131.287,1
-0.361,-0.210,0.928,130.371,149.963,148.132,1
-0.504,-0.057,0.871,162.476,147.095,160.950,1
-0.572,-0.096,0.843,157.532,143.188,169.373,1
-0.505,-0.108,0.823,98.450,140.564,170.471,1
-0.388,-0.027,0.866,46.265,138.367,167.664,1
-0.246,0.036,0.879,36.377,137.207,163.635,1
-0.049,0.081,0.909,71.289,136.658,159.729,1
0.049,0.118,0.865,127.625,135.132,157.715,1
0.150,0.118,0.839,149.719,132.202,156.555,1
0.246,0.143,0.828,122.375,130.676,154.175,1
0.261,0.168,0.855,90.332,131.287,149.414,1
0.316,0.209,0.894,84.839,132.324,141.724,1
0.401,0.232,0.865,103.760,133.423,132.996,1
0.511,0.198,0.797,116.455,134.460,125.732,1
0.656,0.237,0.714,102.112,134.216,121.704,1
0.699,0.285,0.688,97.351,133.911,120.056,1
0.778,0.325,0.643,124.573,132.202,118.347,1
0.814,0.291,0.588,141.846,130.981,115.234,1
0.770,0.245,0.451,134.399,130.981,111.023,1
0.720,0.233,0.395,114.319,131.287,105.103,1
0.719,0.263,0.347,102.661,131.226,99.976,1
0.774,0.329,0.368,108.459,129.700,97.961,1
0.823,0.380,0.361,132.996,127.991,97.900,1
0.837,0.406,0.326,168.274,126.465,97.839,1
0.790,0.354,0.284,187.073,125.366,97.412,1
0.703,0.343,0.193,177.979,125.793,95.154,1
0.715,0.427,0.211,151.001,126.038,93.628,1
0.835,0.537,0.163,136.597,125.305,92.651,1
0.918,0.629,0.162,133.606,124.817,91.492,1
0.849,0.651,0.115,132.019,124.756,86.914,1
0.771,0.668,0.004,118.835,127.197,80.505,1
0.735,0.710,-0.018,112.427,131.104,72.815,1
0.670,0.761,-0.034,127.258,132.263,64.575,1
0.667,0.807,-0.115,141.907,132.263,57.312,1
0.622,0.836,-0.130,136.963,131.409,48.767,1
0.732,0.863,-0.209,143.005,130.798,41.565,1
0.702,0.925,-0.261,158.630,127.258,33.630,1
0.851,1.040,-0.281,179.871,121.338,29.358,1
0.872,0.902,-0.497,183.044,116.150,28.381,1
0.767,0.828,-0.470,164.490,113.342,21.423,1
0.754,0.866,-0.388,154.968,109.985,14.771,1
0.803,0.803,-0.365,138.062,105.530,8.179,1
0.839,0.774,-0.394,137.634,101.440,2.502,1
0.910,0.758,-0.435,135.010,98.267,-1.221,1
0.977,0.807,-0.541,134.033,95.398,-4.761,1
0.911,0.804,-0.534,141.541,90.942,-9.460,1
0.903,0.824,-0.601,139.587,86.304,-14.832,1
0.902,0.792,-0.600,123.779,80.139,-21.179,1
0.715,0.847,-0.236,127.441,71.411,-26.001,1
0.854,0.824,-0.468,154.297,65.247,-29.114,1
0.891,0.710,-0.523,116.882,60.730,-35.156,1
0.919,0.783,-0.628,68.726,55.908,-43.823,1
0.864,0.820,-0.574,96.985,50.781,-51.514,1
0.903,0.824,-0.489,158.386,46.448,-55.725,1
0.958,0.765,-0.540,172.668,43.335,-58.960,1
0.986,0.712,-0.490,155.701,40.527,-62.988,1
0.882,0.705,-0.349,119.263,36.133,-68.176,1
0.860,0.768,-0.243,110.413,33.264,-73.181,1
0.870,0.770,-0.279,98.694,30.212,-79.834,1
0.901,0.786,-0.272,85.999,29.358,-86.304,1
0.803,0.866,-0.223,91.675,30.273,-91.492,1
0.679,0.865,-0.186,126.404,32.959,-103.149,1
0.705,0.755,-0.137,123.169,36.682,-113.281,1
0.723,0.515,-0.311,76.721,41.382,-125.793,1
0.702,0.660,-0.244,83.435,44.373,-141.479,1
0.665,0.630,-0.209,133.728,45.044,-155.212,1
0.675,0.526,-0.317,147.949,47.180,-165.405,1
0.700,0.432,-0.325,137.329,51.636,-172.668,1
0.732,0.370,-0.260,141.541,55.603,-175.415,1
0.705,0.261,-0.266,142.029,60.242,-172.791,1
0.568,0.170,-0.300,119.080,68.970,-166.321,1
0.445,0.149,-0.302,109.741,78.064,-160.034,1
0.269,0.082,-0.338,101.624,90.027,-150.452,1
0.114,-0.028,-0.374,80.750,100.952,-141.357,1
-0.036,-0.137,-0.417,66.223,111.633,-130.981,1
-0.306,-0.288,-0.464,52.002,124.817,-117.676,1
-0.550,-0.427,-0.510,44.373,137.207,-104.492,1
-0.821,-0.457,-0.560,76.111,154.724,-82.886,1
-0.770,-0.667,-0.584,56.580,171.509,-55.481,1
-0.874,-0.798,-0.637,-20.325,187.134,-21.545,1
-0.995,-0.840,-0.640,-54.199,203.064,14.404,1
-0.982,-0.895,-0.714,-33.691,220.703,55.298,1
-1.130,-0.965,-0.838,-54.382,235.962,101.257,1
-1.531,-0.937,-1.024,-94.482,251.953,143.433,1
-1.929,-0.924,-1.196,-102.295,269.104,192.383,1
-2.421,-1.004,-1.437,-141.541,282.349,246.765,1
-2.874,-0.906,-1.655,-169.312,296.814,305.359,1
-3.228,-1.021,-2.022,-163.025,309.937,372.986,1
-3.599,-0.909,-2.092,-51.208,316.650,460.693,1
-4.348,-0.973,-2.094,141.235,295.288,569.458,1
-5.579,-1.137,-2.251,342.773,222.656,709.106,1
-7.088,-1.073,-2.288,438.660,95.459,847.290,1
-7.999,-0.832,-2.014,452.209,-63.232,957.703,1
-8.000,-0.555,-1.493,494.019,-242.920,1027.893,1
-8.000,-0.057,-1.033,529.358,-431.457,1048.706,1
-8.000,0.562,-0.175,581.909,-623.352,1025.452,1
-8.000,1.191,0.371,613.342,-796.936,960.510,1
-8.000,1.689,1.136,653.076,-964.111,859.741,1
-8.000,2.428,1.679,1006.348,-1101.440,688.538,1
-8.000,2.427,2.039,1331.604,-1192.139,350.830,1
-8.000,2.135,2.334,1429.565,-1151.550,-89.172,1
-8.000,1.617,1.375,1314.819,-960.083,-488.708,1
-8.000,0.770,1.134,978.577,-711.792,-709.289,1
-8.000,-0.310,1.185,595.520,-503.723,-786.499,1
-8.000,-0.380,1.654,416.260,-372.314,-790.466,1
-7.886,-0.772,1.620,289.185,-256.714,-762.939,1
-6.799,-1.240,1.525,150.024,-188.171,-723.328,1
-5.334,-1.221,1.592,162.781,-130.493,-661.926,1
-4.626,-1.039,1.752,233.765,-61.401,-591.064,1
-3.487,-1.788,1.271,225.098,6.958,-527.344,1
-3.186,-1.780,1.403,201.965,56.580,-459.595,1
-2.887,-1.532,1.350,210.876,103.149,-376.038,1
-2.292,-1.422,1.338,188.416,131.226,-309.143,1
-1.804,-1.467,1.032,154.236,149.475,-239.685,1
-1.494,-1.429,0.918,122.009,156.555,-178.833,1
-1.293,-1.398,0.831,102.966,156.494,-124.695,1
-0.975,-1.198,0.755,114.685,153.198,-78.674,1
-0.632,-1.002,0.658,128.357,145.081,-31.189,1
-0.457,-0.858,0.606,124.512,133.850,9.705,1
-0.323,-0.692,0.571,123.779,120.850,41.077,1
-0.221,-0.588,0.555,130.554,106.262,68.481,1
-0.168,-0.507,0.542,135.986,93.384,89.416,1
-0.178,-0.456,0.545,151.611,80.444,105.347,1
-0.163,-0.465,0.521,165.161,68.604,116.394,1
-0.061,-0.459,0.517,159.607,56.641,125.244,1
0.145,-0.422,0.567,150.696,45.410,133.423,1
0.211,-0.419,0.602,154.114,35.767,140.198,1
0.303,-0.425,0.648,153.015,27.771,144.592,1
0.303,-0.459,0.623,143.066,21.912,146.362,1
0.393,-0.457,0.624,127.014,17.029,147.095,1
0.579,-0.435,0.639,132.141,11.780,149.353,1
0.633,-0.427,0.665,158.752,6.409,151.794,1
0.603,-0.417,0.636,179.016,2.075,153.687,1
0.597,-0.429,0.602,156.555,0.366,154.358,1
0.615,-0.391,0.643,112.305,2.258,155.090,1
0.662,-0.302,0.721,113.586,5.981,157.410,1
0.746,-0.263,0.791,155.884,10.193,160.889,1
0.749,-0.260,0.829,181.885,13.000,162.231,1
0.623,-0.233,0.886,171.020,17.273,160.400,1
0.715,-0.189,0.895,120.483,25.696,156.799,1
0.791,-0.074,0.893,67.688,38.208,152.710,1
0.843,0.040,0.940,85.144,50.476,150.452,1
0.865,0.101,0.877,107.849,59.265,150.146,1
0.786,0.110,0.806,125.916,67.505,149.902,1
0.717,0.124,0.723,131.470,73.730,150.269,1
0.765,0.166,0.651,130.127,79.529,151.733,1
0.728,0.221,0.578,133.911,86.731,154.846,1
0.655,0.258,0.519,137.085,92.773,158.081,1
0.647,0.280,0.444,114.685,98.633,160.095,1
0.664,0.352,0.448,105.347,103.699,162.109,1
0.663,0.423,0.348,116.577,108.093,164.001,1
0.648,0.401,0.390,111.084,111.572,164.062,1
0.603,0.513,0.323,93.445,114.624,162.109,1
0.557,0.682,0.346,96.436,118.530,159.363,1
0.550,0.788,0.285,104.736,121.887,155.212,1
0.481,0.867,0.224,89.783,125.366,149.109,1
0.492,0.985,0.224,68.787,130.066,140.747,1
0.519,1.126,0.256,80.200,135.132,130.310,1
0.481,1.212,0.242,81.360,139.282,117.676,1
0.486,1.342,0.195,95.581,143.799,102.844,1
0.483,1.409,0.163,116.333,148.499,88.013,1
0.485,1.488,0.140,113.037,152.344,71.594,1
0.515,1.594,0.058,98.816,154.907,53.650,1
0.576,1.634,0.011,87.585,156.433,33.997,1
0.667,1.691,-0.027,107.300,156.799,14.465,1
0.630,1.654,-0.119,112.915,157.959,-4.944,1
0.634,1.695,-0.139,109.131,158.875,-25.330,1
0.627,1.643,-0.193,104.614,159.180,-44.373,1
0.692,1.564,-0.244,80.872,158.691,-65.063,1
0.732,1.513,-0.287,80.994,157.654,-82.092,1
0.744,1.430,-0.357,87.952,156.311,-96.436,1
0.750,1.341,-0.430,78.918,155.090,-108.459,1
0.714,1.268,-0.494,56.885,153.442,-121.338,1
0.729,1.194,-0.635,12.573,148.682,-135.620,1
0.839,1.033,-0.842,-59.448,138.306,-149.719,1
0.852,0.949,-0.971,-113.647,122.253,-163.696,1
0.887,0.918,-1.015,-115.356,98.511,-172.913,1
0.752,0.807,-1.107,-32.776,71.716,-172.974,1
0.616,0.629,-1.208,59.082,47.607,-163.757,1
0.385,0.436,-1.292,123.230,25.391,-150.696,1
0.356,0.327,-1.319,157.776,9.033,-137.878,1
0.410,0.226,-1.289,173.767,-5.371,-129.089,1
0.359,0.170,-1.270,188.110,-15.015,-122.375,1
0.430,0.151,-1.187,182.617,-23.621,-117.371,1
0.521,0.128,-1.173,158.569,-34.851,-113.342,1
0.571,0.120,-1.136,151.428,-47.668,-111.023,1
0.617,0.121,-1.070,141.968,-60.547,-108.826,1
0.700,0.073,-1.023,126.587,-72.021,-106.812,1
0.817,0.086,-0.956,105.225,-81.421,-104.248,1
0.802,0.136,-0.780,108.093,-89.600,-103.333,1
0.736,0.145,-0.672,133.301,-92.590,-105.652,1
0.636,0.108,-0.538,135.010,-92.224,-111.084,1
0.491,0.070,-0.412,141.968,-86.670,-118.713,1
0.314,0.019,-0.253,161.987,-77.759,-128.845,1
0.050,-0.048,-0.168,205.749,-61.035,-138.367,1
0.128,-0.278,0.074,254.883,-33.508,-147.644,1
0.142,-0.491,0.227,215.698,-0.061,-147.644,1
-0.021,-0.770,0.230,83.191,35.034,-136.414,1
-0.195,-0.893,0.309,-11.658,68.542,-116.638,1
-0.463,-1.061,0.241,-27.527,101.929,-90.271,1
-0.750,-1.221,0.085,-21.790,138.550,-52.917,1
-1.093,-1.426,-0.126,-70.923,172.729,-12.268,1
-1.475,-1.382,-0.261,-67.749,211.548,38.330,1
-1.894,-1.268,-0.404,-36.865,241.943,87.463,1
-2.506,-1.182,-0.619,-62.073,272.339,145.569,1
-2.657,-1.125,-0.663,-148.865,293.884,190.857,1
-3.068,-1.131,-0.673,-169.861,322.388,244.263,1
-3.615,-1.047,-0.868,-111.694,347.961,310.974,1
-4.219,-1.087,-1.074,-9.338,360.657,393.921,1
-4.952,-1.080,-1.326,63.843,351.379,520.752,1
-5.669,-1.096,-1.606,182.251,316.833,657.837,1
-6.933,-1.205,-1.726,363.159,232.239,818.237,1
-7.997,-0.959,-1.734,554.993,68.848,993.225,1
-8.000,-0.683,-1.614,689.392,-165.527,1127.319,1
-8.000,-0.219,-1.244,774.719,-441.406,1184.265,1
-8.000,0.322,-0.893,689.880,-705.566,1142.700,1
-8.000,1.607,0.798,560.120,-902.893,1069.946,1
-8.000,2.137,0.262,856.872,-1035.278,970.032,1
-8.000,1.842,1.158,1447.266,-1159.302,632.874,1
-8.000,1.859,1.558,1621.704,-1189.575,108.643,1
-8.000,1.322,1.205,1325.745,-1041.443,-299.622,1
-8.000,0.744,1.768,914.795,-824.463,-528.748,1
-8.000,0.272,1.346,727.478,-653.076,-633.850,1
-8.000,0.071,1.083,598.389,-500.610,-687.988,1
-7.412,-0.142,0.868,455.017,-357.178,-702.270,1
-6.198,-0.353,0.808,236.999,-247.986,-676.697,1
-5.433,-0.226,1.022,157.288,-172.668,-625.610,1
-4.790,-0.437,1.087,194.031,-109.863,-573.303,1
-3.943,-0.778,0.794,169.678,-46.082,-518.494,1
-3.270,-0.872,0.634,137.878,0.732,-462.952,1
-2.802,-0.983,0.668,117.249,26.428,-409.546,1
-2.277,-0.888,0.623,127.380,44.495,-349.792,1
-1.911,-0.945,0.570,109.619,57.800,-291.809,1
-1.540,-1.023,0.563,81.848,67.627,-236.145,1
-1.185,-1.038,0.562,59.021,72.021,-184.753,1
-0.885,-0.999,0.574,59.570,73.608,-140.686,1
-0.631,-0.941,0.549,57.983,75.317,-95.581,1
-0.479,-0.848,0.593,55.176,76.599,-55.359,1
-0.417,-0.707,0.602,65.125,76.782,-24.658,1
-0.341,-0.567,0.633,82.458,75.073,2.380,1
-0.367,-0.514,0.618,79.590,74.219,24.475,1
-0.266,-0.448,0.643,63.904,74.219,42.419,1
-0.185,-0.440,0.639,45.715,74.402,57.556,1
-0.131,-0.416,0.628,31.677,73.425,69.946,1
-0.062,-0.353,0.642,39.246,70.557,80.505,1
0.102,-0.354,0.678,72.998,65.125,90.515,1
0.294,-0.313,0.713,98.145,59.082,100.952,1
0.364,-0.269,0.732,109.070,53.040,110.901,1
0.476,-0.212,0.725,81.421,51.575,120.178,1
0.514,-0.131,0.766,67.749,52.917,127.441,1
0.547,-0.035,0.786,83.313,54.749,132.996,1
0.673,-0.001,0.740,91.919,56.519,137.695,1
0.749,0.072,0.745,101.868,59.204,141.907,1
0.771,0.085,0.724,118.042,62.744,146.179,1
0.812,0.124,0.773,103.027,64.819,149.902,1
0.876,0.199,0.786,93.689,69.336,154.358,1
0.880,0.221,0.770,105.225,75.684,157.471,1
0.896,0.235,0.735,108.032,82.214,159.546,1
0.951,0.223,0.678,103.638,88.013,161.316,1
0.904,0.256,0.643,97.351,93.689,162.476,1
0.872,0.281,0.572,99.670,98.999,164.307,1
0.832,0.276,0.477,94.971,103.943,166.382,1
0.719,0.252,0.400,73.975,108.032,167.725,1
0.652,0.195,0.254,60.852,113.403,167.358,1
0.540,0.283,0.269,45.410,117.493,168.030,1
0.686,0.277,-0.021,63.110,123.779,171.692,1
0.582,0.172,0.070,96.558,128.723,177.429,1
0.587,0.106,-0.074,66.406,129.456,182.068,1
0.393,0.147,0.006,-10.986,129.028,187.683,1
0.495,0.130,-0.139,-112.305,134.521,191.284,1
0.372,0.223,-0.149,-164.368,143.921,193.665,1
0.178,0.304,-0.183,-167.847,153.381,196.777,1
-0.140,0.357,-0.234,-158.752,159.180,198.486,1
-0.295,0.395,-0.215,-109.802,164.551,199.890,1
-0.483,0.504,-0.226,-50.476,166.748,205.994,1
-0.600,0.563,-0.234,13.123,164.307,215.454,1
-0.676,0.577,-0.267,79.529,158.264,229.858,1
-0.719,0.562,-0.330,94.299,150.330,242.310,1
-0.881,0.594,-0.324,53.711,138.306,247.925,1
-1.049,0.775,-0.330,-14.343,129.700,250.854,1
-1.105,0.767,-0.301,-53.955,125.366,244.812,1
-1.011,0.738,-0.195,-38.147,124.756,238.281,1
-1.027,0.889,-0.168,11.475,121.887,233.093,1
-1.091,1.101,-0.228,17.090,114.868,232.056,1
-1.169,0.888,-0.232,-15.381,106.018,218.445,1
-1.357,1.274,-0.193,-35.706,100.037,209.778,1
-1.140,1.106,-0.191,-27.588,96.558,194.214,1
-1.192,1.394,-0.083,11.047,91.919,186.340,1
-1.106,1.354,-0.087,55.786,86.426,181.885,1
-1.057,1.312,-0.148,89.478,79.102,177.246,1
-1.141,1.270,-0.247,83.923,71.655,170.837,1
-1.181,1.302,-0.285,67.017,63.782,162.964,1
-1.106,1.354,-0.270,56.091,56.396,156.616,1
-1.089,1.343,-0.263,50.232,48.950,151.245,1
-1.025,1.331,-0.267,55.847,42.786,145.020,1
-0.686,0.466,-0.760,14.526,36.316,139.893,1
-0.893,1.010,-0.592,59.875,33.142,133.240,1
-0.880,1.101,-0.501,76.599,25.085,125.244,1
-0.980,1.219,-0.403,85.449,18.066,118.042,1
-0.781,0.342,-0.876,39.490,12.817,114.319,1
-0.977,0.979,-0.512,45.349,8.972,109.375,1
-0.953,1.195,-0.326,28.320,2.625,101.135,1
-1.021,1.407,-0.225,4.639,-2.991,97.900,1
-0.984,1.323,-0.235,26.794,-8.484,85.205,1
-0.994,0.840,-0.204,42.175,-14.954,76.843,1
-0.913,0.853,-0.255,49.011,-19.165,68.359,1
-0.865,0.813,-0.117,39.917,-23.071,62.073,1
-0.840,0.764,-0.087,30.334,-25.391,55.115,1
-0.781,0.677,-0.094,15.320,-28.320,48.889,1
-1.040,0.333,-0.215,-8.606,-28.564,46.753,1
-0.969,0.804,-0.334,1.587,-30.151,40.710,1
-0.897,0.478,-0.198,-23.376,-33.875,34.546,1
-0.995,0.594,-0.246,-25.330,-33.936,34.668,1
-1.051,0.676,-0.083,11.047,-35.706,28.137,1
-0.934,0.617,-0.095,39.185,-37.354,23.254,1
-0.972,0.533,-0.123,58.655,-39.307,17.883,1
-0.983,0.501,-0.126,61.768,-40.588,13.123,1
-0.919,0.477,-0.099,47.302,-41.687,8.118,1
-0.889,0.395,-0.373,20.752,-40.039,9.827,1
-1.084,0.422,-0.297,-1.953,-39.734,6.470,1
-1.030,0.352,-0.133,-12.146,-41.077,6.104,1
-0.976,0.302,-0.139,-16.663,-41.138,5.615,1
-0.879,0.341,-0.123,-28.625,-41.504,7.629,1
-0.984,0.260,-0.105,-49.377,-41.809,8.362,1
-1.083,0.249,-0.158,-67.200,-40.649,9.766,1
-1.092,0.286,-0.150,-62.805,-39.185,10.864,1
-0.965,0.291,-0.110,-31.250,-37.781,12.085,1
-0.847,0.291,-0.100,10.132,-36.072,14.343,1
-0.807,0.278,-0.159,26.978,-34.241,18.005,1
-1.000,0.292,-0.199,35.767,-33.203,18.677,1
-1.035,0.287,-0.196,41.870,-32.532,17.395,1
-1.002,0.287,-0.199,41.931,-31.799,15.991,1
-0.974,0.274,-0.189,34.424,-31.677,14.465,1
-0.895,0.300,-0.161,23.560,-32.166,13.855,1
-0.853,0.324,-0.181,3.357,-32.410,15.381,1
-1.142,0.238,-0.119,-18.372,-31.372,14.893,1
-1.086,0.290,-0.163,-12.024,-30.396,12.329,1
-0.911,0.280,-0.186,-13.611,-29.907,11.047,1
-0.887,0.287,-0.217,-18.494,-29.236,9.583,1
-0.886,0.302,-0.255,-25.635,-28.870,8.606,1
-0.883,0.311,-0.283,-23.926,-27.527,7.629,1
-0.908,0.314,-0.304,-10.864,-25.757,6.836,1
-0.918,0.294,-0.324,-1.831,-24.048,6.165,1
-0.899,0.267,-0.332,-15.442,-22.888,6.348,1
-0.867,0.244,-0.275,-35.278,-22.278,7.385,1
-0.816,0.269,-0.349,-28.137,-19.836,8.728,1
-0.855,0.287,-0.349,-8.240,-17.517,9.277,1
-0.890,0.280,-0.351,15.686,-14.587,9.216,1
-0.913,0.243,-0.378,22.583,-10.437,8.850,1
-0.960,0.215,-0.377,0.671,-7.812,8.118,1
-0.959,0.241,-0.374,-15.015,-6.348,7.690,1
-0.944,0.271,-0.360,-5.493,-4.700,7.507,1
-0.884,0.289,-0.354,20.630,-2.747,8.057,1
-0.872,0.275,-0.365,42.908,-0.427,7.812,1
-0.881,0.239,-0.374,39.063,1.404,6.470,1
-0.906,0.225,-0.397,11.597,3.113,4.639,1
-0.904,0.242,-0.397,-14.343,5.188,2.441,1
-0.912,0.271,-0.382,-14.832,6.104,1.038,1
