ax,ay,az,gx,gy,gz,label
-0.903,0.669,-0.400,-52.429,3.540,-15.076,1
-0.871,0.662,-0.390,-72.998,4.944,-18.799,1
-0.832,0.662,-0.360,-93.445,7.507,-24.048,1
-0.818,0.719,-0.359,-89.416,11.353,-29.541,1
-0.799,0.708,-0.398,-83.374,17.334,-36.987,1
-0.806,0.675,-0.432,-94.177,24.902,-44.922,1
-0.843,0.606,-0.441,-133.667,31.921,-52.673,1
-0.921,0.596,-0.418,-189.758,36.865,-60.303,1
-1.065,0.663,-0.389,-213.379,39.612,-65.674,1
-1.112,0.721,-0.357,-196.716,39.429,-68.848,1
-1.125,0.772,-0.349,-153.442,38.147,-69.336,1
-1.177,0.797,-0.346,-97.656,35.950,-67.444,1
-1.188,0.769,-0.375,-47.424,34.546,-65.308,1
-1.126,0.729,-0.388,-21.790,32.104,-63.660,1
-1.122,0.713,-0.423,-21.362,28.931,-64.270,1
-1.054,0.738,-0.442,-15.015,26.794,-67.627,1
-1.066,0.760,-0.447,-4.883,25.024,-73.059,1
-1.034,0.765,-0.474,1.038,24.170,-80.505,1
-1.037,0.752,-0.483,-17.578,22.339,-90.454,1
-0.986,0.760,-0.486,-47.913,18.982,-100.647,1
-0.885,0.804,-0.476,-72.937,14.465,-109.863,1
-0.852,0.863,-0.459,-70.618,9.216,-117.126,1
-0.817,0.923,-0.445,-43.945,4.211,-123.230,1
-0.756,0.954,-0.429,3.113,0.244,-128.174,1
-0.757,0.950,-0.443,48.462,-2.136,-133.362,1
-0.709,0.918,-0.457,65.613,-3.052,-140.381,1
-0.695,0.886,-0.463,53.406,-4.333,-148.926,1
-0.672,0.903,-0.451,27.100,-5.798,-157.959,1
-0.653,0.972,-0.425,27.710,-7.019,-165.344,1
-0.664,1.040,-0.403,68.848,-6.042,-171.204,1
-0.635,1.034,-0.422,105.041,-2.991,-175.842,1
-0.597,0.986,-0.445,99.609,1.465,-182.312,1
-0.609,0.981,-0.417,38.513,4.395,-192.383,1
-0.653,1.030,-0.410,7.751,5.127,-198.914,1
-0.665,1.104,-0.356,3.967,4.883,-203.491,1
-0.686,1.167,-0.319,25.024,4.089,-205.627,1
-0.704,1.216,-0.310,55.725,5.676,-205.505,1
-0.715,1.205,-0.292,78.735,9.094,-205.566,1
-0.737,1.177,-0.271,81.299,12.390,-206.604,1
-0.786,1.180,-0.231,83.191,15.442,-207.520,1
-0.777,1.171,-0.228,88.806,18.188,-207.947,1
-0.740,1.163,-0.239,85.815,21.423,-206.360,1
-0.652,1.116,-0.280,77.759,24.902,-204.407,1
-0.458,1.081,-0.086,77.515,29.907,-202.209,1
-0.400,1.088,-0.120,83.618,35.156,-199.585,1
-0.328,1.087,-0.264,86.609,39.734,-195.984,1
-0.228,1.045,-0.250,73.547,42.725,-192.322,1
-0.134,1.026,-0.199,58.411,46.265,-187.683,1
-0.080,1.008,-0.115,67.627,49.744,-185.120,1
0.012,0.953,-0.117,93.079,54.687,-182.434,1
0.112,0.852,-0.164,86.975,58.777,-180.969,1
0.232,0.778,-0.156,48.828,60.852,-180.725,1
0.276,0.749,-0.122,5.554,59.509,-181.519,1
0.303,0.732,-0.118,-26.062,55.054,-183.228,1
0.301,0.739,-0.135,-41.748,49.683,-184.387,1
0.243,0.735,-0.182,-25.146,44.922,-184.204,1
0.229,0.672,-0.184,7.629,41.626,-182.678,1
0.252,0.562,-0.210,29.663,39.856,-180.115,1
0.252,0.442,-0.219,26.062,37.842,-177.612,1
0.290,0.358,-0.227,10.620,35.889,-174.011,1
0.344,0.278,-0.252,-1.953,34.607,-170.593,1
0.403,0.240,-0.272,-4.944,34.363,-167.541,1
0.399,0.201,-0.264,-9.155,33.752,-164.001,1
0.402,0.162,-0.283,-7.385,32.410,-159.790,1
0.416,0.164,-0.303,-12.085,31.372,-158.203,1
0.440,0.213,-0.275,-5.737,29.724,-155.762,1
0.520,0.261,-0.281,19.287,28.503,-150.696,1
0.617,0.310,-0.311,48.096,27.405,-145.752,1
0.649,0.356,-0.373,77.515,25.635,-140.564,1
0.688,0.296,-0.480,86.426,23.254,-139.404,1
0.691,0.347,-0.464,78.247,18.005,-140.686,1
0.686,0.388,-0.484,95.276,13.367,-142.151,1
0.707,0.451,-0.656,121.216,10.864,-144.287,1
0.646,0.481,-0.756,113.586,5.920,-152.100,1
0.619,0.563,-0.781,98.999,-0.488,-164.124,1
0.602,0.549,-0.754,84.473,-7.690,-177.979,1
0.605,0.425,-0.651,63.232,-13.367,-191.162,1
0.514,0.233,-0.539,44.434,-14.771,-199.768,1
0.319,0.028,-0.411,31.189,-13.245,-207.397,1
0.218,-0.162,-0.270,36.194,-10.132,-212.341,1
0.080,-0.415,-0.155,22.888,-3.845,-216.919,1
-0.118,-0.631,-0.182,-6.897,4.700,-219.238,1
-0.252,-0.704,-0.118,-55.725,15.564,-216.003,1
-0.346,-0.714,0.197,6.226,28.381,-204.834,1
-0.355,-0.907,0.036,38.879,43.396,-188.049,1
-0.412,-1.166,-0.056,15.076,60.486,-165.527,1
-0.613,-1.433,-0.101,-17.517,80.566,-135.742,1
-0.636,-1.547,-0.091,-32.166,103.271,-94.727,1
-0.742,-1.719,-0.035,-35.583,122.986,-42.542,1
-1.002,-1.873,-0.070,-51.636,141.418,17.517,1
-1.349,-1.892,-0.062,-30.273,159.485,85.205,1
-1.674,-1.990,-0.119,0.732,175.049,160.767,1
-2.067,-1.904,-0.130,38.635,185.791,234.985,1
-2.492,-1.784,-0.236,95.703,192.261,320.740,1
-3.008,-1.702,-0.496,100.952,191.467,410.522,1
-3.658,-1.528,-0.729,78.613,184.998,490.906,1
-4.185,-1.327,-0.849,94.177,170.776,582.581,1
-4.795,-1.102,-1.214,155.701,145.630,676.086,1
-5.730,-1.258,-1.524,253.845,88.623,782.165,1
-7.282,-1.178,-1.410,373.901,-6.653,886.780,1
-8.000,-0.982,-1.240,492.432,-144.714,981.750,1
-8.000,-0.853,-1.328,584.839,-312.378,1044.067,1
-8.000,-0.487,-1.190,575.439,-469.727,1066.040,1
-8.000,0.198,-0.434,510.925,-622.375,1060.242,1
-8.000,0.861,0.378,507.263,-760.925,1016.602,1
-8.000,1.260,1.177,611.633,-902.405,930.481,1
-8.000,1.671,1.343,770.325,-1008.362,818.298,1
-8.000,1.832,1.329,1254.517,-1089.661,537.720,1
-8.000,2.691,1.957,1694.641,-1121.704,89.050,1
-8.000,1.624,1.365,1595.947,-983.704,-328.857,1
-8.000,0.845,1.814,1264.465,-722.168,-570.984,1
-8.000,-0.293,1.288,1039.734,-468.872,-693.970,1
-7.711,-0.676,0.625,712.219,-291.382,-740.478,1
-7.513,-0.499,0.600,413.574,-165.405,-732.544,1
-7.376,-0.390,0.713,296.936,-79.651,-692.932,1
-6.348,-0.696,0.763,219.421,-15.991,-642.883,1
-5.137,-1.015,0.886,138.062,36.804,-580.750,1
-4.060,-1.051,1.113,160.767,83.374,-515.320,1
-3.453,-1.325,0.975,228.210,129.456,-449.219,1
-2.900,-1.425,0.729,247.498,169.983,-390.808,1
-2.628,-1.332,0.575,172.485,199.890,-330.200,1
-2.337,-0.994,0.583,141.785,219.543,-272.705,1
-1.977,-0.757,0.579,138.184,227.295,-219.788,1
-1.602,-0.802,0.549,109.985,226.440,-177.307,1
-1.284,-0.715,0.365,98.816,220.581,-137.329,1
-0.885,-0.537,0.298,110.291,212.280,-102.783,1
-0.746,-0.368,0.157,142.273,201.782,-67.932,1
-0.673,-0.258,0.100,165.894,192.078,-37.415,1
-0.552,-0.165,0.088,165.405,183.044,-11.780,1
-0.393,-0.074,0.164,142.029,173.584,10.071,1
-0.211,0.014,0.175,103.333,163.940,27.710,1
-0.088,0.093,0.152,76.477,156.250,39.246,1
-0.066,0.153,0.102,64.758,148.499,46.875,1
-0.059,0.152,0.069,71.106,142.639,48.218,1
0.011,0.115,0.039,82.886,136.780,46.143,1
0.203,0.144,-0.016,79.529,130.554,45.349,1
0.452,0.184,-0.050,72.144,124.939,45.532,1
0.604,0.219,-0.085,80.872,120.544,44.495,1
0.616,0.259,-0.123,103.699,116.882,42.236,1
0.648,0.304,-0.178,137.146,114.990,40.466,1
0.733,0.334,-0.189,150.818,111.694,39.490,1
0.843,0.340,-0.202,129.089,105.469,37.598,1
0.912,0.386,-0.194,104.370,98.572,35.767,1
0.950,0.410,-0.269,104.248,92.468,34.058,1
0.963,0.423,-0.250,101.929,87.341,34.790,1
0.985,0.457,-0.306,105.469,85.815,36.194,1
0.956,0.499,-0.298,119.202,83.923,36.743,1
0.885,0.498,-0.354,122.864,83.130,35.400,1
0.877,0.498,-0.395,101.501,82.703,33.936,1
0.896,0.552,-0.380,76.111,82.458,32.776,1
1.006,0.637,-0.399,103.210,84.106,32.104,1
1.012,0.653,-0.386,150.635,86.609,27.527,1
0.942,0.746,-0.439,161.804,84.778,22.278,1
0.940,0.726,-0.471,135.559,80.505,15.686,1
0.938,0.801,-0.506,128.601,77.026,9.216,1
0.916,0.854,-0.535,150.208,73.547,2.808,1
0.902,0.930,-0.503,189.026,71.350,-2.441,1
0.890,1.014,-0.504,221.252,70.618,-6.226,1
0.820,1.068,-0.510,245.728,70.068,-10.925,1
0.735,1.108,-0.593,262.451,71.350,-17.639,1
0.684,1.083,-0.468,273.437,72.388,-23.437,1
0.688,0.983,-0.353,247.192,73.181,-28.870,1
0.775,0.925,-0.287,192.871,74.890,-34.424,1
0.814,0.926,-0.197,145.325,75.928,-38.208,1
0.827,0.900,-0.186,120.422,76.538,-41.504,1
0.816,0.860,-0.122,105.713,76.172,-44.800,1
0.828,0.874,-0.052,107.422,75.867,-46.753,1
0.920,0.939,-0.141,126.282,78.674,-47.852,1
0.851,0.940,-0.255,119.751,81.116,-52.368,1
0.774,0.854,-0.218,97.656,84.167,-60.486,1
0.767,0.852,-0.221,90.759,86.975,-67.932,1
0.820,0.884,-0.267,91.919,88.318,-73.059,1
0.856,0.864,-0.271,85.144,88.196,-77.637,1
0.795,0.900,-0.281,99.915,86.426,-82.764,1
0.778,0.870,-0.310,113.037,83.618,-86.365,1
0.800,0.815,-0.367,111.938,79.956,-89.600,1
0.881,0.757,-0.445,115.784,77.759,-91.492,1
0.938,0.716,-0.501,107.605,74.341,-93.689,1
0.946,0.676,-0.577,81.360,69.092,-97.046,1
0.990,0.653,-0.648,55.969,62.683,-101.624,1
0.960,0.612,-0.709,39.490,54.504,-107.300,1
0.964,0.616,-0.744,43.823,43.823,-112.549,1
0.968,0.604,-0.739,75.195,34.119,-117.004,1
0.923,0.529,-0.735,83.679,26.306,-120.422,1
0.885,0.468,-0.726,57.495,17.212,-124.268,1
0.814,0.413,-0.615,40.955,8.606,-127.136,1
0.820,0.410,-0.515,55.359,4.089,-127.991,1
0.783,0.390,-0.446,69.580,2.747,-128.784,1
0.722,0.371,-0.398,79.529,3.418,-131.042,1
0.688,0.352,-0.242,101.929,4.883,-134.827,1
0.580,0.277,-0.158,109.009,7.568,-137.634,1
0.426,0.161,-0.129,108.093,13.000,-141.846,1
0.433,-0.044,-0.175,100.037,25.085,-144.836,1
0.339,-0.093,-0.126,79.407,38.940,-146.362,1
0.256,-0.123,-0.111,88.196,57.251,-149.170,1
0.237,-0.180,-0.113,79.529,74.402,-150.452,1
0.222,-0.208,-0.159,57.800,90.942,-149.963,1
0.177,-0.279,-0.185,35.522,107.544,-148.926,1
0.061,-0.273,-0.168,37.537,126.160,-144.958,1
-0.053,-0.272,-0.156,75.928,149.780,-133.972,1
-0.237,-0.348,-0.196,105.041,173.279,-117.615,1
-0.466,-0.432,-0.334,111.145,195.679,-97.961,1
-0.682,-0.521,-0.424,78.552,218.201,-75.012,1
-0.960,-0.433,-0.494,53.345,238.220,-51.880,1
-1.253,-0.411,-0.508,66.101,255.737,-25.085,1
-1.609,-0.444,-0.544,67.139,268.494,5.310,1
-1.834,-0.521,-0.747,65.002,278.076,41.077,1
-2.201,-0.500,-0.956,79.895,284.973,79.651,1
-2.389,-0.653,-1.222,84.290,289.978,130.371,1
-2.428,-0.823,-1.496,14.404,287.720,189.636,1
-2.451,-1.003,-1.710,-61.951,278.625,256.775,1
-2.745,-1.303,-2.146,-69.702,264.465,340.881,1
-3.213,-1.538,-2.480,-42.725,244.446,434.631,1
-3.920,-1.705,-2.799,33.569,209.229,556.824,1
-5.144,-1.800,-2.881,160.950,148.865,682.129,1
-7.037,-1.620,-3.160,292.847,37.842,816.345,1
-7.999,-1.120,-2.789,456.299,-116.089,924.377,1
-8.000,-0.718,-2.329,596.741,-320.618,994.873,1
-8.000,-0.413,-1.742,640.442,-542.725,1008.179,1
-8.000,-0.183,-1.127,593.201,-738.281,967.773,1
-8.000,-0.026,-0.463,448.669,-883.667,899.292,1
-8.000,0.445,0.208,308.044,-980.835,841.553,1
-8.000,0.950,1.337,440.857,-1060.669,777.771,1
-8.000,1.297,1.549,623.413,-1153.320,672.974,1
-8.000,1.273,1.140,935.791,-1202.881,475.647,1
-8.000,1.419,1.636,1183.350,-1224.060,107.910,1
-8.000,1.436,2.252,1124.451,-1165.894,-191.772,1
-8.000,1.144,1.971,1198.547,-1006.592,-468.811,1
-8.000,0.236,1.468,999.206,-767.822,-688.110,1
-8.000,-0.382,1.054,680.481,-587.585,-774.353,1
-8.000,-0.748,1.211,397.278,-441.101,-798.462,1
-8.000,-0.989,1.540,250.366,-344.543,-776.489,1
-7.609,-1.362,1.665,230.286,-251.038,-729.187,1
-6.694,-1.620,1.901,352.234,-145.447,-681.457,1
-5.883,-1.968,1.939,392.517,-48.767,-634.705,1
-4.619,-2.592,1.822,441.833,47.791,-570.435,1
-3.889,-2.148,1.316,429.382,126.404,-492.371,1
-3.736,-1.856,1.081,370.789,186.584,-403.931,1
-3.352,-1.244,0.977,298.035,224.060,-315.491,1
-2.697,-1.178,0.830,239.502,240.601,-235.352,1
-2.271,-1.058,0.881,200.500,241.394,-172.241,1
-1.757,-1.013,0.658,204.834,236.206,-109.924,1
-1.545,-0.991,0.520,210.144,228.821,-64.697,1
-1.390,-0.831,0.437,198.547,217.346,-18.616,1
-1.151,-0.646,0.377,220.154,206.360,19.897,1
-0.877,-0.500,0.280,242.004,192.505,55.664,1
-0.576,-0.421,0.209,257.202,175.049,86.426,1
-0.428,-0.368,0.177,251.343,155.212,111.755,1
-0.251,-0.382,0.178,245.422,134.705,130.920,1
-0.096,-0.417,0.194,229.309,116.028,145.203,1
0.026,-0.410,0.195,214.478,99.854,155.945,1
0.156,-0.356,0.202,211.792,86.365,166.077,1
0.273,-0.408,0.231,202.759,71.411,174.133,1
0.252,-0.418,0.197,182.861,58.838,178.040,1
0.227,-0.448,0.232,178.955,47.607,177.551,1
0.219,-0.405,0.271,196.289,36.438,175.659,1
0.402,-0.404,0.294,237.488,27.466,174.316,1
0.538,-0.466,0.257,229.370,21.301,174.805,1
0.589,-0.425,0.310,190.430,17.944,175.476,1
0.573,-0.281,0.392,173.035,16.968,176.086,1
0.539,-0.204,0.516,189.209,14.282,174.988,1
0.520,-0.213,0.505,201.904,13.794,171.204,1
0.628,-0.157,0.552,198.059,14.893,165.283,1
0.862,-0.012,0.548,204.224,16.357,163.452,1
1.001,0.057,0.595,189.697,19.409,161.743,1
0.824,0.109,0.720,140.381,25.818,155.884,1
0.724,0.256,0.792,121.765,35.278,147.522,1
0.736,0.408,0.815,152.405,46.265,140.381,1
0.814,0.473,0.790,180.725,56.580,134.155,1
0.862,0.554,0.758,167.847,66.406,128.967,1
0.755,0.611,0.690,139.587,75.439,123.596,1
0.679,0.688,0.644,116.333,83.740,114.075,1
0.682,0.744,0.560,111.816,93.872,105.286,1
0.764,0.837,0.527,141.418,102.783,98.267,1
0.844,0.884,0.429,150.818,111.145,93.079,1
0.772,0.944,0.333,108.643,116.333,84.045,1
0.779,1.115,0.277,84.961,120.361,72.144,1
0.746,1.200,0.229,114.624,123.230,59.937,1
0.596,1.181,0.180,134.094,126.648,48.401,1
0.675,1.204,0.158,129.089,131.348,36.316,1
0.637,1.216,0.043,109.863,134.644,23.132,1
0.687,1.250,0.030,102.905,134.766,7.690,1
0.685,1.220,-0.067,117.432,132.629,-5.432,1
0.733,1.154,-0.105,157.593,130.615,-17.334,1
0.805,1.044,-0.132,190.308,129.883,-24.719,1
0.841,0.954,-0.203,173.706,129.944,-30.579,1
0.710,0.967,-0.324,146.484,127.075,-36.072,1
0.865,1.006,-0.390,135.437,121.521,-40.405,1
0.815,0.987,-0.469,145.325,115.356,-43.152,1
0.782,0.962,-0.542,179.382,109.619,-43.335,1
0.790,0.896,-0.654,210.510,105.957,-41.931,1
0.787,0.870,-0.714,213.135,102.905,-40.955,1
0.804,0.891,-0.696,208.862,97.595,-41.077,1
0.710,0.938,-0.734,206.726,91.492,-41.748,1
0.727,1.005,-0.771,193.420,82.458,-43.030,1
0.761,1.073,-0.788,197.937,74.768,-44.922,1
0.721,1.052,-0.783,207.642,67.017,-48.706,1
0.695,1.057,-0.838,174.561,60.547,-56.213,1
0.635,1.070,-0.923,123.352,53.406,-66.711,1
0.565,1.092,-0.943,74.524,44.006,-78.857,1
0.533,1.087,-0.990,55.359,33.875,-90.515,1
0.555,1.020,-1.033,61.523,22.705,-103.516,1
0.578,0.921,-1.081,88.989,12.390,-116.638,1
0.587,0.771,-1.091,92.773,4.333,-126.221,1
0.760,0.621,-1.054,90.454,-2.075,-132.751,1
0.949,0.543,-0.994,90.576,-8.179,-136.475,1
1.078,0.453,-0.952,92.529,-13.672,-137.207,1
1.159,0.378,-0.920,86.670,-18.616,-135.071,1
1.133,0.307,-0.862,79.346,-23.987,-132.629,1
1.063,0.270,-0.781,83.496,-28.564,-130.493,1
0.943,0.218,-0.684,74.890,-33.020,-130.249,1
0.835,0.201,-0.520,73.914,-37.781,-130.066,1
0.692,0.169,-0.386,85.266,-38.818,-130.737,1
0.565,0.065,-0.253,89.294,-35.889,-134.277,1
0.441,-0.026,-0.086,79.773,-29.846,-139.038,1
0.377,-0.075,0.086,96.375,-20.325,-142.761,1
0.298,-0.087,0.189,153.748,-6.287,-141.907,1
0.276,-0.238,0.234,221.558,17.029,-137.329,1
0.246,-0.407,0.285,217.102,43.579,-127.014,1
0.109,-0.564,0.324,152.344,69.336,-112.000,1
-0.121,-0.642,0.336,88.806,96.741,-93.994,1
-0.396,-0.681,0.287,60.547,123.169,-76.111,1
-0.579,-0.691,0.240,52.063,148.132,-57.556,1
-0.717,-0.714,0.106,45.349,178.101,-30.762,1
-0.811,-0.666,0.003,50.598,205.749,-0.488,1
-1.025,-0.625,-0.151,76.660,228.882,31.067,1
-1.354,-0.613,-0.422,95.886,254.578,70.435,1
-1.706,-0.560,-0.609,90.454,276.855,114.563,1
-1.773,-0.468,-0.712,39.063,295.654,169.495,1
-2.262,-0.544,-0.975,-22.461,311.707,216.980,1
-2.598,-0.509,-1.181,-91.003,330.811,271.057,1
-3.037,-0.459,-1.488,-109.192,351.074,328.796,1
-3.365,-0.657,-1.750,-112.915,362.671,399.597,1
-3.998,-0.799,-2.136,-63.965,360.657,477.112,1
-4.647,-0.708,-2.073,126.343,336.853,576.782,1
-5.253,-0.823,-2.284,367.981,253.052,708.435,1
-6.216,-0.780,-2.210,531.189,111.267,823.120,1
-7.538,-0.758,-1.955,642.212,-77.759,905.273,1
-8.000,-0.644,-1.567,759.399,-321.411,929.260,1
-8.000,-0.486,-1.278,775.940,-528.748,886.536,1
-8.000,-0.273,-0.933,647.339,-711.853,798.035,1
-8.000,-0.040,-0.648,416.260,-814.209,724.609,1
-8.000,0.596,0.068,244.446,-861.511,682.556,1
-8.000,1.065,0.898,319.092,-889.404,661.987,1
-8.000,1.376,1.205,588.074,-928.406,620.178,1
-8.000,1.518,1.222,847.290,-986.877,506.592,1
-8.000,1.326,1.191,985.596,-1024.597,324.524,1
-8.000,1.405,1.641,950.439,-1008.057,89.050,1
-8.000,1.576,1.904,959.228,-955.688,-119.019,1
-8.000,1.442,1.708,1016.540,-841.125,-329.651,1
-8.000,0.282,1.366,730.102,-675.659,-496.765,1
-7.348,-0.075,1.962,278.687,-563.293,-540.405,1
-6.852,0.143,2.293,334.351,-467.651,-531.616,1
-5.721,-0.637,2.149,445.129,-348.755,-530.701,1
-4.454,-1.423,2.057,309.814,-233.826,-523.315,1
-3.907,-1.444,2.184,238.159,-159.485,-500.122,1
-3.369,-1.712,2.014,163.330,-93.384,-468.262,1
-2.773,-1.765,1.988,128.174,-40.588,-430.725,1
-2.197,-1.639,1.992,159.607,12.268,-381.958,1
-2.054,-1.371,1.800,179.626,57.678,-329.956,1
-1.549,-1.222,1.411,144.165,91.187,-273.499,1
-1.560,-1.178,1.376,133.240,111.572,-224.060,1
-1.381,-1.232,1.329,110.962,127.563,-182.617,1
-1.061,-1.161,1.124,90.881,145.813,-134.888,1
-0.798,-1.000,1.120,94.666,155.151,-100.769,1
-0.577,-0.834,1.035,109.192,162.659,-67.322,1
-0.554,-0.691,0.882,138.184,168.152,-37.354,1
-0.478,-0.584,0.760,136.963,170.471,-11.230,1
-0.380,-0.476,0.693,127.930,170.776,13.306,1
-0.270,-0.391,0.644,119.446,168.640,33.569,1
-0.153,-0.354,0.582,111.938,165.649,48.035,1
0.026,-0.287,0.590,109.375,161.377,61.462,1
0.102,-0.196,0.541,127.075,155.273,75.684,1
0.231,-0.190,0.469,163.940,150.452,86.670,1
0.387,-0.192,0.400,180.115,145.203,98.022,1
0.515,-0.164,0.353,161.682,139.038,107.788,1
0.627,-0.044,0.375,140.259,133.606,115.417,1
0.667,0.021,0.343,131.714,127.441,120.789,1
0.694,0.024,0.289,130.066,123.596,121.826,1
0.719,0.057,0.257,135.925,120.239,120.911,1
0.648,0.117,0.286,172.180,117.615,118.286,1
0.536,0.202,0.317,218.628,115.540,118.713,1
0.562,0.249,0.306,239.136,111.694,118.835,1
0.583,0.197,0.226,207.703,109.558,112.976,1
0.602,0.242,0.262,141.663,110.474,100.098,1
0.823,0.439,0.314,117.493,109.985,88.196,1
1.145,0.622,0.310,172.546,110.962,83.008,1
1.360,0.583,0.198,195.374,112.305,82.031,1
1.431,0.635,0.193,152.283,113.953,81.421,1
1.391,0.699,0.219,133.911,116.394,78.674,1
1.323,0.740,0.158,136.780,118.408,72.021,1
1.259,0.756,0.126,128.113,117.859,65.918,1
1.121,0.809,0.027,115.723,117.371,61.157,1
1.067,0.879,0.012,124.756,117.187,57.251,1
0.985,0.884,-0.035,134.827,115.417,52.368,1
0.862,0.881,-0.095,131.653,114.502,46.875,1
0.814,0.957,-0.160,128.662,113.831,42.053,1
0.767,0.974,-0.203,133.789,110.413,35.583,1
0.673,1.010,-0.281,136.292,106.995,29.419,1
0.614,1.014,-0.294,145.142,103.516,22.888,1
0.524,1.011,-0.261,170.166,101.013,15.625,1
0.489,1.036,-0.237,187.500,98.511,8.667,1
0.383,0.956,-0.230,195.618,97.290,1.282,1
0.330,0.885,-0.258,198.730,96.558,-6.104,1
0.408,0.833,-0.309,200.439,95.825,-11.230,1
0.474,0.760,-0.374,183.533,96.069,-15.503,1
0.535,0.715,-0.419,157.349,96.313,-19.104,1
0.611,0.675,-0.425,131.958,97.046,-21.851,1
0.659,0.679,-0.458,118.958,98.022,-23.254,1
0.759,0.739,-0.446,133.667,97.046,-23.315,1
0.828,0.868,-0.479,171.875,95.459,-20.996,1
0.903,0.860,-0.514,178.223,91.919,-18.921,1
0.943,0.930,-0.566,147.522,86.365,-18.616,1
0.901,1.021,-0.731,136.902,79.590,-19.592,1
0.841,1.114,-0.748,152.893,69.885,-21.606,1
0.845,1.192,-0.740,187.500,60.303,-23.071,1
0.885,1.240,-0.747,226.440,51.758,-26.550,1
0.805,1.264,-0.823,241.028,44.678,-31.006,1
0.878,1.196,-0.865,183.777,36.377,-39.551,1
0.888,1.224,-0.816,79.956,24.658,-47.974,1
0.961,1.260,-0.783,24.719,12.573,-54.077,1
0.911,1.188,-0.726,70.862,3.540,-60.852,1
0.848,1.131,-0.733,153.137,-2.319,-67.627,1
0.774,1.055,-0.685,170.227,-7.385,-76.355,1
0.734,0.929,-0.707,112.061,-13.489,-87.402,1
0.735,0.887,-0.618,67.688,-20.386,-97.717,1
0.781,0.851,-0.595,65.247,-27.100,-106.812,1
0.832,0.794,-0.472,94.788,-32.654,-117.126,1
0.857,0.648,-0.384,107.483,-34.546,-125.488,1
0.896,0.555,-0.323,121.399,-33.630,-131.836,1
0.919,0.394,-0.257,127.930,-27.100,-138.794,1
0.874,0.241,-0.218,118.469,-18.372,-145.874,1
0.774,0.083,-0.030,107.361,-6.592,-153.625,1
0.729,-0.032,0.097,127.014,7.874,-160.461,1
0.541,-0.228,0.217,140.686,25.085,-163.513,1
0.501,-0.366,0.355,124.390,42.114,-160.156,1
0.576,-0.519,0.362,120.972,62.256,-150.940,1
0.199,-0.629,0.380,99.731,81.299,-137.878,1
-0.028,-0.645,0.373,99.731,97.961,-120.422,1
-0.177,-0.705,0.291,108.398,109.924,-104.126,1
-0.391,-0.788,0.132,94.238,122.681,-81.482,1
-0.538,-0.906,0.037,66.406,133.728,-59.692,1
-0.707,-0.981,-0.091,16.479,146.118,-34.058,1
-0.875,-0.960,-0.176,-12.268,159.424,-6.287,1
-1.056,-0.961,-0.248,-3.540,172.546,25.757,1
-1.318,-1.056,-0.346,-14.832,184.326,57.556,1
-1.565,-1.110,-0.432,-42.725,197.266,93.506,1
-1.886,-1.181,-0.514,-56.152,211.487,131.470,1
-2.245,-1.195,-0.542,-59.082,224.854,170.837,1
-2.649,-1.202,-0.650,-3.357,235.962,224.487,1
-3.156,-1.422,-0.869,20.447,239.197,286.316,1
-3.399,-1.581,-1.026,33.936,237.427,361.572,1
-4.009,-1.550,-1.260,93.567,224.121,461.731,1
-4.667,-1.608,-1.257,214.783,189.575,571.167,1
-5.605,-1.539,-1.296,344.543,120.544,691.223,1
-7.103,-1.423,-1.385,453.796,16.541,808.411,1
-7.998,-1.139,-1.314,506.897,-115.723,907.715,1
-8.000,-0.792,-1.221,528.259,-262.756,975.769,1
-8.000,-0.390,-1.146,506.348,-395.996,1003.296,1
-8.000,0.355,-0.477,412.720,-524.902,1007.385,1
-8.000,1.345,0.532,569.824,-658.691,990.112,1
-8.000,2.007,0.680,904.785,-828.369,907.654,1
-8.000,1.823,1.279,1394.409,-988.098,674.622,1
-8.000,1.464,1.015,1415.954,-1084.412,306.091,1
-8.000,1.421,1.538,1241.211,-1043.579,-15.503,1
-8.000,1.334,1.173,997.803,-926.514,-262.451,1
-8.000,0.806,1.079,942.810,-762.512,-435.059,1
-8.000,0.000,0.738,623.169,-597.656,-548.828,1
-8.000,0.041,1.035,342.895,-473.022,-583.984,1
-7.319,-0.108,1.512,307.129,-370.239,-592.163,1
-6.215,-0.436,1.420,246.277,-276.978,-588.867,1
-5.575,-0.521,1.586,191.101,-199.646,-573.425,1
-4.872,-0.604,1.634,210.510,-126.282,-546.814,1
-4.303,-0.912,1.485,220.947,-47.974,-512.573,1
-3.645,-1.038,1.304,206.848,14.282,-474.060,1
-2.861,-0.907,1.171,233.520,67.078,-429.199,1
-2.416,-0.936,0.990,230.896,113.159,-375.488,1
-2.169,-0.872,0.817,184.448,144.226,-322.388,1
-1.943,-0.820,0.697,144.409,166.016,-271.240,1
-1.554,-0.758,0.585,134.460,179.687,-228.455,1
-1.140,-0.658,0.440,145.081,190.491,-185.852,1
-0.837,-0.574,0.327,145.020,196.899,-146.973,1
-0.687,-0.453,0.219,137.024,199.402,-115.906,1
-0.560,-0.336,0.132,137.085,199.097,-89.233,1
-0.439,-0.251,0.068,143.921,197.021,-66.223,1
-0.323,-0.177,0.011,148.865,193.298,-43.884,1
-0.196,-0.120,-0.023,152.344,188.599,-27.527,1
-0.114,-0.078,-0.025,163.208,181.946,-11.780,1
-0.039,-0.052,-0.090,185.242,173.218,3.967,1
0.140,-0.043,-0.166,202.332,164.490,16.479,1
0.336,-0.008,-0.238,208.130,155.457,27.710,1
0.449,0.006,-0.302,195.740,147.766,36.438,1
0.449,0.038,-0.340,175.659,140.015,41.748,1
0.575,0.162,-0.397,174.194,133.423,47.302,1
0.745,0.262,-0.373,199.524,124.390,50.110,1
0.840,0.373,-0.468,224.243,114.258,54.077,1
0.870,0.459,-0.566,225.830,106.323,56.152,1
0.859,0.548,-0.686,210.022,99.731,53.467,1
0.838,0.708,-0.729,190.491,92.651,47.729,1
0.949,0.877,-0.801,192.505,84.717,38.635,1
0.978,0.972,-0.850,195.740,78.247,29.358,1
0.964,1.015,-0.821,177.917,74.585,18.860,1
1.076,1.148,-0.729,175.720,70.740,6.531,1
1.069,1.243,-0.686,206.726,66.650,-5.554,1
1.078,1.224,-0.688,234.863,64.209,-16.724,1
1.068,1.137,-0.692,217.224,63.293,-27.893,1
0.969,1.064,-0.647,164.856,61.462,-40.466,1
0.895,1.067,-0.576,154.663,59.692,-51.208,1
0.853,1.034,-0.516,201.843,58.716,-57.373,1
0.789,0.892,-0.513,235.168,59.875,-61.890,1
0.765,0.764,-0.498,215.088,61.218,-66.833,1
0.811,0.715,-0.360,197.449,62.561,-69.702,1
0.817,0.702,-0.260,225.037,63.416,-69.031,1
0.722,0.588,-0.176,272.888,65.491,-64.819,1
0.747,0.445,-0.222,292.175,69.519,-58.899,1
0.956,0.272,-0.405,253.601,75.256,-54.443,1
1.025,0.156,-0.506,171.509,81.665,-50.964,1
0.716,0.189,-0.364,115.295,84.473,-46.997,1
0.573,0.153,-0.263,112.061,88.928,-42.480,1
0.359,0.162,-0.267,86.609,93.567,-36.804,1
0.292,0.186,-0.196,37.292,99.976,-31.311,1
0.526,0.310,-0.242,-17.944,106.018,-21.606,1
0.904,0.423,-0.195,-65.247,110.718,-10.681,1
1.739,0.619,-0.127,-67.932,114.746,2.869,1
2.443,0.379,-0.040,24.536,107.727,-5.432,1
0.417,0.924,-0.880,155.090,102.478,-7.751,1
0.282,1.062,-1.083,192.505,91.980,-16.663,1
0.696,1.162,-1.012,147.888,80.505,-31.616,1
0.729,1.351,-0.811,111.450,64.514,-46.387,1
0.897,1.507,-0.678,187.378,49.988,-57.312,1
0.777,1.524,-0.725,227.844,36.499,-69.702,1
0.814,1.466,-0.665,203.857,24.963,-83.252,1
0.707,1.439,-0.594,183.411,17.517,-95.642,1
0.669,1.316,-0.553,185.669,14.343,-107.178,1
0.754,1.277,-0.460,180.725,14.648,-116.516,1
0.672,0.970,-0.397,163.269,17.151,-126.892,1
0.595,0.940,-0.332,127.991,19.043,-136.230,1
0.682,0.870,-0.346,101.807,20.020,-145.447,1
0.633,0.849,-0.331,89.172,21.790,-155.762,1
0.573,0.870,-0.332,75.012,21.545,-166.870,1
0.596,0.877,-0.371,109.436,23.315,-178.101,1
0.516,0.925,-0.341,170.166,25.879,-191.040,1
0.427,0.634,-0.226,185.730,30.457,-202.820,1
0.422,0.532,-0.406,119.873,36.987,-216.797,1
0.350,0.406,-0.227,71.594,43.091,-226.135,1
0.228,0.226,-0.151,82.520,54.077,-226.929,1
0.075,-0.062,-0.222,47.974,67.139,-223.938,1
-0.109,-0.185,-0.294,-8.057,80.933,-220.093,1
-0.386,-0.302,-0.284,-17.456,97.900,-211.609,1
-0.600,-0.394,-0.361,58.594,119.507,-195.190,1
-0.451,-0.697,-0.260,111.938,146.423,-174.744,1
-0.633,-0.855,-0.434,48.706,167.664,-146.118,1
-0.883,-0.951,-0.584,-16.663,185.669,-116.028,1
-0.942,-0.982,-0.610,-32.532,198.975,-83.069,1
-1.004,-1.159,-0.690,-13.794,211.914,-42.969,1
-0.968,-1.222,-0.769,8.301,222.961,8.423,1
-1.348,-1.416,-0.917,19.592,229.065,63.782,1
-1.640,-1.293,-1.001,53.894,228.210,130.737,1
-2.081,-1.119,-0.997,143.982,218.872,200.562,1
-2.494,-1.035,-1.136,212.097,195.862,287.720,1
-2.936,-1.015,-1.181,171.143,162.781,375.854,1
-3.554,-0.728,-1.166,169.983,125.061,476.135,1
-4.197,-0.644,-1.268,220.398,76.294,577.820,1
-5.322,-0.307,-1.077,310.059,1.831,696.350,1
-6.671,-0.162,-1.035,456.726,-116.089,810.120,1
-8.000,-0.021,-0.882,481.750,-272.827,898.560,1
-8.000,-0.094,-0.730,505.737,-446.655,950.134,1
-8.000,-0.092,-0.626,479.248,-609.863,968.750,1
-8.000,0.030,-0.357,442.871,-734.253,960.815,1
-8.000,0.547,0.216,430.298,-848.083,936.096,1
-8.000,1.250,1.105,533.325,-970.886,886.169,1
-8.000,1.522,1.863,625.000,-1072.632,789.673,1
-8.000,1.252,1.273,891.846,-1127.136,593.262,1
-8.000,2.987,2.084,1582.641,-1153.503,224.243,1
-8.000,2.178,1.202,1774.109,-1026.001,-310.181,1
-8.000,0.724,0.656,1294.678,-754.394,-625.305,1
-8.000,-0.184,0.448,757.202,-505.493,-748.901,1
-8.000,-0.129,0.591,479.797,-344.177,-770.569,1
-8.000,-0.482,0.884,344.849,-228.394,-759.216,1
-7.155,-0.697,1.018,253.601,-141.113,-726.807,1
-6.000,-0.942,1.274,247.986,-57.251,-680.359,1
-5.272,-1.301,1.340,187.500,8.118,-629.883,1
-4.039,-1.589,1.359,218.811,61.890,-571.899,1
-3.268,-1.822,1.019,256.531,117.432,-502.014,1
-3.026,-1.643,0.878,219.727,156.555,-428.772,1
-2.725,-1.397,0.776,205.688,181.335,-356.934,1
-2.419,-1.458,0.615,200.745,199.585,-283.081,1
-1.896,-1.457,0.520,168.213,210.205,-210.999,1
-1.296,-1.487,0.471,148.926,207.458,-145.203,1
-0.850,-1.436,0.326,142.090,196.655,-87.341,1
-0.508,-1.250,0.259,145.325,184.753,-40.405,1
-0.356,-1.180,0.200,147.827,170.532,2.319,1
-0.295,-1.052,0.374,140.076,158.020,40.833,1
-0.242,-0.986,0.325,139.099,147.888,71.289,1
-0.154,-0.909,0.251,133.972,136.169,98.450,1
-0.001,-0.726,0.222,127.930,122.620,120.728,1
0.126,-0.499,0.192,129.456,107.788,136.841,1
0.262,-0.309,0.178,131.531,93.994,147.461,1
0.325,-0.198,0.127,138.245,83.679,153.015,1
0.359,-0.067,0.112,135.132,75.378,156.677,1
0.494,0.013,0.115,124.146,70.190,157.166,1
0.489,0.069,0.161,113.037,64.209,153.748,1
0.514,0.172,0.168,120.544,59.631,148.499,1
0.488,0.198,0.106,138.611,54.138,139.893,1
0.638,0.251,0.066,159.058,51.880,132.263,1
0.761,0.328,0.089,179.016,50.659,123.291,1
0.828,0.429,0.132,182.800,48.706,114.380,1
0.784,0.489,0.147,167.908,47.058,102.295,1
0.865,0.544,0.125,145.813,45.898,90.759,1
1.053,0.584,0.129,141.541,47.241,81.726,1
1.172,0.637,0.121,157.471,50.781,74.768,1
1.142,0.652,0.100,160.583,55.725,67.749,1
1.067,0.672,0.089,144.104,60.364,59.753,1
1.031,0.682,0.105,133.972,62.134,52.124,1
1.089,0.649,0.061,148.376,63.904,47.119,1
1.075,0.574,-0.016,148.437,66.345,43.945,1
0.912,0.494,-0.016,147.888,69.702,41.382,1
0.874,0.425,-0.001,152.405,72.083,42.297,1
0.890,0.418,-0.004,153.870,74.768,46.021,1
0.936,0.345,-0.091,166.138,79.651,50.903,1
0.910,0.290,-0.183,147.156,85.571,54.810,1
0.807,0.343,-0.180,129.517,90.088,57.251,1
0.760,0.386,-0.167,128.662,93.201,59.570,1
0.794,0.498,-0.074,135.864,93.079,62.683,1
0.880,0.617,-0.066,140.381,92.041,64.331,1
0.929,0.791,-0.083,126.709,90.881,63.477,1
0.947,0.975,-0.072,109.192,89.050,57.800,1
0.991,1.181,-0.087,127.136,87.158,49.011,1
1.006,1.307,-0.131,144.592,85.144,37.292,1
0.858,1.395,-0.170,135.864,84.839,22.705,1
0.812,1.493,-0.141,120.911,85.144,4.150,1
0.794,1.530,-0.135,127.075,85.632,-15.076,1
0.832,1.483,-0.150,139.221,86.243,-32.959,1
0.861,1.387,-0.177,147.217,87.341,-47.791,1
0.881,1.274,-0.204,136.536,87.952,-60.181,1
0.904,1.181,-0.221,123.840,87.158,-69.763,1
0.909,1.079,-0.261,114.746,84.656,-78.247,1
0.951,1.000,-0.301,114.380,81.482,-83.557,1
0.916,0.910,-0.362,104.431,78.674,-87.158,1
0.845,0.867,-0.411,84.717,74.036,-89.722,1
0.800,0.848,-0.528,88.196,68.481,-93.018,1
0.813,0.817,-0.608,118.286,62.622,-94.971,1
0.881,0.746,-0.635,146.240,56.885,-95.642,1
0.921,0.659,-0.656,148.315,51.636,-94.727,1
0.999,0.599,-0.649,125.916,43.762,-93.872,1
1.001,0.613,-0.601,130.798,36.072,-93.079,1
0.988,0.598,-0.613,145.752,28.320,-93.140,1
0.992,0.579,-0.595,148.926,21.057,-94.482,1
0.964,0.516,-0.539,126.953,15.808,-96.497,1
0.967,0.521,-0.415,110.718,13.000,-99.731,1
0.950,0.558,-0.304,128.113,13.306,-104.431,1
1.009,0.543,-0.239,137.024,15.503,-111.267,1
1.169,0.524,-0.211,106.323,20.691,-117.615,1
1.123,0.569,-0.077,96.130,28.687,-127.563,1
0.962,0.587,0.028,75.928,40.588,-138.672,1
0.733,0.596,0.050,47.729,49.255,-146.423,1
0.422,0.518,0.003,54.871,58.716,-153.259,1
0.094,0.374,-0.026,61.218,67.200,-156.494,1
-0.239,0.173,-0.096,55.054,76.233,-157.654,1
-0.547,-0.016,-0.144,51.270,86.365,-157.593,1
-0.776,-0.163,-0.147,85.999,97.717,-155.457,1
-0.906,-0.302,-0.265,130.737,114.746,-144.104,1
-0.907,-0.502,-0.408,88.257,130.310,-123.657,1
-0.814,-0.746,-0.442,-14.709,142.334,-96.130,1
-0.828,-0.843,-0.455,-63.782,150.513,-68.787,1
-0.980,-0.956,-0.436,-51.086,159.790,-35.339,1
-0.966,-1.073,-0.504,-70.679,169.922,3.540,1
-1.023,-1.137,-0.480,-64.697,181.946,52.490,1
-1.134,-1.225,-0.546,-54.260,189.575,103.821,1
-1.533,-1.287,-0.667,-45.532,193.115,158.081,1
-1.926,-1.373,-0.837,-12.878,193.848,218.628,1
-2.387,-1.635,-0.953,-19.348,188.293,288.879,1
-2.686,-1.500,-1.241,20.386,181.946,376.221,1
-3.207,-1.459,-1.345,135.742,160.278,483.337,1
-4.081,-1.331,-1.522,291.077,112.732,600.281,1
-5.411,-1.346,-1.826,382.141,24.536,733.398,1
-7.285,-1.099,-1.965,440.979,-101.318,868.469,1
-8.000,-0.896,-1.839,480.408,-249.390,973.022,1
-8.000,-0.887,-1.592,479.980,-415.100,1038.147,1
-8.000,-0.358,-1.113,417.114,-561.279,1061.340,1
-8.000,0.463,-0.169,417.847,-693.359,1053.162,1
-8.000,1.088,0.904,577.332,-853.577,983.276,1
-8.000,1.891,0.806,891.052,-1001.648,848.572,1
-8.000,1.705,1.576,1457.336,-1159.424,494.080,1
-8.000,1.891,0.524,1783.325,-1160.339,-35.828,1
-8.000,1.160,1.001,1280.334,-960.266,-469.360,1
-8.000,1.137,1.237,994.080,-742.371,-651.550,1
-8.000,0.186,0.707,872.253,-503.113,-753.235,1
-8.000,-0.424,0.628,623.779,-325.928,-793.213,1
-8.000,-0.471,0.640,447.266,-161.987,-781.128,1
-6.965,-0.694,0.536,280.151,-45.898,-731.323,1
-6.385,-0.932,0.830,200.012,39.001,-666.565,1
-5.704,-0.978,0.962,167.419,93.567,-608.215,1
-4.420,-1.470,0.843,186.157,144.592,-540.833,1
-3.421,-1.634,0.746,197.449,184.570,-467.041,1
-2.930,-1.730,0.598,206.177,213.196,-398.437,1
-2.462,-1.630,0.468,186.462,234.009,-324.951,1
-2.054,-1.444,0.381,183.166,243.347,-257.812,1
-1.571,-1.402,0.249,156.494,242.981,-190.979,1
-1.176,-1.221,0.201,144.592,233.276,-131.470,1
-0.804,-1.086,0.084,137.146,222.046,-80.078,1
-0.553,-0.976,0.111,141.724,209.900,-35.583,1
-0.477,-0.818,0.123,157.166,198.120,-0.488,1
-0.283,-0.770,0.116,183.472,186.218,33.081,1
-0.076,-0.652,0.110,187.378,168.030,59.692,1
0.081,-0.505,0.150,172.302,148.010,79.102,1
0.180,-0.248,0.073,176.636,128.113,96.924,1
0.171,-0.115,-0.007,188.721,112.488,109.375,1
0.133,-0.046,-0.020,171.204,99.609,114.746,1
0.135,0.014,-0.028,165.100,89.416,112.000,1
0.186,0.132,-0.084,170.410,83.069,107.605,1
0.244,0.131,-0.099,155.457,78.918,100.586,1
0.400,0.222,-0.093,135.010,75.500,93.079,1
0.520,0.280,-0.078,123.108,72.754,85.754,1
0.566,0.353,-0.047,141.113,70.618,77.576,1
0.671,0.379,-0.103,159.058,68.054,68.481,1
0.808,0.368,-0.160,156.677,66.345,59.998,1
0.871,0.333,-0.206,136.414,67.383,54.016,1
0.881,0.319,-0.226,123.169,70.068,49.316,1
0.901,0.348,-0.186,126.404,72.632,47.607,1
0.925,0.373,-0.147,154.053,74.036,47.729,1
0.985,0.415,-0.159,197.449,73.914,50.537,1
1.036,0.369,-0.221,222.839,73.608,54.993,1
1.020,0.333,-0.291,211.121,74.524,60.852,1
0.975,0.387,-0.344,149.963,76.843,70.068,1
0.946,0.272,-0.321,56.152,82.092,75.745,1
0.865,0.333,-0.268,26.855,87.097,74.402,1
0.777,0.408,-0.267,82.397,90.332,73.364,1
0.798,0.462,-0.319,154.663,89.661,76.477,1
0.808,0.434,-0.440,197.693,88.013,81.848,1
0.776,0.487,-0.546,190.674,86.609,86.487,1
0.843,0.566,-0.613,165.100,84.839,90.088,1
0.855,0.707,-0.646,131.348,81.787,89.844,1
0.888,0.890,-0.611,119.568,76.904,86.182,1
0.985,1.167,-0.582,146.179,70.129,81.055,1
1.054,1.422,-0.576,164.673,63.110,73.242,1
0.938,1.670,-0.535,146.729,54.321,57.861,1
0.835,1.865,-0.519,152.527,47.241,37.231,1
0.868,1.959,-0.464,161.133,42.480,17.761,1
0.865,2.034,-0.352,157.593,39.063,-6.897,1
0.816,2.057,-0.294,118.958,37.415,-33.264,1
0.638,2.001,-0.179,121.704,39.001,-59.021,1
0.709,1.931,-0.095,109.497,40.710,-77.698,1
0.632,1.852,0.153,118.591,42.969,-96.497,1
0.656,1.495,0.006,118.958,46.204,-111.816,1
0.645,1.376,-0.005,109.802,50.476,-123.413,1
0.702,1.253,0.002,101.501,53.711,-130.920,1
0.678,1.146,-0.025,84.900,55.481,-134.521,1
0.827,1.020,0.098,43.213,55.054,-140.137,1
0.669,0.947,0.062,60.120,56.641,-141.724,1
0.550,0.945,-0.026,112.610,59.509,-142.883,1
0.559,0.871,-0.119,123.169,61.035,-144.409,1
0.564,0.823,-0.237,125.977,61.890,-145.569,1
0.535,0.777,-0.301,143.311,63.049,-146.118,1
0.531,0.698,-0.396,160.095,65.002,-145.325,1
0.556,0.639,-0.387,151.917,65.369,-143.799,1
0.601,0.595,-0.437,134.277,61.584,-142.456,1
0.618,0.633,-0.450,148.071,57.312,-141.479,1
0.512,0.748,-0.535,186.523,54.382,-139.343,1
0.561,0.568,-0.555,157.288,52.246,-138.733,1
0.481,0.500,-0.542,113.953,49.988,-138.855,1
0.352,0.447,-0.457,75.256,45.776,-139.526,1
0.263,0.373,-0.386,62.561,40.955,-138.367,1
0.186,0.266,-0.371,67.200,39.246,-134.827,1
0.060,0.118,-0.345,78.674,40.283,-131.348,1
-0.027,-0.025,-0.329,130.005,46.692,-129.639,1
-0.099,-0.176,-0.333,193.848,59.509,-127.319,1
-0.170,-0.347,-0.361,224.060,75.378,-123.291,1
-0.284,-0.496,-0.361,218.750,96.375,-114.746,1
-0.339,-0.640,-0.368,178.772,113.770,-101.624,1
-0.349,-0.770,-0.435,130.127,126.648,-83.862,1
-0.381,-0.813,-0.455,89.050,138.733,-58.960,1
-0.492,-0.893,-0.542,79.895,150.391,-23.132,1
-0.605,-0.931,-0.484,60.303,154.602,18.433,1
-0.911,-1.133,-0.662,29.419,156.982,64.819,1
-1.150,-1.099,-0.846,-24.536,158.142,124.207,1
