timestamp_s,ax,ay,az,gx,gy,gz,label
0.0,0.819,0.071,-0.232,44.006,5.798,-56.274,1
0.007031,0.815,0.079,-0.239,33.203,7.507,-54.931,1
0.015498000000000001,0.815,0.104,-0.245,26.977,8.117,-53.71,1
0.022452,0.819,0.142,-0.245,27.893,7.934,-52.185,1
0.031233000000000004,0.815,0.172,-0.248,34.057,7.69,-51.452,1
0.037949000000000004,0.789,0.192,-0.257,45.104,6.225,-50.109,1
0.046914000000000004,0.748,0.203,-0.267,55.053,5.249,-49.194,1
0.053347,0.754,0.191,-0.286,62.561,4.089,-48.522,1
0.061888,0.732,0.181,-0.3,63.232,3.845,-47.973,1
0.069744,0.722,0.16,-0.304,56.701,3.662,-47.546,1
0.076779,0.765,0.143,-0.311,44.921,5.676,-47.18,1
0.084786,0.798,0.14,-0.34,34.118,6.408,-46.874,1
0.093328,0.832,0.149,-0.352,25.024,7.995,-46.508,1
0.102019,0.857,0.153,-0.376,15.624,8.911,-46.386,1
0.109363,0.856,0.16,-0.373,5.493,9.887,-46.203,1
0.116579,0.84,0.169,-0.371,0.427,10.437,-46.142,1
0.125555,0.829,0.184,-0.363,-0.183,10.375,-46.203,1
0.133431,0.834,0.196,-0.369,5.615,10.009,-46.447,1
0.142101,0.844,0.197,-0.379,11.962,9.46,-46.997,1
0.149275,0.864,0.177,-0.401,14.831,9.826,-47.424,1
0.157159,0.864,0.145,-0.43,8.3,10.375,-47.424,1
0.165076,0.862,0.122,-0.454,-8.911,11.901,-47.485,1
0.173821,0.866,0.091,-0.49,-38.085,12.756,-46.569,1
0.181175,0.902,0.081,-0.509,-61.584,13.061,-45.837,1
0.188539,0.929,0.088,-0.52,-78.918,11.23,-44.128,1
0.197448,0.957,0.102,-0.52,-79.223,7.751,-42.724,1
0.206174,0.95,0.127,-0.516,-64.392,2.99,-41.748,1
0.215732,0.917,0.129,-0.495,-34.118,-3.417,-40.954,1
0.220958,0.878,0.113,-0.476,-0.122,-9.338,-40.344,1
0.228627,0.868,0.085,-0.448,24.841,-12.573,-39.978,1
0.238116,0.885,0.054,-0.43,42.663,-15.441,-39.55,1
0.24544,0.911,0.032,-0.405,55.297,-17.333,-38.696,1
0.254502,0.933,0.015,-0.384,66.101,-19.042,-38.146,1
0.263379,0.904,0.026,-0.343,77.026,-20.385,-37.841,1
0.271645,0.893,0.029,-0.319,85.998,-21.179,-37.963,1
0.278574,0.794,0.036,-0.291,91.979,-21.118,-38.085,1
0.287686,0.734,0.032,-0.277,97.045,-20.812,-37.841,1
0.295004,0.745,0.044,-0.246,104.064,-19.47,-37.536,1
0.302461,0.725,0.021,-0.251,110.351,-18.798,-37.536,1
0.31030800000000003,0.721,0.023,-0.229,114.013,-17.028,-37.292,1
0.319404,0.831,0.027,-0.203,122.253,-13.61,-37.78,1
0.327741,0.943,0.025,-0.212,128.417,-13.305,-40.039,1
0.334718,1.005,0.019,-0.21,130.676,-11.291,-41.076,1
0.343491,1.03,0.022,-0.2,127.258,-9.277,-41.748,1
0.351941,1.082,0.029,-0.196,120.605,-5.615,-41.687,1
0.359657,1.186,0.03,-0.215,106.567,-2.868,-42.175,1
0.368581,1.171,0.079,-0.198,94.36,0.0,-43.151,1
0.376825,1.264,0.099,-0.224,89.477,2.441,-44.311,1
0.384131,1.325,0.158,-0.254,84.228,3.356,-46.447,1
0.391857,1.307,0.181,-0.264,75.195,5.615,-49.072,1
0.400059,1.264,0.221,-0.297,57.006,8.361,-51.94,1
0.408005,1.255,0.25,-0.313,38.33,10.803,-54.748,1
0.415456,1.243,0.299,-0.347,19.958,12.756,-57.739,1
0.424218,1.194,0.319,-0.388,2.807,14.221,-61.34,1
0.432819,1.068,0.341,-0.419,-18.615,14.953,-64.88,1
0.440269,1.072,0.318,-0.406,-49.072,15.747,-68.42,1
0.448279,1.087,0.33,-0.456,-72.021,17.333,-72.265,1
0.45739,1.078,0.338,-0.456,-88.623,16.113,-76.049,1
0.46369900000000003,1.073,0.332,-0.465,-95.092,15.808,-79.711,1
0.473457,1.018,0.326,-0.456,-91.979,13.0,-83.251,1
0.480662,0.936,0.303,-0.445,-78.247,10.803,-86.425,1
0.489091,0.864,0.268,-0.421,-55.786,7.324,-89.965,1
0.49783000000000005,0.808,0.208,-0.404,-34.24,4.821,-93.566,1
0.506331,0.733,0.136,-0.385,-21.423,3.601,-96.557,1
0.5153319999999999,0.653,0.053,-0.366,-17.578,4.15,-98.937,1
0.522778,0.648,-0.001,-0.371,-18.249,5.065,-100.769,1
0.5317799999999999,0.655,-0.081,-0.406,-23.986,5.676,-101.806,1
0.539214,0.654,-0.15,-0.432,-36.865,6.408,-101.501,1
0.548593,0.66,-0.217,-0.456,-50.231,5.615,-100.891,1
0.555479,0.662,-0.27,-0.464,-63.049,4.638,-99.487,1
0.56453,0.627,-0.313,-0.479,-70.556,2.563,-97.717,1
0.571506,0.607,-0.358,-0.451,-75.195,0.122,-95.397,1
0.58093,0.621,-0.391,-0.488,-69.58,-3.784,-93.505,1
0.589772,0.605,-0.441,-0.458,-53.283,-7.324,-90.393,1
0.597244,0.668,-0.485,-0.474,-32.714,-11.352,-86.975,1
0.6057239999999999,0.698,-0.519,-0.462,-14.587,-14.526,-83.496,1
0.614158,0.725,-0.553,-0.467,2.685,-16.357,-79.467,1
0.6228469999999999,0.684,-0.593,-0.484,5.065,-17.761,-75.561,1
0.6311209999999999,0.612,-0.609,-0.482,-2.502,-17.822,-72.387,1
0.6398929999999999,0.635,-0.613,-0.465,-12.39,-18.066,-69.335,1
0.6472659999999999,0.669,-0.646,-0.473,-24.414,-17.517,-65.856,1
0.653986,0.641,-0.637,-0.435,-30.395,-18.981,-63.537,1
0.663345,0.593,-0.629,-0.412,-25.817,-20.141,-61.096,1
0.671854,0.612,-0.62,-0.298,-0.854,-22.094,-58.837,1
0.6796719999999999,0.603,-0.632,-0.32,24.23,-24.475,-56.701,1
0.6864469999999999,0.53,-0.719,-0.199,44.128,-27.221,-54.687,1
0.6953459999999999,0.519,-0.803,-0.211,50.231,-24.108,-52.246,1
0.703305,0.337,-0.833,-0.106,47.363,-24.414,-50.415,1
0.711818,0.282,-0.851,0.054,63.354,-22.094,-48.4,1
0.718335,0.359,-0.896,0.077,101.623,-22.033,-46.081,1
0.7275539999999999,0.321,-1.013,0.136,126.525,-19.348,-44.189,1
0.7356419999999999,0.243,-1.154,0.152,123.84,-16.052,-41.32,1
0.741802,0.18,-1.28,0.193,99.853,-7.202,-35.705,1
0.749562,0.138,-1.354,0.226,72.998,-1.342,-30.395,1
0.756937,0.144,-1.431,0.245,51.635,7.202,-23.803,1
0.7655519999999999,0.107,-1.532,0.226,24.658,13.732,-16.662,1
0.7742559999999999,0.074,-1.616,0.263,0.915,20.385,-8.056,1
0.780902,0.079,-1.662,0.273,-5.737,26.062,1.831,1
0.789604,0.007,-1.711,0.289,2.868,30.822,14.221,1
0.797797,-0.056,-1.779,0.262,5.737,37.231,25.207,1
0.804584,-0.058,-1.83,0.247,-0.244,42.114,37.292,1
0.8137709999999999,-0.166,-1.887,0.22,-9.521,50.72,50.292,1
0.8206669999999999,-0.249,-1.899,0.184,-30.578,58.227,65.49,1
0.829656,-0.357,-1.876,0.158,-43.395,65.673,78.979,1
0.837773,-0.458,-1.858,0.13,-41.137,71.716,94.848,1
0.8466079999999999,-0.585,-1.862,0.099,-36.499,78.186,111.328,1
0.855389,-0.699,-1.863,0.041,-35.156,82.458,125.549,1
0.8649619999999999,-0.844,-1.852,0.004,-28.564,88.012,142.333,1
0.873925,-1.008,-1.84,-0.054,-19.409,92.285,159.79,1
0.880536,-1.185,-1.807,-0.106,-3.173,96.191,177.551,1
0.889284,-1.38,-1.775,-0.171,14.709,98.571,195.373,1
0.8979739999999999,-1.541,-1.752,-0.224,31.372,100.219,211.059,1
0.9068679999999999,-1.71,-1.734,-0.289,40.344,100.646,227.294,1
0.91541,-1.935,-1.702,-0.346,43.884,102.478,247.131,1
0.924454,-2.137,-1.671,-0.421,40.283,103.515,267.578,1
0.93167,-2.361,-1.631,-0.479,23.01,105.407,288.635,1
0.938862,-2.592,-1.574,-0.536,7.019,106.933,307.312,1
0.948086,-2.873,-1.434,-0.527,9.582,107.238,329.589,1
0.9570099999999999,-3.169,-1.493,-0.65,10.437,106.384,353.393,1
0.966154,-3.415,-1.444,-0.676,0.061,107.727,378.417,1
0.9764919999999999,-3.783,-1.341,-0.793,-6.286,107.238,400.146,1
0.983626,-4.208,-1.254,-0.839,-1.525,104.736,430.541,1
0.991031,-4.603,-1.188,-0.905,15.686,100.219,454.223,1
1.000535,-4.954,-1.158,-0.981,29.357,92.102,482.971,1
1.007649,-5.414,-1.078,-1.062,41.809,85.205,509.033,1
1.016965,-5.855,-0.985,-1.161,61.889,70.556,540.039,1
1.0237829999999999,-6.317,-0.899,-1.192,92.163,56.091,567.504,1
1.032197,-6.882,-0.788,-1.337,125.549,30.883,599.243,1
1.0387309999999998,-7.394,-0.69,-1.375,156.982,7.08,627.136,1
1.048,-7.983,-0.573,-1.444,188.293,-23.986,653.808,1
1.054907,-8.642,-0.428,-1.446,224.121,-58.105,679.931,1
1.063507,-9.435,-0.234,-1.439,270.813,-106.018,707.519,1
1.071427,-10.218,-0.049,-1.387,317.749,-152.343,728.942,1
1.079852,-11.206,0.153,-1.306,345.458,-203.308,746.582,1
1.0881729999999998,-12.051,0.375,-1.188,370.3,-262.573,762.817,1
1.0962779999999999,-12.857,0.61,-1.043,383.3,-317.26,771.606,1
1.104758,-13.835,0.904,-0.819,391.235,-370.483,775.878,1
1.111907,-14.591,1.105,-0.652,394.836,-434.265,775.451,1
1.11896,-15.512,1.354,-0.446,396.118,-488.342,770.202,1
1.1286429999999998,-15.999,1.602,-0.211,419.311,-544.189,759.948,1
1.1346079999999998,-15.999,1.871,0.098,477.905,-612.67,738.098,1
1.142459,-15.999,1.879,0.355,531.555,-677.612,711.364,1
1.150901,-15.999,1.867,0.733,591.857,-741.21,678.405,1
1.157595,-15.999,1.955,1.205,652.16,-801.391,642.944,1
1.165568,-15.999,2.185,1.469,764.77,-864.685,588.378,1
1.173517,-15.999,2.507,1.958,915.466,-924.987,510.436,1
1.181028,-15.999,2.47,2.205,1030.151,-975.28,409.545,1
1.188912,-15.999,2.247,2.532,1056.762,-1006.896,294.616,1
1.1955909999999998,-15.999,2.186,2.66,1018.432,-1016.113,174.682,1
1.203187,-15.999,2.132,2.941,918.579,-1000.366,60.791,1
1.2120849999999999,-15.999,1.902,3.153,783.935,-959.228,-37.353,1
1.218321,-15.993,1.699,3.537,635.253,-911.926,-116.088,1
1.2265599999999999,-14.719,1.52,3.672,512.451,-850.891,-173.706,1
1.233963,-13.599,1.343,3.617,419.433,-796.691,-215.515,1
1.241846,-12.414,1.154,3.459,355.102,-743.102,-245.849,1
1.249967,-11.299,1.05,3.318,325.073,-697.692,-270.996,1
1.258156,-10.298,0.959,3.17,338.5,-652.526,-294.921,1
1.26488,-9.414,0.833,2.98,371.582,-612.793,-319.824,1
1.273835,-8.708,0.73,2.878,406.555,-567.871,-343.872,1
1.280918,-8.031,0.597,2.645,425.476,-524.536,-367.37,1
1.288511,-7.461,0.445,2.468,441.345,-471.008,-390.38,1
1.2968629999999999,-6.717,0.206,2.196,442.321,-426.818,-405.944,1
1.306822,-6.158,0.057,2.048,434.997,-380.249,-416.748,1
1.313526,-5.673,-0.079,1.857,401.916,-327.636,-425.476,1
1.3213219999999999,-5.399,-0.151,1.751,340.454,-278.747,-427.368,1
1.330137,-5.204,-0.199,1.619,276.672,-239.929,-423.767,1
1.338744,-5.001,-0.194,1.515,205.322,-203.247,-415.039,1
1.347071,-4.757,-0.149,1.479,166.564,-176.147,-405.883,1
1.3547,-4.448,-0.148,1.421,153.686,-150.024,-395.08,1
1.36334,-4.126,-0.205,1.41,157.287,-129.76,-386.23,1
1.371418,-3.844,-0.302,1.351,155.944,-109.13,-377.136,1
1.3783239999999999,-3.538,-0.405,1.288,145.141,-89.599,-366.76,1
1.3863619999999999,-3.252,-0.489,1.225,127.807,-68.298,-354.125,1
1.394116,-3.009,-0.566,1.166,109.069,-51.513,-342.59,1
1.4027699999999999,-2.672,-0.613,1.102,93.383,-36.621,-329.528,1
1.411348,-2.487,-0.668,1.089,87.951,-23.254,-317.626,1
1.419891,-2.269,-0.686,1.008,77.575,-9.887,-304.077,1
1.427587,-2.115,-0.703,0.991,76.904,-0.732,-291.992,1
1.436027,-1.957,-0.723,0.948,78.369,10.803,-277.893,1
1.445033,-1.85,-0.721,0.938,80.688,20.385,-263.732,1
1.4535179999999999,-1.765,-0.715,0.903,83.74,28.381,-251.831,1
1.460137,-1.651,-0.723,0.874,85.937,35.583,-239.501,1
1.468129,-1.537,-0.73,0.822,81.726,44.006,-225.28,1
1.476589,-1.409,-0.736,0.777,74.34,49.804,-212.341,1
1.483884,-1.26,-0.737,0.729,67.199,54.992,-199.523,1
1.492419,-1.069,-0.729,0.694,60.791,58.776,-186.767,1
1.500824,-0.94,-0.697,0.631,51.696,63.293,-174.743,1
1.50904,-0.77,-0.674,0.615,51.879,64.636,-161.682,1
1.51688,-0.634,-0.649,0.598,63.598,68.664,-148.498,1
1.525329,-0.538,-0.619,0.565,72.937,69.213,-137.939,1
1.5326359999999999,-0.481,-0.604,0.542,79.467,73.12,-126.281,1
1.541595,-0.424,-0.584,0.508,78.796,74.89,-116.638,1
1.551587,-0.373,-0.551,0.482,76.538,78.613,-106.079,1
1.558438,-0.317,-0.519,0.45,73.181,80.505,-97.839,1
1.565885,-0.254,-0.481,0.429,72.692,83.129,-88.867,1
1.5754059999999999,-0.176,-0.464,0.385,71.105,84.228,-81.237,1
1.582673,-0.123,-0.432,0.37,68.115,86.059,-73.059,1
1.591051,-0.056,-0.402,0.347,64.025,86.914,-65.612,1
1.5996329999999999,0.001,-0.373,0.321,58.959,88.134,-58.776,1
1.606932,0.08,-0.346,0.303,54.077,88.378,-52.917,1
1.615075,0.155,-0.312,0.302,51.818,88.867,-47.485,1
1.623805,0.203,-0.274,0.293,52.673,88.562,-42.968,1
1.631541,0.248,-0.242,0.284,54.321,88.439,-38.818,1
1.638142,0.288,-0.232,0.27,53.161,88.317,-33.691,1
1.645802,0.327,-0.209,0.262,49.926,88.745,-29.663,1
1.6546809999999998,0.351,-0.187,0.237,47.119,88.5,-25.634,1
1.66147,0.382,-0.162,0.221,45.166,87.646,-21.118,1
1.6698549999999999,0.437,-0.146,0.209,44.433,86.791,-17.456,1
1.677487,0.519,-0.115,0.188,45.471,85.327,-13.061,1
1.6862219999999999,0.592,-0.084,0.183,49.194,83.496,-9.521,1
1.693333,0.652,-0.044,0.173,57.067,81.176,-6.347,1
1.702094,0.678,-0.015,0.177,69.274,77.819,-2.685,1
1.70919,0.694,0.009,0.184,78.063,75.744,0.0,1
1.7161009999999999,0.698,0.025,0.189,88.928,73.12,3.784,1
1.724005,0.72,0.047,0.191,95.153,71.96,5.798,1
1.732064,0.755,0.05,0.186,100.097,70.922,8.361,1
1.7388059999999999,0.824,0.057,0.171,100.341,70.861,11.047,1
1.745757,0.88,0.065,0.154,96.313,71.228,13.488,1
1.754095,0.939,0.087,0.135,89.477,71.411,16.235,1
1.7611999999999999,1.012,0.105,0.121,81.665,72.204,18.371,1
1.768341,1.051,0.121,0.093,73.364,72.143,20.996,1
1.776032,1.077,0.153,0.079,67.81,72.204,22.399,1
1.7826359999999999,1.102,0.175,0.066,65.246,71.105,23.864,1
1.790476,1.105,0.189,0.055,63.964,70.434,25.024,1
1.797704,1.11,0.197,0.042,62.927,69.519,26.794,1
1.8051359999999999,1.112,0.207,0.033,61.096,68.115,28.442,1
1.812571,1.113,0.219,0.013,59.02,67.016,30.212,1
1.821879,1.109,0.222,0.011,56.396,65.856,31.616,1
1.828643,1.114,0.229,0.0,54.199,65.246,32.714,1
1.836493,1.104,0.232,-0.01,53.1,64.392,33.569,1
1.84358,1.095,0.232,-0.018,52.795,64.208,34.912,1
1.850539,1.092,0.224,-0.038,51.574,63.171,36.437,1
1.859672,1.085,0.226,-0.041,50.659,62.622,38.757,1
1.867576,1.092,0.235,-0.046,49.56,61.096,41.137,1
1.873926,1.104,0.252,-0.037,49.438,60.058,43.945,1
1.882714,1.114,0.279,-0.035,48.95,58.654,46.386,1
1.8911799999999999,1.086,0.326,-0.02,48.156,58.227,47.79,1
1.899143,1.063,0.367,-0.011,46.691,58.41,48.034,1
1.907429,1.032,0.423,0.0,45.532,59.326,48.095,1
1.916061,1.025,0.494,0.003,43.762,59.936,47.79,1
1.9237739999999999,1.001,0.554,-0.007,46.997,60.729,46.569,1
1.9316849999999999,0.959,0.608,-0.034,52.307,60.302,44.982,1
1.9385759999999999,0.925,0.667,-0.05,62.499,59.448,43.212,1
1.946788,0.908,0.718,-0.075,73.974,58.41,41.137,1
1.955991,0.874,0.782,-0.091,86.608,56.762,38.452,1
1.963276,0.848,0.835,-0.117,95.886,54.748,35.156,1
1.971373,0.816,0.886,-0.122,100.036,54.199,32.043,1
1.980132,0.78,0.914,-0.139,97.473,53.649,28.686,1
1.987069,0.757,0.975,-0.157,91.613,54.565,24.902,1
1.996097,0.718,1.008,-0.166,83.618,53.344,19.592,1
2.002222,0.707,1.032,-0.179,79.345,54.565,14.587,1
2.011463,0.698,1.028,-0.215,76.538,52.612,9.46,1
2.019574,0.692,1.0,-0.215,74.157,52.429,4.821,1
2.0262000000000002,0.725,0.966,-0.239,70.8,51.818,0.488,1
2.033914,0.748,0.951,-0.241,69.213,50.292,-3.54,1
2.0430110000000004,0.785,0.943,-0.241,70.373,48.828,-6.347,1
2.051698,0.789,0.944,-0.234,73.425,47.546,-8.666,1
2.0586010000000003,0.805,0.904,-0.228,67.443,46.63,-10.742,1
2.06705,0.848,0.895,-0.209,55.725,48.156,-12.207,1
2.076287,0.893,0.93,-0.229,43.701,46.752,-15.624,1
2.084864,0.89,0.96,-0.187,43.884,46.813,-18.859,1
2.092296,0.902,0.991,-0.192,50.415,44.86,-23.376,1
2.101038,0.911,0.967,-0.169,57.983,43.762,-26.672,1
2.10964,0.929,0.922,-0.176,69.03,41.503,-31.188,1
2.1169640000000003,0.92,0.859,-0.139,75.805,41.137,-33.325,1
2.124114,0.954,0.816,-0.151,75.744,40.832,-34.606,1
2.1327350000000003,0.995,0.779,-0.127,69.824,40.405,-35.095,1
2.140353,1.055,0.75,-0.105,62.316,41.992,-34.606,1
2.1488530000000003,1.092,0.792,-0.1,62.438,42.968,-36.132,1
2.156504,1.071,0.836,-0.075,68.359,42.785,-38.146,1
2.1654400000000003,1.044,0.863,-0.06,75.012,41.687,-39.123,1
2.173052,1.02,0.789,-0.093,82.275,41.198,-40.893,1
2.181201,1.046,0.857,-0.065,90.454,42.785,-43.884,1
2.1886460000000003,1.006,0.823,-0.108,98.449,40.161,-47.119,1
2.197601,0.985,0.789,-0.083,102.416,41.992,-49.194,1
2.2051730000000003,1.018,0.756,-0.133,95.581,42.602,-51.818,1
2.212282,1.01,0.737,-0.133,90.637,43.457,-53.71,1
2.221134,1.007,0.738,-0.148,89.111,43.212,-55.541,1
2.2299990000000003,0.979,0.745,-0.145,96.252,43.151,-57.983,1
2.2389710000000003,0.976,0.733,-0.153,110.595,42.114,-60.546,1
2.2464500000000003,1.0,0.716,-0.156,128.417,41.687,-62.011,1
2.2539990000000003,1.04,0.683,-0.192,154.174,40.71,-63.476,1
2.264027,0.968,0.648,-0.228,165.649,39.489,-64.147,1
2.2712250000000003,0.972,0.618,-0.222,174.804,40.039,-64.27,1
2.278687,0.916,0.576,-0.248,176.757,38.635,-64.331,1
2.286153,0.899,0.547,-0.243,175.903,40.466,-64.147,1
2.294594,0.897,0.529,-0.299,171.264,40.466,-63.964,1
2.3032980000000003,0.87,0.504,-0.278,164.611,40.71,-63.781,1
2.3118670000000003,0.879,0.49,-0.312,159.545,40.771,-64.147,1
2.3215540000000003,0.81,0.468,-0.312,154.235,41.137,-64.453,1
2.327723,0.801,0.453,-0.318,149.047,41.015,-64.575,1
2.335588,0.784,0.437,-0.309,145.935,40.649,-65.124,1
2.34402,0.751,0.425,-0.289,145.935,40.1,-65.612,1
2.3512180000000003,0.735,0.417,-0.271,147.521,39.733,-65.124,1
2.3599740000000002,0.747,0.39,-0.24,152.954,38.391,-64.147,1
2.367426,0.751,0.364,-0.229,158.996,37.536,-62.805,1
2.374339,0.751,0.337,-0.216,162.414,37.109,-61.157,1
2.382412,0.746,0.315,-0.224,160.461,37.292,-59.509,1
2.391095,0.732,0.289,-0.232,152.526,37.109,-58.044,1
2.3985540000000003,0.75,0.262,-0.235,138.854,37.475,-56.64,1
2.407362,0.711,0.243,-0.246,125.183,37.963,-55.541,1
2.4165520000000003,0.694,0.23,-0.243,110.656,37.963,-54.382,1
2.4234750000000003,0.675,0.219,-0.241,101.135,37.841,-53.527,1
2.4324030000000003,0.687,0.21,-0.227,99.304,37.414,-53.161,1
2.4400060000000003,0.726,0.188,-0.213,106.994,37.048,-52.429,1
2.447921,0.76,0.166,-0.206,117.736,36.315,-51.391,1
2.4570980000000002,0.784,0.145,-0.207,128.112,36.56,-50.354,1
2.463623,0.8,0.12,-0.212,136.535,36.437,-48.706,1
2.472986,0.823,0.096,-0.226,140.808,36.926,-47.058,1
2.4808310000000002,0.866,0.074,-0.226,142.517,37.17,-44.555,1
2.487914,0.898,0.069,-0.238,138.183,38.818,-42.358,1
2.496972,0.899,0.077,-0.259,129.882,38.94,-40.405,1
2.5041670000000003,0.883,0.088,-0.254,121.826,40.039,-38.513,1
2.5122560000000003,0.876,0.111,-0.256,113.952,40.771,-36.743,1
2.5207550000000003,0.872,0.134,-0.242,111.938,41.015,-35.644,1
2.527813,0.865,0.161,-0.233,113.891,41.625,-35.156,1
2.537096,0.842,0.176,-0.227,118.225,42.053,-34.973,1
2.544924,0.839,0.177,-0.227,119.262,43.151,-35.339,1
2.5518110000000003,0.853,0.164,-0.233,116.455,44.006,-35.4,1
2.5595060000000003,0.853,0.155,-0.236,108.581,45.776,-35.461,1
2.5689140000000004,0.848,0.148,-0.242,92.407,47.485,-35.827,1
2.575523,0.859,0.15,-0.255,72.631,49.316,-35.644,1
2.584734,0.885,0.164,-0.26,50.964,50.903,-35.766,1
2.59174,0.922,0.205,-0.266,32.226,52.062,-35.827,1
2.599431,0.957,0.25,-0.276,16.906,51.33,-36.132,1
2.6089670000000003,0.98,0.291,-0.271,12.512,49.987,-36.865,1
2.617224,1.005,0.335,-0.258,20.568,47.363,-37.719,1
2.6258860000000004,1.003,0.353,-0.272,27.954,44.86,-38.818,1
2.633929,1.052,0.354,-0.264,37.78,42.724,-39.794,1
2.641627,1.03,0.344,-0.281,49.316,40.466,-40.832,1
2.6491710000000004,0.979,0.314,-0.27,56.213,39.184,-42.114,1
2.657894,0.916,0.314,-0.26,64.453,38.635,-42.663,1
2.6656280000000003,0.796,0.313,-0.213,78.308,37.963,-43.457,1
2.6744600000000003,0.707,0.294,-0.218,86.975,38.33,-43.701,1
2.681918,0.655,0.297,-0.218,92.651,38.635,-43.823,1
2.6910540000000003,0.675,0.294,-0.225,97.717,38.269,-44.311,1
2.69978,0.694,0.28,-0.232,99.182,39.367,-44.86,1
2.707119,0.684,0.261,-0.238,93.505,40.527,-45.776,1
2.714846,0.734,0.236,-0.259,83.129,42.114,-46.386,1
2.722442,0.925,0.167,-0.226,66.772,43.395,-46.325,1
2.7313690000000004,0.809,0.202,-0.25,49.316,49.194,-46.569,1
2.739465,0.707,0.245,-0.292,34.973,46.813,-48.461,1
2.746894,0.655,0.286,-0.285,34.362,49.011,-50.964,1
2.7543960000000003,0.609,0.29,-0.321,40.649,47.119,-53.1,1
2.7637270000000003,0.484,0.267,-0.373,53.894,46.936,-54.382,1
2.771881,0.384,0.213,-0.443,60.974,44.067,-53.955,1
2.779119,0.67,0.111,-0.453,60.241,42.968,-51.574,1
2.786286,0.926,0.099,-0.446,57.678,47.363,-51.086,1
2.79467,1.055,0.088,-0.512,51.269,42.419,-51.818,1
2.803316,1.126,0.082,-0.452,57.617,42.785,-52.185,1
2.811067,1.188,0.057,-0.497,65.673,37.536,-52.551,1
