timestamp_s,ax,ay,az,gx,gy,gz,label
0.0,0.922,0.041,-0.319,-25.939,13.61,6.103,1
0.008601000000000001,0.931,0.046,-0.334,-23.498,12.268,6.347,1
0.014971000000000002,0.929,0.047,-0.344,-21.911,11.23,6.53,1
0.022849,0.927,0.046,-0.354,-20.629,10.314,6.591,1
0.02973,0.934,0.051,-0.348,-18.92,9.338,6.408,1
0.03705,0.942,0.047,-0.349,-16.418,8.361,6.713,1
0.04421,0.958,0.049,-0.348,-14.221,7.629,6.591,1
0.052708,0.965,0.054,-0.352,-13.366,6.591,6.835,1
0.058924000000000004,0.969,0.065,-0.363,-14.526,6.286,6.835,1
0.06751700000000001,0.979,0.072,-0.376,-17.028,6.225,6.713,1
0.074266,0.975,0.082,-0.389,-20.751,5.92,6.286,1
0.08131000000000001,0.986,0.093,-0.397,-24.108,5.065,6.225,1
0.087958,1.0,0.103,-0.404,-25.878,4.455,5.432,1
0.095905,1.017,0.104,-0.412,-25.756,3.845,5.065,1
0.103426,1.029,0.105,-0.41,-23.62,2.746,4.516,1
0.110044,1.036,0.104,-0.405,-19.958,1.708,3.967,1
0.118114,1.04,0.097,-0.396,-16.052,0.854,3.356,1
0.126078,1.037,0.089,-0.392,-13.183,-0.061,2.99,1
0.13338899999999998,1.043,0.079,-0.387,-11.291,-0.793,2.99,1
0.14138399999999998,1.045,0.079,-0.388,-10.803,-1.098,2.502,1
0.14821299999999998,1.036,0.077,-0.397,-12.451,-1.22,2.258,1
0.155931,1.017,0.081,-0.412,-16.479,-1.098,2.075,1
0.164452,1.001,0.088,-0.423,-20.568,-1.525,1.464,1
0.17102399999999998,1.0,0.096,-0.432,-22.705,-1.953,0.854,1
0.17938099999999998,1.006,0.096,-0.44,-23.254,-2.929,0.427,1
0.187108,1.01,0.094,-0.443,-22.216,-4.028,0.0,1
0.19391599999999998,1.003,0.09,-0.439,-19.958,-4.943,-0.793,1
0.202622,0.998,0.08,-0.435,-17.15,-6.652,-0.854,1
0.210498,0.999,0.068,-0.424,-13.671,-7.873,-1.342,1
0.217295,1.002,0.057,-0.405,-10.742,-8.789,-1.586,1
0.224514,0.999,0.055,-0.386,-8.544,-9.521,-1.525,1
0.232458,0.992,0.048,-0.378,-7.141,-9.521,-1.647,1
0.240275,0.986,0.047,-0.375,-7.08,-9.521,-1.953,1
0.24763699999999997,0.977,0.041,-0.373,-8.911,-9.338,-1.831,1
0.25536600000000004,0.978,0.041,-0.375,-12.207,-8.972,-2.075,1
0.26339,0.981,0.046,-0.387,-15.991,-8.789,-2.014,1
0.27171300000000004,0.98,0.056,-0.394,-17.089,-8.85,-2.258,1
0.27950200000000003,0.975,0.067,-0.406,-16.662,-8.789,-2.258,1
0.286872,0.971,0.069,-0.411,-14.526,-9.765,-2.624,1
0.293856,0.97,0.07,-0.418,-11.84,-10.742,-2.746,1
0.30218,0.972,0.067,-0.416,-9.338,-11.84,-3.051,1
0.30919,0.976,0.061,-0.413,-6.896,-12.268,-3.234,1
0.317172,0.978,0.058,-0.41,-4.577,-13.061,-3.479,1
0.32432,0.974,0.056,-0.409,-4.455,-13.244,-3.662,1
0.332675,0.965,0.058,-0.409,-6.042,-13.549,-3.845,1
0.340646,0.962,0.06,-0.421,-8.483,-13.427,-3.906,1
0.34751000000000004,0.953,0.077,-0.437,-11.352,-13.61,-4.333,1
0.356681,0.943,0.084,-0.459,-15.38,-13.854,-4.76,1
0.363369,0.932,0.101,-0.497,-19.653,-14.526,-5.432,1
0.372221,0.909,0.117,-0.525,-25.39,-15.319,-6.408,1
0.37923300000000004,0.885,0.122,-0.568,-31.249,-16.54,-7.629,1
0.388587,0.888,0.118,-0.591,-35.217,-18.554,-8.789,1
0.395378,0.892,0.115,-0.608,-34.973,-20.812,-9.765,1
0.404918,0.906,0.108,-0.624,-32.043,-23.925,-10.498,1
0.41147700000000004,0.908,0.1,-0.638,-28.381,-26.611,-11.047,1
0.419445,0.906,0.093,-0.654,-24.841,-29.724,-11.657,1
0.42768100000000003,0.9,0.083,-0.677,-23.559,-32.104,-11.657,1
0.43562100000000004,0.894,0.081,-0.712,-25.878,-34.545,-12.023,1
0.443576,0.885,0.079,-0.756,-32.897,-36.987,-12.451,1
0.450027,0.875,0.083,-0.801,-41.198,-39.184,-12.878,1
0.458249,0.877,0.072,-0.844,-47.546,-42.419,-13.793,1
0.466671,0.869,0.066,-0.872,-50.17,-47.119,-14.343,1
0.474569,0.868,0.06,-0.895,-48.278,-51.696,-14.831,1
0.481225,0.869,0.046,-0.913,-42.297,-57.434,-15.136,1
0.48896900000000004,0.89,0.034,-0.923,-33.386,-63.232,-15.197,1
0.49718,0.914,0.007,-0.929,-24.536,-70.068,-15.197,1
0.504876,0.936,-0.015,-0.937,-21.606,-75.317,-15.136,1
0.513118,1.007,-0.023,-0.95,-22.705,-80.139,-14.587,1
0.5210549999999999,1.062,-0.019,-0.955,-26.123,-84.533,-14.282,1
0.528903,1.133,0.007,-0.957,-28.015,-88.989,-13.854,1
0.5365679999999999,1.227,0.06,-0.919,-24.902,-95.153,-13.488,1
0.544646,1.335,0.143,-0.844,-11.657,-101.989,-13.549,1
0.5513779999999999,1.4,0.237,-0.737,6.591,-108.703,-14.892,1
0.559423,1.454,0.343,-0.604,30.822,-114.074,-18.188,1
0.5677749999999999,1.426,0.4,-0.477,48.034,-118.225,-22.644,1
0.574438,1.501,0.43,-0.338,51.635,-119.506,-28.442,1
0.5825889999999999,1.532,0.41,-0.187,36.254,-117.37,-33.325,1
0.5902799999999999,1.585,0.354,-0.061,0.122,-112.67,-36.071,1
0.5982259999999999,1.626,0.473,0.113,-32.104,-105.834,-39.855,1
0.604811,1.483,0.593,0.23,-44.555,-103.82,-44.372,1
0.612308,1.375,0.673,0.384,-36.315,-100.463,-49.682,1
0.620378,1.313,0.697,0.475,-26.123,-98.449,-55.419,1
0.628401,1.195,0.704,0.605,-20.263,-93.2,-60.791,1
0.6351939999999999,1.12,0.703,0.693,-21.972,-87.219,-66.833,1
0.643671,1.041,0.682,0.798,-27.404,-79.467,-72.387,1
0.650451,0.974,0.658,0.862,-37.17,-70.861,-77.758,1
0.657666,0.895,0.63,0.93,-46.264,-62.622,-82.519,1
0.6657059999999999,0.852,0.582,0.983,-50.476,-54.443,-86.975,1
0.674024,0.8,0.529,1.02,-53.771,-46.325,-90.82,1
0.680855,0.736,0.464,1.034,-57.495,-38.33,-94.116,1
0.6888719999999999,0.677,0.408,1.033,-59.387,-30.761,-96.862,1
0.6965199999999999,0.646,0.352,0.996,-56.945,-24.414,-99.06,1
0.704484,0.605,0.28,0.951,-53.222,-18.859,-100.585,1
0.711015,0.594,0.215,0.892,-47.79,-13.793,-101.745,1
0.7188319999999999,0.565,0.139,0.841,-44.006,-9.643,-102.661,1
0.725695,0.569,0.045,0.787,-37.658,-5.92,-102.722,1
0.734192,0.571,-0.038,0.735,-30.273,-2.502,-102.416,1
0.74135,0.582,-0.129,0.682,-22.277,0.366,-101.562,1
0.750008,0.6,-0.216,0.632,-10.559,2.014,-99.731,1
0.7563949999999999,0.6,-0.3,0.61,3.356,3.967,-97.595,1
0.7633449999999999,0.606,-0.389,0.579,18.31,5.31,-94.909,1
0.771127,0.602,-0.471,0.564,31.127,7.751,-91.491,1
0.7796839999999999,0.572,-0.562,0.53,35.217,10.498,-87.707,1
0.787231,0.646,-0.64,0.503,31.494,14.587,-82.763,1
0.793771,0.668,-0.67,0.442,24.414,18.371,-78.063,1
0.801638,0.549,-0.704,0.395,15.808,19.653,-75.012,1
0.8085209999999999,0.574,-0.699,0.353,1.159,24.047,-70.129,1
0.816623,0.523,-0.671,0.226,-8.972,25.085,-66.284,1
0.824741,0.46,-0.643,0.137,-12.878,25.634,-63.171,1
0.831683,0.385,-0.633,-0.021,-19.897,25.329,-61.279,1
0.840228,0.416,-0.608,-0.134,-27.526,23.01,-59.936,1
0.847329,0.538,-0.569,-0.298,-27.16,19.226,-58.288,1
0.8553769999999999,0.471,-0.568,-0.473,-36.071,14.099,-58.837,1
0.862163,0.323,-0.605,-0.644,-60.729,10.986,-60.363,1
0.87012,0.104,-0.649,-0.772,-97.29,6.591,-62.622,1
0.878535,-0.106,-0.666,-0.854,-136.169,4.333,-63.537,1
0.8866729999999999,-0.339,-0.708,-0.994,-180.114,-0.671,-63.537,1
0.894181,-0.52,-0.761,-1.05,-222.839,-7.507,-62.377,1
0.900979,-0.685,-0.862,-1.106,-260.009,-16.967,-58.898,1
0.9095399999999999,-0.91,-0.968,-1.089,-288.513,-26.306,-52.673,1
0.91618,-0.918,-1.12,-1.127,-307.678,-38.757,-44.982,1
0.924632,-0.932,-1.291,-1.097,-307.678,-52.856,-34.484,1
0.933503,-0.908,-1.466,-1.131,-293.334,-70.922,-17.822,1
0.941723,-0.943,-1.637,-1.131,-275.024,-88.806,-0.671,1
0.948214,-0.997,-1.854,-1.148,-249.267,-108.276,22.827,1
0.9560409999999999,-1.14,-2.007,-1.141,-241.577,-124.877,44.677,1
0.9644109999999999,-1.306,-2.103,-1.076,-217.651,-143.127,67.932,1
0.972378,-1.455,-2.204,-0.97,-176.452,-162.719,92.529,1
0.9801489999999999,-1.547,-2.351,-0.856,-123.84,-182.739,118.286,1
0.986794,-1.751,-2.455,-0.7,-66.711,-201.354,145.324,1
0.995633,-1.93,-2.581,-0.594,-19.226,-220.275,171.813,1
1.003329,-2.226,-2.664,-0.426,-3.173,-237.731,203.796,1
1.0104,-2.526,-2.688,-0.307,-10.498,-250.976,232.666,1
1.018282,-2.916,-2.659,-0.118,-44.616,-259.399,262.634,1
1.02712,-3.265,-2.582,0.028,-94.787,-260.498,295.043,1
1.034884,-3.69,-2.462,0.282,-131.347,-261.169,329.589,1
1.041494,-3.93,-2.405,0.506,-154.968,-255.859,367.736,1
1.0501,-4.351,-2.248,0.711,-147.766,-249.694,412.719,1
1.0586929999999999,-4.686,-2.214,0.881,-140.197,-243.591,452.758,1
1.065192,-5.252,-2.106,1.048,-140.747,-234.13,492.797,1
1.073417,-5.739,-1.964,1.165,-158.264,-221.74,533.02,1
1.08178,-6.452,-1.746,1.305,-181.274,-203.857,572.998,1
1.089898,-7.208,-1.472,1.46,-200.317,-181.091,619.018,1
1.097345,-7.792,-1.3,1.598,-212.524,-157.409,658.264,1
1.106245,-8.643,-1.104,1.751,-231.445,-124.511,703.491,1
1.1131039999999999,-9.37,-0.901,1.865,-257.202,-90.209,741.027,1
1.121237,-10.119,-0.634,1.949,-279.296,-48.645,776.611,1
1.129288,-10.951,-0.32,1.964,-295.227,-3.967,808.837,1
1.136912,-11.972,0.085,1.959,-312.194,46.02,837.951,1
1.143695,-12.908,0.488,1.903,-317.932,98.571,863.281,1
1.150787,-13.713,0.843,1.869,-314.941,151.611,881.591,1
1.158884,-14.345,1.083,1.786,-315.368,209.655,895.446,1
1.168051,-15.14,1.409,1.661,-325.439,276.123,905.517,1
1.174285,-15.603,1.633,1.519,-328.674,337.097,910.156,1
1.18194,-15.999,1.865,1.306,-333.923,391.845,909.545,1
1.190111,-15.999,2.116,1.112,-343.383,439.392,905.029,1
1.1969349999999999,-15.999,2.443,0.892,-369.873,492.675,893.249,1
1.204396,-15.999,2.708,0.741,-395.202,550.293,872.497,1
1.212285,-15.999,3.07,0.463,-403.869,602.844,841.369,1
1.220032,-15.999,3.463,0.315,-395.812,655.151,806.884,1
1.2269269999999999,-15.999,3.798,0.058,-384.948,701.171,762.817,1
1.233841,-15.999,3.59,0.135,-378.112,757.568,734.191,1
1.243318,-15.999,3.585,-0.377,-422.851,802.062,701.171,1
1.250046,-15.999,3.721,-0.414,-531.494,863.891,653.503,1
1.258274,-15.999,3.934,-1.312,-712.89,920.471,579.467,1
1.264781,-15.999,4.25,-1.743,-857.604,963.561,471.618,1
1.272424,-15.999,4.168,-2.385,-945.678,997.009,348.754,1
1.280435,-15.999,4.106,-2.936,-991.516,1004.638,211.425,1
1.288385,-15.999,3.758,-3.585,-995.605,985.9,72.753,1
1.295156,-15.647,3.125,-3.862,-1020.751,940.795,-59.753,1
1.302767,-14.753,2.428,-4.12,-1089.05,891.235,-181.152,1
1.31052,-12.556,2.008,-4.035,-1116.394,805.053,-295.776,1
1.318252,-10.481,1.486,-3.033,-1008.117,720.397,-388.671,1
1.326554,-10.049,1.171,-2.709,-793.945,637.268,-444.946,1
1.334395,-9.225,0.818,-2.375,-466.186,539.001,-478.637,1
1.341069,-8.649,0.261,-2.269,-207.031,489.868,-482.849,1
1.348974,-8.029,-0.41,-2.57,-102.478,453.124,-469.909,1
1.358126,-7.502,-0.839,-2.694,-131.713,424.316,-450.927,1
1.364603,-6.747,-0.934,-2.635,-167.968,396.667,-435.18,1
1.373797,-6.008,-0.987,-2.583,-167.358,365.356,-421.874,1
1.3803969999999999,-5.219,-1.096,-2.543,-154.113,332.702,-407.836,1
1.388877,-4.671,-1.188,-2.509,-141.418,303.771,-392.639,1
1.396504,-4.208,-1.29,-2.507,-149.292,274.902,-375.061,1
1.404124,-3.779,-1.376,-2.463,-188.964,254.028,-360.839,1
1.412137,-3.503,-1.379,-2.417,-230.895,232.482,-348.083,1
1.420308,-3.248,-1.331,-2.324,-249.023,207.275,-335.998,1
1.426599,-2.977,-1.286,-2.215,-232.727,180.725,-324.645,1
1.434039,-2.634,-1.308,-2.104,-204.345,153.686,-312.133,1
1.442051,-2.333,-1.32,-1.967,-171.386,130.859,-298.828,1
1.449562,-2.026,-1.331,-1.85,-147.094,110.168,-284.79,1
1.457816,-1.785,-1.329,-1.743,-129.699,93.017,-270.08,1
1.464577,-1.566,-1.302,-1.635,-114.44,77.026,-255.432,1
1.473748,-1.431,-1.242,-1.551,-98.205,62.683,-240.234,1
1.481782,-1.315,-1.217,-1.508,-75.073,46.813,-224.304,1
1.48843,-1.245,-1.167,-1.437,-56.579,34.851,-210.632,1
1.497356,-1.1,-1.141,-1.42,-47.363,23.559,-198.059,1
1.503618,-1.037,-1.137,-1.377,-51.94,15.624,-185.485,1
1.511951,-0.963,-1.105,-1.338,-64.392,8.544,-173.583,1
1.5191649999999999,-0.878,-1.048,-1.273,-73.852,0.854,-162.231,1
1.527155,-0.765,-0.978,-1.195,-75.195,-5.004,-151.794,1
1.53605,-0.667,-0.897,-1.125,-69.824,-11.901,-141.357,1
1.542643,-0.545,-0.852,-1.079,-57.25,-19.104,-130.187,1
1.551463,-0.481,-0.794,-1.04,-44.433,-25.512,-120.727,1
1.558286,-0.392,-0.731,-0.986,-25.024,-31.982,-111.511,1
1.5663,-0.326,-0.68,-0.946,-4.028,-38.024,-103.515,1
1.574154,-0.254,-0.648,-0.91,15.136,-43.212,-95.947,1
1.580944,-0.164,-0.638,-0.88,27.832,-46.63,-88.378,1
1.589292,-0.084,-0.616,-0.835,29.907,-50.109,-80.444,1
1.595807,-0.058,-0.58,-0.791,24.719,-51.757,-73.059,1
1.6047259999999999,-0.004,-0.547,-0.748,17.272,-52.612,-66.284,1
1.611111,0.056,-0.517,-0.705,6.958,-52.978,-59.509,1
1.620401,0.158,-0.511,-0.667,-7.324,-52.551,-52.001,1
1.627278,0.229,-0.457,-0.625,-24.047,-51.879,-43.334,1
1.634797,0.265,-0.409,-0.58,-31.86,-51.757,-35.888,1
1.6428829999999999,0.311,-0.365,-0.542,-30.944,-52.001,-28.686,1
1.650407,0.378,-0.329,-0.51,-24.78,-53.1,-21.667,1
1.659594,0.404,-0.274,-0.478,-12.268,-54.016,-15.197,1
1.66628,0.469,-0.255,-0.459,6.042,-55.114,-7.324,1
1.674475,0.507,-0.225,-0.45,22.399,-55.786,-1.098,1
1.682405,0.497,-0.166,-0.453,39.123,-56.701,4.211,1
1.689166,0.46,-0.124,-0.452,55.908,-58.105,8.483,1
1.697598,0.47,-0.093,-0.448,67.749,-58.959,12.634,1
1.704223,0.472,-0.074,-0.441,70.434,-58.654,15.747,1
1.712556,0.451,-0.053,-0.448,63.354,-57.922,18.981,1
1.720447,0.428,-0.021,-0.443,50.109,-56.823,21.667,1
1.7270379999999999,0.444,0.0,-0.436,32.836,-55.603,23.315,1
1.73506,0.473,0.02,-0.411,16.479,-54.26,24.78,1
1.743634,0.517,0.045,-0.387,5.493,-53.039,26.306,1
1.75021,0.534,0.09,-0.351,-0.854,-51.879,28.625,1
1.7585739999999999,0.582,0.131,-0.336,-0.122,-51.635,30.334,1
1.766572,0.589,0.186,-0.321,6.713,-51.452,32.409,1
1.772862,0.641,0.235,-0.315,17.761,-52.124,33.569,1
1.781191,0.662,0.262,-0.301,30.395,-52.917,34.545,1
1.787749,0.664,0.299,-0.298,42.907,-53.894,35.278,1
1.795458,0.665,0.33,-0.289,53.466,-54.443,35.522,1
1.802243,0.668,0.359,-0.289,57.678,-54.26,35.583,1
1.810689,0.665,0.38,-0.286,56.274,-53.894,35.217,1
1.817246,0.652,0.389,-0.285,49.682,-53.039,34.667,1
1.8244,0.631,0.404,-0.252,41.137,-51.513,33.813,1
1.832252,0.672,0.413,-0.236,32.653,-49.194,33.142,1
1.8408849999999999,0.712,0.395,-0.213,20.69,-47.973,32.653,1
1.8474519999999999,0.749,0.384,-0.193,6.713,-44.86,32.653,1
1.855217,0.762,0.386,-0.182,-8.605,-43.151,32.775,1
1.863297,0.747,0.404,-0.16,-19.165,-41.32,33.386,1
1.8712149999999999,0.752,0.46,-0.141,-18.188,-40.649,34.423,1
1.8792929999999999,0.779,0.496,-0.133,-7.324,-40.649,34.912,1
1.887531,0.807,0.52,-0.117,6.53,-41.381,35.583,1
1.895739,0.837,0.538,-0.136,16.052,-41.259,36.682,1
1.9022,0.822,0.55,-0.14,15.93,-40.527,37.17,1
1.910432,0.819,0.573,-0.157,7.446,-39.245,37.414,1
1.916927,0.814,0.598,-0.162,-5.065,-37.048,36.56,1
1.925394,0.806,0.629,-0.156,-15.136,-34.973,35.949,1
1.932014,0.807,0.656,-0.157,-18.432,-33.874,34.973,1
1.940396,0.808,0.678,-0.158,-15.808,-33.02,33.447,1
1.946926,0.806,0.684,-0.168,-12.39,-32.348,31.86,1
1.954608,0.771,0.687,-0.174,-11.352,-31.738,29.724,1
1.961565,0.791,0.694,-0.189,-13.732,-31.188,28.564,1
1.969686,0.821,0.715,-0.203,-17.578,-30.09,27.343,1
1.9765249999999999,0.835,0.747,-0.22,-20.69,-29.541,26.062,1
1.984421,0.835,0.767,-0.228,-21.423,-28.991,24.963,1
1.992648,0.852,0.804,-0.249,-23.376,-28.381,24.047,1
1.9994070000000002,0.866,0.849,-0.271,-30.456,-27.77,22.644,1
2.007646,0.878,0.914,-0.313,-47.18,-26.428,21.057,1
2.014411,0.866,1.002,-0.354,-76.049,-24.414,18.127,1
2.021077,0.835,1.102,-0.413,-112.06,-22.46,14.648,1
2.029327,0.841,1.218,-0.454,-141.357,-21.789,10.681,1
2.03762,0.855,1.326,-0.488,-151.794,-23.681,5.92,1
2.044197,0.888,1.401,-0.514,-140.869,-27.16,1.403,1
2.052067,0.964,1.466,-0.572,-114.746,-31.799,-2.929,1
2.060355,0.994,1.468,-0.642,-91.857,-37.963,-8.3,1
2.068558,0.97,1.422,-0.644,-81.42,-41.748,-13.183,1
2.075021,1.001,1.363,-0.687,-87.097,-44.921,-17.944,1
2.083329,1.023,1.311,-0.676,-100.402,-47.241,-22.644,1
2.091152,1.068,1.268,-0.71,-115.844,-48.767,-26.855,1
2.099587,1.08,1.212,-0.71,-132.568,-51.391,-32.043,1
2.107865,1.104,1.169,-0.72,-140.747,-53.039,-35.949,1
2.115966,1.1,1.109,-0.712,-145.996,-56.03,-39.978,1
2.122287,1.11,1.03,-0.702,-149.23,-57.983,-43.823,1
2.130297,1.111,0.969,-0.689,-155.151,-60.241,-47.302,1
2.138487,0.992,0.932,-0.651,-159.057,-62.744,-50.109,1
2.1466439999999998,0.916,0.908,-0.586,-153.32,-65.612,-53.039,1
2.153933,0.86,0.857,-0.531,-138.183,-69.641,-55.541,1
2.162124,0.813,0.767,-0.456,-119.323,-74.035,-58.105,1
2.170175,0.741,0.685,-0.361,-101.257,-77.453,-59.692,1
2.177154,0.742,0.588,-0.377,-95.458,-80.017,-61.34,1
2.184788,0.667,0.506,-0.311,-98.999,-79.345,-62.499,1
2.191728,0.717,0.403,-0.301,-109.924,-79.956,-63.049,1
2.200115,0.724,0.353,-0.232,-118.713,-77.819,-62.744,1
2.20843,0.738,0.288,-0.243,-127.075,-77.392,-62.011,1
2.215993,0.763,0.248,-0.191,-133.422,-75.866,-61.218,1
2.22374,0.824,0.217,-0.189,-133.056,-75.683,-59.448,1
2.230607,0.842,0.194,-0.159,-126.281,-76.477,-57.556,1
2.2381539999999998,0.865,0.154,-0.163,-118.896,-77.758,-55.603,1
2.246289,0.808,0.127,-0.114,-110.656,-78.43,-53.1,1
2.254264,0.824,0.083,-0.112,-102.355,-78.674,-50.964,1
2.261951,0.635,0.065,-0.088,-99.487,-78.735,-48.156,1
2.2689369999999998,0.467,0.17,-0.066,-91.43,-78.247,-46.02,1
2.277123,0.515,0.17,-0.05,-71.716,-77.331,-45.593,1
2.284547,0.237,0.179,-0.057,-48.217,-76.66,-45.959,1
2.293074,0.395,0.158,-0.024,-26.123,-75.439,-45.349,1
2.300555,0.57,0.09,-0.06,-5.798,-74.401,-42.175,1
2.308688,0.813,-0.015,-0.103,-3.173,-74.401,-36.865,1
2.317058,0.994,-0.028,-0.098,-6.53,-72.021,-33.081,1
2.323841,1.183,-0.046,-0.071,-6.347,-69.824,-30.212,1
2.332122,1.176,-0.044,-0.076,-2.319,-69.824,-28.015,1
2.3405,1.052,-0.036,-0.052,6.347,-69.763,-26.306,1
2.3473829999999998,0.986,-0.042,-0.064,13.305,-70.129,-24.902,1
2.354928,0.841,-0.07,-0.042,10.559,-69.335,-22.583,1
2.361868,0.816,-0.09,-0.055,-3.601,-66.589,-18.798,1
2.36944,0.847,-0.083,-0.061,-28.808,-64.514,-15.869,1
2.377996,0.866,-0.063,-0.068,-60.729,-62.805,-14.587,1
2.38568,0.845,-0.027,-0.073,-92.59,-62.194,-14.343,1
2.393681,0.812,0.018,-0.044,-115.844,-62.561,-13.916,1
2.4005229999999997,0.763,0.049,0.003,-125.488,-63.476,-12.817,1
2.408735,0.756,0.067,0.039,-119.75,-63.903,-11.535,1
2.416127,0.706,0.094,0.049,-106.506,-64.941,-10.498,1
2.42453,0.694,0.096,0.044,-91.125,-66.101,-9.826,1
2.431126,0.714,0.093,0.046,-76.599,-67.626,-9.277,1
2.439389,0.743,0.08,0.055,-64.88,-68.237,-8.85,1
2.445961,0.768,0.056,0.073,-58.349,-68.786,-8.178,1
2.453126,0.785,0.049,0.095,-54.382,-68.603,-7.141,1
2.461272,0.804,0.043,0.114,-55.114,-67.81,-5.92,1
2.468912,0.818,0.029,0.135,-60.424,-65.979,-4.455,1
2.475798,0.838,0.015,0.143,-70.8,-63.903,-2.868,1
2.482647,0.854,0.014,0.159,-83.435,-61.767,-1.037,1
2.490874,0.874,0.032,0.167,-92.285,-59.997,0.976,1
2.49769,0.866,0.068,0.175,-94.238,-59.631,2.746,1
2.505954,0.849,0.102,0.167,-92.712,-59.509,5.187,1
2.512647,0.828,0.131,0.138,-93.078,-59.448,6.896,1
2.520225,0.827,0.155,0.111,-96.74,-58.959,8.544,1
2.528994,0.952,0.188,0.081,-101.318,-57.922,10.07,1
2.535239,1.02,0.225,0.071,-99.914,-57.983,11.23,1
2.543617,1.038,0.278,0.083,-90.637,-59.204,12.451,1
2.55064,1.059,0.343,0.077,-72.204,-61.157,12.145,1
2.558996,1.201,0.362,0.08,-56.518,-63.659,9.887,1
2.565351,1.114,0.373,0.076,-52.551,-64.758,7.019,1
2.573556,1.02,0.392,0.05,-59.814,-65.49,4.943,1
2.580442,1.01,0.406,0.018,-73.242,-66.467,2.868,1
2.587308,0.991,0.423,-0.006,-84.655,-67.626,1.22,1
2.5967919999999998,1.111,0.412,-0.03,-91.247,-67.932,0.976,1
2.604378,1.215,0.39,-0.05,-101.196,-70.434,2.014,1
2.612599,1.306,0.405,-0.028,-103.698,-72.814,3.479,1
2.620858,1.315,0.443,0.058,-98.144,-75.805,5.249,1
2.627159,1.259,0.482,0.131,-87.036,-77.88,6.591,1
2.635419,1.181,0.49,0.216,-78.613,-78.979,7.446,1
2.642169,1.103,0.482,0.282,-79.956,-78.247,8.056,1
2.6507009999999998,1.084,0.491,0.355,-88.928,-77.453,8.544,1
2.657125,1.068,0.525,0.435,-95.031,-74.829,9.765,1
2.665448,0.993,0.578,0.488,-97.595,-72.937,9.765,1
2.672602,0.914,0.613,0.514,-98.022,-69.763,8.605,1
2.679995,0.837,0.628,0.516,-103.088,-66.833,7.019,1
2.687425,0.789,0.642,0.511,-111.511,-62.255,4.394,1
2.695388,0.747,0.652,0.486,-120.91,-58.654,1.77,1
2.703357,0.72,0.66,0.459,-129.272,-54.138,-0.976,1
2.710036,0.708,0.661,0.419,-137.084,-51.94,-4.455,1
2.717637,0.7,0.66,0.401,-139.16,-49.56,-7.934,1
2.725918,0.718,0.642,0.381,-138.549,-48.461,-10.803,1
2.733463,0.732,0.619,0.375,-137.695,-46.874,-14.77,1
2.740094,0.761,0.604,0.37,-132.69,-45.593,-18.493,1
2.748625,0.798,0.573,0.369,-121.032,-45.104,-21.667,1
2.755426,0.832,0.541,0.364,-108.581,-44.982,-24.78,1
2.762292,0.871,0.518,0.354,-97.717,-44.25,-26.977,1
2.769894,0.92,0.508,0.345,-89.111,-43.395,-29.052,1
2.777708,0.951,0.509,0.329,-83.129,-41.87,-30.456,1
2.786235,1.0,0.524,0.295,-81.237,-40.1,-31.555,1
2.793424,1.014,0.571,0.261,-80.627,-37.78,-32.836,1
2.801098,1.034,0.655,0.225,-77.575,-36.865,-34.912,1
2.807872,1.048,0.777,0.209,-65.979,-35.949,-37.414,1
