timestamp_s,ax,ay,az,gx,gy,gz,label
0.0,-0.452,1.06,0.442,29.541,4.211,1.953,1
0.007270999999999805,-0.464,1.022,0.401,32.653,4.943,1.464,1
0.014661999999999953,-0.457,0.989,0.375,25.878,7.263,0.976,1
0.02288699999999988,-0.426,0.968,0.336,16.235,9.399,0.488,1
0.029891999999999808,-0.427,0.949,0.291,6.164,10.559,-0.244,1
0.03877599999999992,-0.417,0.931,0.273,-4.577,11.962,-0.915,1
0.046424999999999716,-0.38,0.908,0.224,-11.779,13.244,-1.525,1
0.056165999999999716,-0.382,0.891,0.18,-15.563,13.549,-1.831,1
0.06396299999999977,-0.351,0.876,0.151,-13.122,12.329,-2.441,1
0.07333400000000001,-0.39,0.854,0.106,-5.371,11.596,-2.807,1
0.08206399999999991,-0.434,0.833,0.099,1.464,9.826,-2.929,1
0.08887299999999998,-0.435,0.803,0.086,9.216,9.216,-2.563,1
0.0968469999999999,-0.396,0.75,0.073,10.925,8.85,-2.38,1
0.10583300000000007,-0.471,0.75,0.085,16.845,8.361,-1.647,1
0.11289199999999999,-0.472,0.716,0.053,25.146,7.995,-0.366,1
0.12246999999999986,-0.497,0.687,0.045,28.015,6.958,0.61,1
0.13021899999999986,-0.487,0.652,0.022,24.719,7.446,2.38,1
0.13897499999999985,-0.487,0.65,0.024,23.62,7.568,4.211,1
0.14685300000000012,-0.567,0.645,-0.003,23.01,6.774,5.371,1
0.15382099999999976,-0.614,0.612,0.012,18.005,6.896,7.263,1
0.16101600000000005,-0.568,0.594,0.017,7.751,7.69,8.544,1
0.1700219999999999,-0.606,0.633,0.001,-3.051,8.911,10.314,1
0.17727000000000004,-0.627,0.654,-0.005,-15.869,8.972,11.657,1
0.1867350000000001,-0.615,0.694,0.008,-24.902,9.033,13.183,1
0.194963,-0.625,0.754,0.012,-26.367,8.178,13.916,1
0.2025380000000001,-0.62,0.802,0.0,-18.981,6.408,14.77,1
0.2108749999999997,-0.61,0.844,-0.009,-10.986,3.662,14.831,1
0.21818800000000005,-0.596,0.858,-0.002,-5.554,2.258,14.526,1
0.22562499999999996,-0.573,0.878,0.0,-2.685,0.488,13.854,1
0.23409000000000013,-0.562,0.858,-0.003,-7.324,-1.037,13.061,1
0.2429129999999997,-0.667,0.915,0.027,-8.605,-0.244,11.901,1
0.25126599999999977,-0.632,0.928,0.012,-10.009,-1.098,10.131,1
0.25830699999999984,-0.588,0.927,0.034,-20.324,0.183,8.666,1
0.26721700000000004,-0.583,0.961,0.036,-31.494,1.342,7.507,1
0.2739499999999997,-0.568,1.023,0.059,-37.597,2.136,6.469,1
0.28178400000000003,-0.537,1.087,0.062,-39.306,2.99,5.981,1
0.2905319999999998,-0.542,1.171,0.054,-37.719,3.356,4.943,1
0.29849799999999993,-0.543,1.262,0.045,-33.081,2.502,2.99,1
0.30660299999999996,-0.556,1.356,0.041,-25.634,1.831,0.549,1
0.3142839999999998,-0.563,1.42,0.031,-18.188,0.976,-2.502,1
0.32327499999999976,-0.561,1.465,0.024,-14.221,1.037,-6.347,1
0.3325929999999997,-0.57,1.5,0.009,-16.174,1.892,-10.803,1
0.3401449999999997,-0.583,1.538,-0.002,-20.935,2.929,-14.648,1
0.3479969999999999,-0.601,1.583,-0.023,-29.174,4.516,-19.104,1
0.35623000000000005,-0.604,1.625,-0.043,-38.696,6.042,-23.437,1
0.36437699999999973,-0.596,1.7,-0.069,-48.706,7.568,-28.076,1
0.37196099999999976,-0.597,1.769,-0.1,-53.283,8.239,-33.142,1
0.37987899999999986,-0.587,1.812,-0.126,-54.443,8.361,-38.513,1
0.38758599999999976,-0.572,1.839,-0.165,-53.1,8.361,-44.006,1
0.39642199999999983,-0.583,1.85,-0.194,-49.621,8.239,-51.147,1
0.4057909999999998,-0.586,1.831,-0.226,-47.058,8.3,-57.495,1
0.4136739999999999,-0.594,1.791,-0.259,-49.56,8.178,-64.208,1
0.4241159999999997,-0.598,1.756,-0.288,-53.588,8.605,-69.824,1
0.4312079999999998,-0.596,1.688,-0.324,-62.011,8.605,-77.026,1
0.4396749999999998,-0.604,1.632,-0.348,-70.312,8.666,-82.214,1
0.4484189999999999,-0.609,1.561,-0.371,-80.078,7.507,-87.89,1
0.457306,-0.631,1.487,-0.392,-88.195,5.859,-92.895,1
0.4676610000000001,-0.651,1.42,-0.411,-95.275,3.051,-97.534,1
0.475749,-0.67,1.35,-0.42,-102.172,-0.122,-101.013,1
0.4842010000000001,-0.687,1.291,-0.437,-108.581,-3.906,-103.82,1
0.49334000000000033,-0.709,1.256,-0.433,-113.464,-8.239,-106.079,1
0.5013679999999998,-0.724,1.228,-0.432,-114.135,-12.329,-107.299,1
0.5106429999999995,-0.736,1.192,-0.427,-111.572,-17.517,-108.093,1
0.5194889999999996,-0.726,1.174,-0.424,-104.919,-22.705,-107.971,1
0.5270939999999995,-0.721,1.166,-0.426,-95.092,-27.954,-107.849,1
0.5352390000000002,-0.706,1.152,-0.436,-85.998,-32.348,-107.666,1
0.5434009999999998,-0.719,1.14,-0.454,-83.251,-35.278,-107.36,1
0.5521809999999996,-0.718,1.157,-0.475,-85.632,-37.353,-107.482,1
0.5604780000000003,-0.723,1.184,-0.508,-94.482,-39.245,-107.421,1
0.5691929999999998,-0.745,1.245,-0.55,-104.431,-41.015,-107.788,1
0.5783109999999998,-0.74,1.314,-0.579,-115.478,-43.701,-108.398,1
0.5856350000000003,-0.741,1.371,-0.601,-120.91,-45.959,-109.13,1
0.5937009999999998,-0.725,1.451,-0.613,-120.971,-49.011,-110.29,1
0.6023700000000001,-0.721,1.511,-0.645,-117.126,-52.795,-111.328,1
0.6113379999999995,-0.736,1.542,-0.683,-116.943,-56.945,-113.159,1
0.6185930000000002,-0.757,1.558,-0.694,-122.68,-59.509,-115.173,1
0.6275359999999996,-0.79,1.582,-0.712,-132.263,-62.255,-117.126,1
0.6352359999999995,-0.787,1.592,-0.71,-146.179,-65.124,-119.262,1
0.6447679999999996,-0.783,1.623,-0.719,-155.639,-67.321,-121.032,1
0.6540250000000003,-0.794,1.65,-0.732,-165.1,-71.166,-122.863,1
0.6615959999999999,-0.795,1.661,-0.751,-177.307,-73.73,-125.122,1
0.6699610000000003,-0.77,1.676,-0.774,-191.772,-76.293,-127.075,1
0.6778409999999995,-0.73,1.701,-0.815,-200.073,-79.833,-129.089,1
0.6866379999999999,-0.76,1.722,-0.836,-197.937,-83.923,-130.92,1
0.6959740000000001,-0.726,1.691,-0.844,-191.467,-89.111,-132.812,1
0.7031319999999996,-0.722,1.649,-0.848,-184.204,-93.811,-133.972,1
0.7121549999999996,-0.707,1.61,-0.831,-179.931,-98.999,-135.681,1
0.7199259999999996,-0.712,1.549,-0.812,-182.434,-102.294,-136.413,1
0.7284729999999997,-0.693,1.489,-0.772,-191.223,-105.59,-136.352,1
0.7364599999999997,-0.673,1.423,-0.758,-203.796,-108.215,-135.742,1
0.7442949999999997,-0.641,1.374,-0.745,-213.562,-110.717,-134.704,1
0.7529439999999998,-0.626,1.307,-0.745,-223.999,-114.135,-133.239,1
0.7620390000000001,-0.608,1.251,-0.726,-228.393,-116.394,-131.713,1
0.7695259999999995,-0.604,1.202,-0.717,-226.806,-120.727,-129.455,1
0.7775399999999997,-0.592,1.148,-0.696,-219.787,-124.511,-127.502,1
0.7870870000000001,-0.561,1.081,-0.67,-205.627,-128.723,-125.305,1
0.7953899999999998,-0.562,1.006,-0.645,-187.316,-132.995,-123.229,1
0.8041209999999999,-0.529,0.949,-0.612,-168.151,-136.535,-121.887,1
0.8133839999999997,-0.5,0.892,-0.609,-155.273,-139.16,-120.483,1
0.8206099999999998,-0.453,0.829,-0.592,-144.653,-141.54,-119.201,1
0.8279559999999999,-0.397,0.791,-0.598,-137.329,-143.249,-117.736,1
0.8372519999999999,-0.32,0.756,-0.619,-130.676,-145.874,-116.149,1
0.8456619999999995,-0.25,0.74,-0.619,-123.107,-148.01,-114.379,1
0.8525649999999998,-0.197,0.738,-0.647,-113.952,-152.099,-112.121,1
0.8600189999999999,-0.185,0.731,-0.652,-109.252,-154.724,-109.741,1
0.8695419999999996,-0.183,0.714,-0.665,-114.562,-157.043,-107.604,1
0.8761829999999997,-0.206,0.709,-0.666,-133.911,-158.203,-103.942,1
0.886924,-0.209,0.717,-0.678,-157.226,-158.691,-100.891,1
0.8954539999999995,-0.233,0.748,-0.674,-182.983,-159.79,-96.496,1
0.9035170000000003,-0.227,0.77,-0.673,-199.768,-161.01,-91.979,1
0.9112759999999995,-0.198,0.783,-0.677,-206.176,-162.902,-87.707,1
0.92055,-0.208,0.8,-0.67,-198.547,-165.527,-83.435,1
0.9280829999999995,-0.202,0.825,-0.66,-178.955,-169.189,-79.345,1
0.9353450000000003,-0.169,0.873,-0.641,-155.456,-171.997,-77.026,1
0.9440509999999995,-0.181,0.892,-0.607,-138.061,-175.781,-75.439,1
0.9531309999999995,-0.156,0.908,-0.563,-127.441,-175.842,-74.34,1
0.9612229999999999,-0.155,0.907,-0.539,-132.141,-177.429,-73.12,1
0.9691119999999995,-0.124,0.918,-0.479,-145.08,-176.086,-71.228,1
0.9799260000000003,-0.104,0.937,-0.436,-159.667,-176.025,-69.58,1
0.987752,-0.109,0.942,-0.374,-169.921,-176.33,-68.115,1
0.9969699999999997,-0.113,0.922,-0.305,-174.255,-178.344,-66.162,1
1.0054019999999997,-0.103,0.881,-0.235,-172.058,-180.236,-63.842,1
1.012833,-0.096,0.839,-0.166,-165.588,-182.189,-61.584,1
1.0214050000000001,-0.119,0.806,-0.104,-155.395,-183.715,-60.485,1
1.0311989999999995,-0.203,0.774,0.024,-144.958,-184.936,-59.57,1
1.038681,-0.142,0.703,0.056,-129.943,-186.157,-60.18,1
1.0469180000000002,-0.068,0.665,0.242,-109.985,-187.255,-61.584,1
1.0538639999999995,0.014,0.525,0.347,-76.171,-186.645,-62.744,1
1.0634789999999996,0.188,0.401,0.541,-47.729,-184.631,-63.72,1
1.0723860000000003,0.315,0.206,0.645,-25.329,-179.138,-64.025,1
1.079494,0.447,0.069,0.765,-7.141,-172.607,-63.354,1
1.0893900000000003,0.58,-0.033,0.83,16.723,-166.503,-63.537,1
1.0987829999999996,0.66,-0.162,0.921,32.592,-156.555,-63.11,1
1.1061640000000001,0.671,-0.29,0.892,19.714,-146.423,-61.889,1
1.116889,0.72,-0.39,0.952,-0.122,-137.512,-59.814,1
1.1255450000000002,0.697,-0.468,0.991,-31.311,-125.488,-56.823,1
1.1340859999999995,0.695,-0.506,1.019,-67.077,-115.173,-52.49,1
1.1412020000000003,0.66,-0.519,0.999,-111.267,-101.928,-46.752,1
1.150427,0.518,-0.426,0.987,-126.525,-94.421,-43.579,1
1.1575229999999999,0.352,-0.367,0.957,-132.568,-90.454,-41.931,1
1.1667390000000002,0.279,-0.316,0.969,-133.911,-82.458,-41.137,1
1.1738180000000003,0.298,-0.286,0.896,-144.897,-76.538,-41.442,1
1.1822599999999999,0.283,-0.206,0.791,-163.818,-69.274,-41.87,1
1.1905430000000004,0.31,-0.109,0.7,-171.447,-66.772,-42.602,1
1.1996610000000003,0.326,-0.031,0.62,-165.161,-63.537,-42.785,1
1.2072410000000002,0.28,0.036,0.492,-159.79,-64.27,-43.395,1
1.2159559999999998,0.147,0.117,0.379,-163.024,-63.842,-45.043,1
1.2242029999999997,0.042,0.157,0.262,-172.607,-65.429,-46.813,1
1.2330349999999997,-0.106,0.18,0.166,-184.997,-66.101,-48.645,1
1.2408930000000002,-0.271,0.185,0.073,-201.049,-68.786,-50.415,1
1.248624,-0.442,0.173,-0.001,-210.876,-72.143,-51.696,1
1.2568290000000002,-0.563,0.135,-0.067,-206.787,-79.223,-51.696,1
1.2664719999999998,-0.622,0.066,-0.097,-188.72,-86.425,-51.025,1
1.2749479999999997,-0.645,-0.039,-0.132,-161.926,-95.703,-48.828,1
1.2829589999999995,-0.641,-0.201,-0.169,-146.789,-104.37,-45.532,1
1.2933980000000003,-0.691,-0.362,-0.177,-151.611,-111.145,-40.1,1
1.3024939999999998,-0.828,-0.468,-0.146,-163.269,-117.37,-33.264,1
1.3099529999999997,-0.983,-0.359,-0.105,-120.178,-124.938,-31.066,1
1.319213,-1.135,-0.678,-0.083,-84.289,-141.662,-22.766,1
1.327905,-1.275,-0.853,-0.086,-75.805,-146.423,-14.099,1
1.3364829999999999,-1.4,-1.062,-0.038,-96.191,-154.174,-4.15,1
1.345425,-1.568,-1.274,0.006,-119.995,-154.663,8.911,1
1.352217,-1.734,-1.425,0.105,-140.808,-159.362,25.512,1
1.3626109999999998,-1.839,-1.539,0.152,-134.277,-162.048,45.837,1
1.3697529999999998,-2.011,-1.766,0.184,-119.75,-168.518,69.03,1
1.3790720000000003,-2.137,-1.941,0.248,-104.37,-172.363,92.102,1
1.385824,-2.373,-2.066,0.328,-83.068,-180.786,121.215,1
1.3941620000000001,-2.527,-2.208,0.395,-40.954,-185.363,146.423,1
1.402364,-2.838,-2.354,0.468,2.685,-196.777,177.917,1
1.4108639999999997,-3.143,-2.504,0.586,37.414,-203.552,206.237,1
1.4173310000000003,-3.458,-2.701,0.686,33.203,-209.167,237.487,1
1.426136,-3.825,-2.861,0.8,16.967,-209.472,271.362,1
1.4355319999999998,-4.502,-2.942,0.955,-38.574,-208.19,313.842,1
1.4433729999999998,-5.098,-2.976,1.223,-125.366,-195.129,361.022,1
1.452506,-5.746,-3.024,1.546,-192.138,-178.344,407.043,1
1.459419,-6.311,-3.002,1.88,-245.422,-148.742,466.491,1
1.467737,-6.862,-3.002,2.165,-274.658,-117.248,520.202,1
1.476708,-7.56,-2.882,2.48,-294.189,-68.847,586.975,1
1.483933,-8.347,-2.742,2.659,-296.386,-23.254,645.751,1
1.4925159999999997,-9.5,-2.493,2.831,-298.584,41.809,715.759,1
1.5011680000000003,-11.058,-2.172,2.839,-330.871,113.403,782.531,1
1.5101919999999995,-12.595,-1.679,2.822,-356.628,185.913,835.937,1
1.5176640000000003,-14.595,-0.958,2.628,-361.328,259.094,882.141,1
1.524638,-15.999,-0.366,2.307,-352.233,348.022,928.1,1
1.533541,-15.999,0.162,1.853,-357.238,423.034,958.679,1
1.54231,-15.999,0.719,1.232,-379.089,512.268,984.741,1
1.5494999999999997,-15.999,1.201,0.766,-398.864,590.271,999.816,1
1.5576000000000003,-15.999,1.794,0.178,-416.442,665.832,1006.103,1
1.565306,-15.999,2.266,-0.102,-408.264,740.722,1001.586,1
1.5734349999999995,-15.999,2.644,-0.682,-382.69,808.471,986.877,1
1.5814559999999998,-15.999,2.983,-0.869,-374.877,865.539,966.308,1
1.589604,-15.999,3.317,-1.244,-357.543,918.701,937.438,1
1.5975559999999995,-15.999,3.629,-1.615,-345.458,963.378,897.644,1
1.6054669999999995,-15.999,3.732,-1.575,-364.135,1006.774,859.252,1
1.6137099999999998,-15.999,3.836,-1.443,-361.328,1065.063,826.171,1
1.6224139999999996,-15.999,4.277,-1.87,-308.044,1106.445,789.245,1
1.6293909999999996,-15.999,4.573,-2.412,-267.883,1112.976,735.473,1
1.639885,-15.999,4.286,-3.081,-360.778,1115.356,669.86,1
1.6471430000000002,-15.999,4.065,-4.044,-619.323,1128.356,565.612,1
1.6560079999999995,-15.999,3.558,-4.593,-946.594,1150.024,407.714,1
1.66506,-15.999,2.398,-5.461,-1343.017,1192.749,206.176,1
1.672666,-15.999,2.125,-5.267,-1619.079,1175.537,-6.164,1
1.6804320000000001,-15.999,1.843,-4.397,-1570.19,1094.665,-247.436,1
1.6903019999999995,-15.999,1.332,-3.478,-1319.03,979.309,-409.362,1
1.697435,-15.999,0.665,-2.907,-958.862,845.275,-526.245,1
1.707747,-15.346,0.041,-3.068,-646.545,716.003,-586.181,1
1.7143609999999998,-13.897,-1.1,-3.358,-516.601,619.506,-610.046,1
1.7237050000000003,-12.379,-1.783,-3.525,-573.608,540.954,-617.309,1
1.733088,-10.597,-1.933,-3.079,-648.742,438.11,-620.544,1
1.7416399999999999,-9.247,-1.826,-2.416,-603.027,346.008,-615.722,1
1.7504149999999998,-7.848,-1.781,-1.966,-500.122,276.184,-600.036,1
1.7596139999999996,-7.141,-1.749,-1.713,-348.815,200.927,-573.059,1
1.7667100000000002,-6.451,-1.751,-1.579,-219.726,146.24,-538.574,1
1.7755829999999997,-5.959,-1.726,-1.439,-156.921,109.252,-510.62,1
1.783343,-5.43,-1.715,-1.249,-142.028,85.693,-482.91,1
1.7922109999999996,-4.664,-1.675,-1.036,-160.278,55.969,-449.768,1
1.801364,-4.501,-1.552,-0.805,-163.635,41.503,-424.438,1
1.8095700000000003,-3.637,-1.469,-0.725,-148.925,19.47,-397.338,1
1.8173030000000003,-3.381,-1.345,-0.556,-123.657,4.943,-370.483,1
1.8261030000000003,-3.182,-1.257,-0.55,-95.764,-10.07,-349.365,1
1.8342579999999997,-2.977,-1.178,-0.455,-64.392,-22.094,-327.575,1
1.8433350000000002,-2.838,-1.149,-0.443,-37.597,-33.142,-307.495,1
1.8523529999999995,-2.633,-1.111,-0.373,-17.272,-41.137,-289.306,1
1.8618330000000003,-2.419,-1.023,-0.314,15.075,-47.729,-272.827,1
1.8691869999999997,-2.228,-1.125,-0.306,30.639,-50.415,-257.446,1
1.878619,-1.943,-1.168,-0.3,17.761,-47.363,-244.018,1
1.8858520000000003,-1.782,-1.209,-0.269,-16.418,-44.86,-230.224,1
1.8950900000000002,-1.573,-1.173,-0.209,-48.889,-39.062,-215.576,1
1.9035670000000002,-1.395,-1.164,-0.17,-66.162,-36.865,-201.538,1
1.9113149999999997,-1.204,-1.179,-0.125,-73.181,-34.484,-189.208,1
1.9198739999999996,-0.995,-1.177,-0.105,-66.345,-33.752,-174.682,1
1.928258,-0.878,-1.196,-0.088,-52.917,-32.714,-160.339,1
1.9372890000000003,-0.797,-1.211,-0.117,-45.654,-32.165,-148.315,1
1.9455079999999998,-0.738,-1.226,-0.141,-46.203,-30.273,-133.972,1
1.9531249999999996,-0.687,-1.223,-0.185,-50.781,-28.625,-120.422,1
1.9614319999999998,-0.608,-1.212,-0.199,-56.396,-26.245,-109.374,1
1.9705840000000001,-0.561,-1.167,-0.243,-64.331,-23.01,-99.304,1
1.979321,-0.517,-1.122,-0.282,-70.861,-20.446,-87.829,1
1.9863180000000003,-0.36,-1.118,-0.317,-75.5,-18.188,-77.209,1
1.9959149999999997,-0.27,-1.116,-0.323,-78.735,-15.808,-67.993,1
2.004133,-0.175,-1.103,-0.341,-82.702,-13.122,-58.227,1
2.01155,-0.086,-1.088,-0.345,-84.167,-10.681,-47.973,1
2.0204280000000003,-0.014,-1.048,-0.356,-78.918,-9.765,-40.1,1
2.0292239999999997,0.028,-1.023,-0.344,-68.664,-9.948,-32.165,1
2.0359890000000003,0.064,-1.014,-0.347,-63.598,-8.728,-23.559,1
2.045181,0.127,-0.988,-0.329,-67.504,-7.019,-15.502,1
2.0536799999999995,0.16,-0.937,-0.327,-72.326,-4.211,-7.934,1
2.0630539999999997,0.181,-0.887,-0.326,-76.782,-2.319,-2.075,1
2.070326,0.172,-0.852,-0.332,-83.251,0.915,4.211,1
2.0779710000000002,0.208,-0.827,-0.352,-87.402,3.356,10.192,1
2.0865769999999997,0.278,-0.818,-0.34,-85.449,5.432,14.77,1
2.0949389999999997,0.318,-0.811,-0.354,-83.862,7.812,19.714,1
2.1016159999999995,0.32,-0.813,-0.358,-91.796,9.704,24.841,1
2.1101889999999996,0.379,-0.807,-0.35,-101.196,13.305,29.052,1
2.11708,0.457,-0.808,-0.335,-99.975,16.54,34.24,1
2.1259399999999995,0.496,-0.804,-0.327,-91.552,19.165,38.94,1
2.135507,0.512,-0.809,-0.329,-81.054,20.69,44.128,1
2.1436559999999996,0.516,-0.806,-0.333,-70.8,23.254,49.926,1
2.150795,0.514,-0.804,-0.349,-66.223,24.963,54.931,1
2.1599109999999997,0.519,-0.799,-0.371,-69.702,28.259,61.34,1
2.1687049999999997,0.517,-0.783,-0.412,-83.435,30.822,67.321,1
2.1759679999999997,0.5,-0.741,-0.426,-102.844,33.447,71.594,1
2.186823,0.447,-0.71,-0.446,-119.995,36.621,77.453,1
2.1951699999999996,0.454,-0.663,-0.452,-122.192,38.085,82.885,1
2.203648,0.448,-0.659,-0.473,-116.882,39.489,87.951,1
2.2102799999999996,0.438,-0.645,-0.484,-110.107,40.71,92.285,1
2.219584,0.466,-0.618,-0.502,-99.304,41.625,96.74,1
2.2256759999999995,0.437,-0.602,-0.53,-89.904,42.114,101.135,1
2.2342489999999997,0.413,-0.568,-0.538,-80.505,44.006,106.933,1
2.242282,0.388,-0.529,-0.547,-61.096,43.212,111.328,1
2.251298,0.34,-0.499,-0.57,-46.936,43.64,116.333,1
2.260251,0.349,-0.503,-0.636,-51.696,45.166,119.812,1
2.267369,0.355,-0.485,-0.698,-77.148,46.874,123.718,1
2.274945,0.361,-0.44,-0.729,-101.257,48.217,128.051,1
2.2835240000000003,0.345,-0.42,-0.744,-116.21,49.987,131.713,1
2.2924849999999997,0.32,-0.405,-0.765,-126.464,51.452,135.253,1
2.299578,0.266,-0.372,-0.795,-132.629,51.757,139.282,1
2.307076,0.297,-0.355,-0.791,-126.403,53.466,143.981,1
2.3176159999999997,0.21,-0.309,-0.852,-122.985,52.856,148.01,1
2.326418,0.173,-0.233,-0.87,-114.685,54.199,152.709,1
2.3351719999999996,0.1,-0.124,-0.933,-104.187,54.016,156.921,1
2.34301,0.071,-0.054,-0.953,-89.721,52.978,159.973,1
2.3526849999999997,0.046,0.015,-0.961,-79.345,50.476,162.658,1
2.360426,0.04,0.07,-0.972,-71.96,49.987,164.611,1
2.3677699999999997,0.104,0.145,-0.983,-63.842,47.058,165.466,1
2.37508,0.176,0.179,-0.97,-53.833,44.86,166.137,1
2.382546,0.255,0.199,-0.961,-43.151,42.053,167.236,1
2.391078,0.324,0.223,-0.962,-34.729,40.405,169.311,1
2.3978559999999995,0.4,0.254,-1.008,-35.888,38.635,171.752,1
2.405845,0.415,0.301,-1.025,-44.006,35.827,173.461,1
2.414023,0.38,0.352,-1.018,-51.879,34.851,175.415,1
2.421434,0.383,0.403,-1.035,-57.25,32.714,177.246,1
2.428238,0.405,0.443,-1.042,-57.983,30.944,178.894,1
2.4351249999999998,0.475,0.485,-1.059,-54.016,28.259,179.992,1
2.4433130000000003,0.516,0.508,-1.074,-48.095,26.306,180.664,1
2.45018,0.578,0.513,-1.092,-40.832,23.132,181.701,1
2.456872,0.583,0.527,-1.096,-35.644,19.714,181.762,1
2.4654589999999996,0.515,0.517,-1.074,-33.142,16.296,182.189,1
2.4724030000000004,0.456,0.534,-1.027,-28.93,13.549,182.189,1
2.479404,0.412,0.545,-0.983,-16.723,10.498,182.067,1
2.487213,0.382,0.542,-0.95,-2.685,7.08,181.884,1
2.495117,0.337,0.521,-0.915,5.798,4.028,181.579,1
2.5020890000000002,0.305,0.492,-0.882,7.751,1.77,181.457,1
2.509288,0.271,0.473,-0.825,8.361,0.061,181.213,1
2.5173900000000002,0.236,0.454,-0.768,11.962,-1.586,181.213,1
2.526215,0.201,0.423,-0.704,18.554,-2.929,181.274,1
2.534607,0.183,0.398,-0.647,27.404,-5.004,181.396,1
2.5424029999999997,0.165,0.369,-0.586,39.428,-7.141,182.067,1
2.549198,0.148,0.332,-0.539,47.119,-8.666,182.8,1
2.5579449999999997,0.152,0.326,-0.527,46.203,-8.911,183.898,1
2.564773,0.174,0.346,-0.548,35.949,-8.789,184.814,1
2.5752900000000003,0.159,0.389,-0.547,20.69,-9.216,185.18,1
2.581406,0.144,0.42,-0.535,3.54,-8.422,185.974,1
2.589908,0.156,0.449,-0.513,-7.507,-8.544,186.523,1
2.5974429999999997,0.194,0.483,-0.476,-12.817,-8.239,187.805,1
2.606857,0.231,0.525,-0.468,-13.732,-8.178,188.659,1
2.613338,0.238,0.568,-0.445,-11.23,-8.422,189.208,1
2.622296,0.209,0.611,-0.421,-7.69,-8.666,189.392,1
2.63024,0.192,0.664,-0.422,-8.3,-7.873,188.415,1
2.637369,0.172,0.743,-0.443,-14.587,-6.469,186.645,1
2.644308,0.157,0.825,-0.477,-21.85,-5.126,184.082,1
2.6527689999999997,0.12,0.897,-0.495,-26.611,-4.638,180.48,1
2.661164,0.061,0.948,-0.51,-26.367,-4.272,176.635,1
2.670207,0.019,0.977,-0.521,-22.827,-4.089,172.424,1
2.678951,0.035,0.969,-0.515,-15.747,-4.516,167.541,1
2.6869650000000003,0.106,0.936,-0.492,-9.277,-5.31,163.452,1
2.696074,0.165,0.912,-0.463,-2.197,-6.042,160.766,1
2.703331,0.222,0.884,-0.41,8.85,-7.69,158.813,1
2.7098340000000003,0.301,0.89,-0.387,21.301,-8.056,158.081,1
2.721987,0.347,0.931,-0.423,32.47,-8.605,157.714,1
2.728309,0.282,0.991,-0.48,27.954,-9.46,157.043,1
2.736806,0.235,1.018,-0.511,19.531,-9.216,155.761,1
2.7468030000000003,0.195,1.002,-0.533,6.835,-8.666,153.442,1
2.7530749999999995,0.184,0.98,-0.546,-6.896,-6.652,151.489,1
2.7596979999999998,0.159,0.977,-0.549,-19.531,-5.31,149.292,1
2.76772,0.138,0.97,-0.532,-25.573,-4.15,147.155,1
2.7764390000000003,0.154,0.976,-0.513,-22.766,-4.028,145.385,1
2.783199,0.175,0.987,-0.483,-10.864,-5.004,144.042,1
2.7920329999999995,0.173,1.008,-0.467,5.31,-6.469,143.127,1
2.7992129999999995,0.174,1.014,-0.458,26.794,-9.521,142.089,1
2.8080510000000003,0.201,1.066,-0.456,47.851,-12.023,140.502,1
2.817688,0.166,1.061,-0.45,71.594,-17.517,139.221,1
2.8243690000000004,0.192,1.008,-0.43,85.327,-21.057,138.305,1
2.8337660000000002,0.204,0.956,-0.407,88.317,-23.803,137.939,1
2.841269,0.229,0.913,-0.391,81.42,-24.291,138.122,1
2.848918,0.247,0.91,-0.407,63.537,-23.925,138.183,1
2.8572079999999995,0.247,0.98,-0.401,34.912,-21.606,137.878,1
2.8662759999999996,0.167,0.972,-0.415,20.446,-22.583,137.146,1
2.8732390000000003,0.141,1.041,-0.371,18.005,-20.263,136.047,1
2.88188,0.148,1.038,-0.349,28.076,-23.315,135.314,1
2.8909359999999995,0.157,1.088,-0.329,52.246,-24.169,134.338,1
2.8979069999999996,0.137,1.099,-0.301,77.941,-27.648,132.873,1
2.9069249999999998,0.126,1.101,-0.272,96.801,-28.381,132.751,1
2.9139379999999995,0.139,1.095,-0.301,109.741,-30.578,130.981,1
2.922882,0.096,1.104,-0.305,103.698,-29.724,129.943,1
2.9316039999999997,0.115,1.138,-0.34,86.73,-29.663,128.662,1
2.9389119999999997,0.078,1.156,-0.344,66.04,-29.174,126.708,1
2.947263,0.064,1.161,-0.333,46.874,-27.954,125.366,1
2.954323,0.124,1.182,-0.335,30.578,-25.939,124.389,1
2.963033,0.138,1.197,-0.335,15.624,-25.39,124.023,1
2.9714949999999996,0.089,1.296,-0.35,21.24,-25.939,121.337,1
2.9785619999999997,0.042,1.334,-0.313,33.813,-26.733,119.445,1
2.9865609999999996,0.009,1.346,-0.322,47.485,-28.442,117.126,1
2.995498,-0.002,1.276,-0.267,53.894,-30.456,115.966,1
3.002184,0.002,1.338,-0.27,62.316,-30.029,112.67,1
3.0112799999999997,-0.03,1.403,-0.223,67.932,-31.494,109.802,1
3.0199019999999996,-0.059,1.423,-0.209,68.664,-31.066,107.299,1
3.0265280000000003,-0.063,1.469,-0.198,65.124,-30.944,103.637,1
3.034298,-0.085,1.5,-0.183,56.091,-29.541,100.219,1
3.0424510000000002,-0.092,1.579,-0.173,33.081,-27.221,97.351,1
3.050429,-0.104,1.579,-0.178,24.353,-26.062,93.2,1
3.059122,-0.14,1.624,-0.131,26.367,-24.169,89.05,1
3.067174,-0.127,1.624,-0.125,31.982,-23.986,84.045,1
3.0737399999999995,-0.13,1.581,-0.096,39.55,-23.498,79.772,1
3.082545,-0.169,1.415,-0.089,39.978,-22.46,77.27,1
3.091014,-0.05,1.47,-0.046,50.476,-18.92,72.387,1
3.099231,-0.083,1.525,-0.003,65.856,-18.188,68.481,1
3.1067899999999997,-0.092,1.534,-0.039,69.763,-15.502,65.002,1
3.115949,-0.088,1.546,-0.007,66.894,-13.549,61.584,1
3.1251029999999997,-0.099,1.541,-0.004,60.974,-9.948,58.166,1
3.132273,-0.11,1.526,0.001,51.94,-6.408,54.016,1
3.1408219999999996,-0.111,1.497,0.011,40.954,-1.647,50.231,1
3.147459,-0.117,1.479,0.001,30.944,2.502,46.997,1
3.1556710000000003,-0.109,1.463,0.004,21.667,6.774,43.884,1
3.163223,-0.1,1.451,-0.009,16.113,10.742,40.832,1
3.170919,-0.117,1.42,-0.019,14.282,13.793,38.696,1
3.179924,-0.117,1.382,-0.026,14.526,17.089,35.888,1
3.1893420000000003,-0.101,1.337,-0.044,14.648,20.751,33.813,1
3.1968279999999996,-0.104,1.304,-0.081,9.277,24.902,31.127,1
3.2056400000000003,-0.141,1.288,-0.112,0.183,27.526,29.113,1
3.2134119999999995,-0.13,1.269,-0.145,-18.31,30.7,26.184,1
3.221893,-0.151,1.31,-0.157,-21.423,32.714,23.681,1
3.230985,-0.034,1.303,-0.217,-11.84,31.311,21.484,1
3.2378199999999997,-0.132,1.304,-0.234,3.784,30.212,19.287,1
3.246598,-0.138,1.27,-0.284,15.624,28.503,17.639,1
3.2551479999999997,-0.123,1.207,-0.295,22.46,26.733,15.686,1
3.262007,-0.149,1.164,-0.322,29.174,26.0,14.038,1
3.2696650000000003,-0.198,1.133,-0.34,33.691,24.108,12.878,1
3.277789,-0.21,1.079,-0.352,40.039,22.521,12.39,1
3.2853289999999995,-0.204,1.026,-0.367,45.837,20.874,12.268,1
