timestamp_s,ax,ay,az,gx,gy,gz,label
0.0,0.723,0.357,-0.533,-1.464,-0.854,1.22,1
0.0068590000000003926,0.708,0.361,-0.519,-0.915,-0.671,1.953,1
0.015039999999999942,0.716,0.365,-0.519,0.366,-0.732,2.38,1
0.02275399999999994,0.715,0.375,-0.513,-0.183,-0.366,2.624,1
0.03065800000000074,0.708,0.379,-0.517,-0.976,0.122,2.929,1
0.039839999999999876,0.712,0.397,-0.516,-0.549,0.488,3.54,1
0.04672300000000007,0.699,0.404,-0.512,1.403,0.488,3.479,1
0.05557500000000015,0.698,0.407,-0.514,2.746,0.671,3.967,1
0.06358700000000006,0.689,0.406,-0.506,3.479,1.037,4.211,1
0.07060699999999986,0.685,0.403,-0.511,3.479,1.281,4.516,1
0.07952600000000043,0.695,0.413,-0.506,4.638,1.22,4.882,1
0.08749300000000027,0.7,0.432,-0.499,7.08,1.525,5.126,1
0.09480500000000003,0.705,0.443,-0.51,6.958,1.525,5.249,1
0.10315999999999992,0.691,0.452,-0.51,5.249,1.647,5.249,1
0.10990900000000003,0.692,0.458,-0.51,3.356,2.319,4.943,1
0.1177280000000005,0.704,0.469,-0.508,2.868,2.563,4.821,1
0.12504700000000035,0.704,0.471,-0.5,4.089,2.929,4.882,1
0.13312300000000032,0.704,0.479,-0.499,2.807,3.356,4.455,1
0.14050700000000038,0.703,0.483,-0.508,0.488,4.15,4.211,1
0.1480820000000005,0.708,0.494,-0.506,0.0,4.394,3.784,1
0.15652800000000067,0.709,0.497,-0.513,1.525,4.455,3.54,1
0.16421600000000058,0.717,0.497,-0.52,3.234,4.699,3.356,1
0.17203800000000058,0.719,0.506,-0.523,3.906,4.638,2.929,1
0.1813039999999999,0.715,0.498,-0.532,3.601,5.126,2.807,1
0.18869200000000053,0.717,0.497,-0.538,3.356,5.004,2.441,1
0.1957469999999999,0.721,0.482,-0.542,2.624,5.371,2.258,1
0.20467700000000022,0.725,0.488,-0.556,1.77,5.371,2.136,1
0.2115670000000005,0.73,0.504,-0.564,3.234,5.126,2.014,1
0.2190430000000001,0.728,0.507,-0.573,4.699,4.638,1.403,1
0.2280180000000005,0.721,0.505,-0.574,4.821,4.15,1.22,1
0.23490300000000008,0.717,0.497,-0.578,3.112,3.784,0.732,1
0.2436890000000007,0.717,0.499,-0.578,0.549,4.089,0.549,1
0.250864,0.711,0.511,-0.587,-1.403,4.028,0.061,1
0.25847900000000035,0.713,0.516,-0.587,-0.183,3.723,-0.305,1
0.26710300000000053,0.711,0.509,-0.591,1.403,3.112,-0.793,1
0.2746140000000006,0.714,0.506,-0.601,1.77,2.685,-1.464,1
0.28376800000000024,0.719,0.5,-0.609,1.281,2.319,-1.525,1
0.29050500000000046,0.727,0.5,-0.608,1.892,1.77,-2.014,1
0.2981290000000003,0.732,0.486,-0.611,3.845,1.342,-2.136,1
0.3057630000000007,0.733,0.478,-0.612,5.187,0.549,-2.319,1
0.3148920000000004,0.731,0.465,-0.609,6.103,0.244,-2.624,1
0.32207600000000003,0.732,0.453,-0.606,6.164,-0.244,-2.441,1
0.3299790000000007,0.732,0.447,-0.604,4.882,-0.488,-2.502,1
0.33775200000000005,0.723,0.438,-0.604,2.075,-0.793,-2.197,1
0.3468119999999999,0.721,0.441,-0.598,1.037,-0.854,-1.953,1
0.3551000000000002,0.716,0.442,-0.593,0.915,-1.525,-2.014,1
0.36248600000000053,0.716,0.437,-0.588,0.915,-1.831,-1.586,1
0.37034900000000004,0.72,0.435,-0.578,0.549,-2.014,-1.525,1
0.37893299999999996,0.717,0.449,-0.578,-0.122,-2.075,-1.464,1
0.38597400000000004,0.711,0.455,-0.569,0.244,-2.258,-1.647,1
0.394139,0.707,0.456,-0.561,1.647,-2.441,-1.586,1
0.40251000000000037,0.709,0.449,-0.557,2.441,-2.563,-1.708,1
0.4088370000000001,0.707,0.445,-0.546,2.441,-2.746,-1.708,1
0.4163110000000003,0.713,0.447,-0.541,2.868,-2.441,-1.77,1
0.4251849999999999,0.712,0.438,-0.545,1.953,-2.441,-1.831,1
0.4323120000000005,0.705,0.434,-0.538,0.549,-1.892,-1.892,1
0.44155000000000033,0.708,0.436,-0.541,0.122,-1.892,-1.647,1
0.4484830000000004,0.706,0.433,-0.541,0.549,-1.708,-1.647,1
0.45756500000000067,0.71,0.431,-0.54,1.525,-1.892,-1.647,1
0.4650080000000001,0.711,0.436,-0.537,2.258,-2.075,-1.281,1
0.47372700000000023,0.72,0.426,-0.537,1.342,-1.586,-1.342,1
0.4812720000000006,0.726,0.427,-0.536,-0.732,-1.342,-0.793,1
0.49028000000000027,0.734,0.432,-0.534,-1.647,-1.464,-0.549,1
0.49911700000000003,0.718,0.423,-0.532,-2.746,-1.342,-0.793,1
0.5078680000000002,0.722,0.433,-0.529,-1.464,-0.976,-0.305,1
0.5146220000000001,0.711,0.436,-0.528,0.305,-1.403,-0.183,1
0.5222440000000006,0.703,0.437,-0.52,1.525,-0.854,0.122,1
0.5310649999999999,0.709,0.439,-0.521,1.22,-0.915,0.366,1
0.538278,0.707,0.448,-0.516,1.098,-0.732,0.427,1
0.5472580000000002,0.713,0.445,-0.519,0.732,-0.549,0.549,1
0.5538829999999999,0.715,0.453,-0.52,-0.183,-0.732,0.549,1
0.5621800000000006,0.709,0.454,-0.517,-0.122,-0.549,0.549,1
0.5712730000000006,0.708,0.451,-0.518,0.183,-0.366,0.61,1
0.5780650000000005,0.707,0.453,-0.513,1.22,-0.427,0.366,1
0.5855589999999999,0.712,0.446,-0.505,1.525,0.061,0.549,1
0.5943240000000003,0.714,0.444,-0.505,0.61,0.305,0.61,1
0.6014600000000003,0.726,0.446,-0.507,0.061,0.488,0.671,1
0.6089920000000006,0.731,0.453,-0.509,0.183,0.976,0.61,1
0.6182670000000003,0.729,0.459,-0.511,0.976,1.098,0.427,1
0.6251150000000001,0.72,0.456,-0.514,0.854,1.159,0.671,1
0.633629,0.72,0.462,-0.515,-0.244,1.525,0.549,1
0.64039,0.718,0.461,-0.519,0.061,1.708,0.549,1
0.6474270000000004,0.715,0.459,-0.519,1.159,1.77,0.427,1
0.6565630000000002,0.711,0.457,-0.525,1.708,1.647,0.488,1
0.6637260000000005,0.712,0.457,-0.531,1.464,1.831,0.305,1
0.6717430000000002,0.709,0.46,-0.532,1.281,2.014,0.244,1
0.6790910000000006,0.713,0.457,-0.536,1.647,1.953,0.366,1
0.68797,0.712,0.463,-0.532,2.38,1.708,0.366,1
0.6953180000000003,0.709,0.458,-0.535,2.99,1.892,0.183,1
0.7028690000000006,0.708,0.456,-0.539,2.746,2.075,0.061,1
0.710585,0.718,0.456,-0.538,1.892,2.38,0.183,1
0.7188319999999999,0.727,0.46,-0.542,1.281,2.38,0.0,1
0.7269730000000001,0.73,0.461,-0.544,2.136,2.197,-0.122,1
0.7353710000000007,0.733,0.459,-0.547,2.624,2.38,-0.122,1
0.7424590000000002,0.734,0.457,-0.552,2.563,2.136,-0.061,1
0.7511350000000006,0.733,0.465,-0.554,2.441,2.075,0.0,1
0.7587299999999999,0.723,0.464,-0.558,2.136,2.014,-0.061,1
0.766375,0.718,0.461,-0.558,1.831,1.953,0.0,1
0.7752140000000001,0.708,0.462,-0.563,1.586,2.075,-0.427,1
0.7831250000000001,0.698,0.459,-0.56,1.77,1.77,-0.305,1
0.7903820000000001,0.698,0.454,-0.565,2.38,1.708,-0.366,1
0.7989610000000003,0.701,0.458,-0.571,1.708,1.403,-0.366,1
0.8077019999999999,0.704,0.457,-0.569,2.136,1.159,-0.183,1
0.8152110000000006,0.702,0.458,-0.568,2.319,1.037,-0.183,1
0.8223860000000007,0.708,0.459,-0.565,1.525,0.976,-0.183,1
0.8317040000000002,0.713,0.462,-0.565,0.732,0.732,-0.305,1
0.8390300000000002,0.719,0.462,-0.567,0.122,0.61,-0.305,1
0.8479890000000001,0.716,0.464,-0.569,-0.488,0.732,-0.61,1
0.855632,0.72,0.46,-0.569,-0.61,0.61,-0.305,1
0.8631790000000006,0.721,0.452,-0.573,-1.037,0.488,-0.366,1
0.8714210000000007,0.72,0.442,-0.572,-1.525,0.488,-0.427,1
0.878895,0.724,0.439,-0.571,-1.586,0.305,-0.244,1
0.8875790000000006,0.727,0.438,-0.57,-0.488,0.061,0.061,1
0.8943820000000002,0.72,0.435,-0.567,0.366,0.061,0.244,1
0.9034400000000007,0.713,0.431,-0.566,-0.366,-0.061,0.366,1
0.9104170000000007,0.707,0.433,-0.563,-1.037,-0.122,0.549,1
0.918183,0.704,0.437,-0.563,-0.915,-0.305,0.854,1
0.926844,0.698,0.439,-0.562,-0.305,-0.488,1.098,1
0.9344920000000005,0.687,0.445,-0.567,-0.244,-0.366,0.976,1
0.9436249999999999,0.689,0.447,-0.57,-0.488,-0.366,1.22,1
0.9509540000000003,0.69,0.445,-0.57,-0.61,-0.732,1.22,1
0.9602060000000003,0.699,0.449,-0.57,-0.915,-0.793,1.159,1
0.9679790000000006,0.706,0.457,-0.57,-0.427,-1.098,1.464,1
0.9751920000000007,0.708,0.462,-0.569,0.732,-1.342,1.403,1
0.9840150000000003,0.709,0.466,-0.567,1.281,-1.403,1.525,1
0.9909650000000001,0.708,0.47,-0.565,0.549,-1.77,1.342,1
0.9997740000000004,0.72,0.481,-0.56,-0.488,-1.953,0.915,1
1.0072140000000003,0.721,0.492,-0.555,-0.549,-2.197,0.732,1
1.0155410000000007,0.724,0.496,-0.545,0.793,-2.441,0.488,1
1.0246620000000002,0.731,0.494,-0.541,1.342,-2.441,0.244,1
1.031295,0.716,0.496,-0.533,1.159,-2.624,-0.061,1
1.0404010000000001,0.721,0.495,-0.523,0.244,-2.319,-0.549,1
1.04767,0.731,0.499,-0.517,1.037,-2.38,-0.488,1
1.0565130000000007,0.729,0.495,-0.494,2.685,-1.953,-0.976,1
1.0633980000000003,0.729,0.494,-0.49,3.417,-2.136,-0.976,1
1.0710570000000006,0.729,0.495,-0.484,2.685,-1.464,-1.281,1
1.0798420000000002,0.726,0.497,-0.479,2.685,-0.976,-1.647,1
1.0884800000000006,0.724,0.494,-0.474,2.929,-0.732,-1.708,1
1.0955330000000005,0.721,0.491,-0.468,2.929,-0.183,-2.014,1
1.1043920000000007,0.717,0.489,-0.467,2.868,0.305,-2.258,1
1.1113920000000004,0.722,0.485,-0.459,3.234,0.732,-2.319,1
1.1207450000000003,0.724,0.482,-0.457,4.333,1.159,-2.563,1
1.1275810000000002,0.727,0.482,-0.452,4.638,1.586,-2.502,1
1.1359520000000005,0.722,0.479,-0.45,4.638,2.502,-2.929,1
1.1433370000000007,0.723,0.476,-0.45,4.76,3.051,-3.173,1
1.1520420000000007,0.722,0.472,-0.447,4.943,3.723,-3.356,1
1.1589749999999999,0.719,0.469,-0.448,4.943,4.089,-3.356,1
1.1672400000000005,0.716,0.47,-0.45,5.187,4.882,-3.479,1
1.1747390000000006,0.716,0.464,-0.443,5.737,5.859,-3.54,1
1.182518,0.704,0.452,-0.442,6.225,6.652,-3.662,1
1.1909730000000005,0.706,0.449,-0.434,6.652,7.446,-3.54,1
1.1981000000000002,0.711,0.442,-0.42,8.422,8.422,-3.662,1
1.2069300000000007,0.711,0.426,-0.42,12.145,9.094,-3.54,1
1.2143420000000003,0.706,0.4,-0.419,16.601,10.314,-3.356,1
1.2219550000000003,0.696,0.38,-0.426,17.822,11.413,-2.624,1
1.2304620000000002,0.68,0.368,-0.447,17.395,12.756,-1.647,1
1.2371030000000003,0.667,0.355,-0.467,15.686,14.099,-1.098,1
1.245838,0.648,0.347,-0.499,13.366,15.747,-0.244,1
1.2536320000000005,0.609,0.341,-0.529,9.826,16.967,0.305,1
1.2610470000000005,0.585,0.333,-0.565,8.483,18.615,0.732,1
1.269165,0.58,0.322,-0.608,8.911,19.653,1.403,1
1.276541,0.568,0.302,-0.641,8.483,20.751,2.319,1
1.2849409999999999,0.539,0.284,-0.692,6.835,21.362,3.112,1
1.2924620000000004,0.508,0.262,-0.74,5.92,21.911,4.272,1
1.2999720000000003,0.491,0.227,-0.784,5.187,22.888,5.676,1
1.3076420000000004,0.477,0.195,-0.831,3.051,23.803,7.324,1
1.3153630000000005,0.464,0.173,-0.885,-1.525,25.329,9.399,1
1.3244730000000002,0.459,0.15,-0.951,-7.141,26.184,11.596,1
1.331461,0.454,0.129,-1.009,-11.718,26.733,14.038,1
1.3390450000000005,0.465,0.092,-1.097,-18.859,28.076,17.333,1
1.3479540000000005,0.477,0.059,-1.198,-30.639,28.442,20.324,1
1.3552400000000002,0.477,0.026,-1.303,-47.241,29.663,23.864,1
1.3630460000000006,0.432,0.007,-1.444,-65.673,29.724,27.832,1
1.3716949999999999,0.364,-0.001,-1.562,-78.857,28.32,32.409,1
1.3800170000000005,0.315,-0.037,-1.688,-83.557,26.0,36.987,1
1.3870520000000006,0.259,-0.114,-1.836,-94.421,23.315,42.053,1
1.396166,0.209,-0.184,-2.086,-117.126,20.629,48.889,1
1.403295,0.117,-0.239,-2.336,-123.168,13.916,55.786,1
1.4124040000000004,0.046,-0.4,-2.698,-115.6,4.272,65.429,1
1.4201110000000003,0.028,-0.59,-3.158,-116.333,-6.53,75.134,1
1.4291040000000006,0.001,-0.801,-3.759,-126.281,-21.484,86.547,1
1.4361890000000006,-0.152,-0.987,-4.237,-153.137,-43.457,101.623,1
1.445742,-0.291,-1.123,-4.681,-169.372,-69.335,118.713,1
1.4530950000000002,-0.452,-1.219,-5.0,-169.006,-96.74,133.972,1
1.462408,-0.681,-1.299,-5.238,-163.452,-131.713,152.465,1
1.471221,-0.969,-1.349,-5.359,-168.151,-169.738,171.203,1
1.4783819999999999,-1.286,-1.336,-5.345,-165.466,-203.063,188.171,1
1.4871880000000006,-1.652,-1.232,-5.248,-147.094,-243.225,207.824,1
1.4957250000000002,-2.1,-1.111,-5.067,-133.605,-278.32,224.731,1
1.5041030000000006,-2.525,-0.919,-4.789,-117.797,-317.016,244.018,1
1.512708,-2.936,-0.659,-4.409,-109.008,-351.501,262.634,1
1.5193880000000002,-3.318,-0.263,-3.927,-104.37,-378.845,278.381,1
1.527838,-3.73,0.136,-3.478,-100.036,-402.099,292.358,1
1.536874,-4.138,0.567,-3.0,-110.839,-426.94,306.335,1
1.543876,-4.554,1.069,-2.448,-106.079,-443.542,315.979,1
1.5517330000000005,-4.983,1.557,-1.834,-99.06,-462.829,321.96,1
1.5606350000000004,-5.42,2.109,-1.187,-81.542,-472.534,322.814,1
1.5694,-5.661,2.727,-0.46,-45.471,-482.91,315.734,1
1.5762530000000003,-5.674,3.191,0.185,-14.953,-487.243,300.415,1
1.5845200000000004,-5.513,3.669,0.941,13.122,-486.938,279.907,1
1.5928810000000002,-5.182,4.072,1.574,54.87,-483.337,246.826,1
1.6014090000000003,-4.77,4.251,2.214,83.923,-473.144,214.05,1
1.608479,-4.279,4.232,2.676,92.224,-456.542,174.072,1
1.617108,-3.855,4.119,3.113,86.425,-435.241,141.357,1
1.624428,-3.242,3.701,3.454,29.846,-407.836,118.103,1
1.633477,-2.663,3.884,3.645,16.723,-372.68,86.608,1
1.640803,-1.905,3.786,3.981,62.072,-353.027,61.889,1
1.6494170000000006,-1.321,3.502,4.116,82.214,-318.969,39.245,1
1.6566939999999999,-0.85,3.254,4.222,47.424,-282.836,15.258,1
1.6659570000000006,-0.428,3.049,4.182,12.207,-246.643,-1.281,1
1.6737710000000003,0.003,2.814,4.086,-10.986,-212.341,-17.272,1
1.6830790000000002,0.349,2.497,3.879,-12.084,-185.302,-28.015,1
1.690906,0.595,2.224,3.668,-14.038,-158.935,-38.024,1
1.6978920000000004,0.777,1.978,3.451,-17.822,-138.305,-43.762,1
1.7067350000000001,0.882,1.79,3.215,-18.493,-116.882,-48.583,1
1.7137229999999999,0.889,1.7,3.01,-15.441,-101.684,-52.856,1
1.7233420000000006,0.848,1.589,2.826,-20.263,-86.364,-57.434,1
1.7306430000000006,0.75,1.482,2.599,-32.348,-69.763,-62.072,1
1.7383709999999999,0.674,1.36,2.394,-36.254,-57.678,-66.284,1
1.746836,0.584,1.227,2.187,-35.339,-44.433,-70.678,1
1.7552840000000005,0.52,1.072,1.98,-35.4,-34.79,-73.974,1
1.762155,0.488,0.911,1.778,-34.362,-26.672,-75.927,1
1.770492,0.474,0.745,1.576,-35.705,-19.531,-76.599,1
1.778346,0.469,0.668,1.436,-34.362,-12.512,-75.439,1
1.7867550000000003,0.437,0.621,1.334,-22.46,-7.446,-73.974,1
1.7947730000000002,0.409,0.579,1.226,-7.324,-1.464,-71.472,1
1.8037790000000005,0.393,0.541,1.118,-5.004,3.051,-69.213,1
1.8111310000000005,0.406,0.491,0.994,-10.986,9.399,-65.856,1
1.8186750000000007,0.427,0.454,0.881,-17.578,13.549,-62.683,1
1.8262710000000002,0.441,0.416,0.778,-19.104,16.174,-60.058,1
1.8341570000000003,0.463,0.371,0.687,-15.563,17.7,-56.823,1
1.8419560000000006,0.493,0.312,0.581,-11.413,18.981,-53.588,1
1.8512760000000004,0.502,0.27,0.507,-9.338,19.409,-49.377,1
1.8584560000000003,0.5,0.246,0.441,-11.84,19.775,-46.02,1
1.8673270000000004,0.499,0.244,0.401,-13.732,19.531,-42.846,1
1.8755230000000003,0.507,0.246,0.372,-12.756,18.92,-38.696,1
1.882847,0.52,0.256,0.344,-11.535,18.493,-35.766,1
1.8918690000000007,0.53,0.262,0.318,-10.009,18.127,-32.409,1
1.8988610000000001,0.534,0.283,0.307,-8.422,18.127,-29.785,1
1.9061400000000006,0.535,0.304,0.289,-6.652,17.211,-27.16,1
1.9151160000000003,0.54,0.322,0.285,-5.004,16.601,-25.024,1
1.9223780000000001,0.554,0.313,0.271,-3.356,16.54,-22.583,1
1.9307889999999999,0.573,0.308,0.263,-4.455,16.784,-19.836,1
1.9405150000000004,0.6,0.311,0.238,-7.385,16.784,-17.089,1
1.947863,0.64,0.328,0.233,-7.324,16.174,-14.526,1
1.9547750000000006,0.644,0.362,0.247,-3.784,16.296,-12.329,1
1.9639350000000002,0.641,0.394,0.248,-1.037,16.296,-9.948,1
1.9703150000000003,0.653,0.413,0.238,-2.197,16.784,-8.3,1
1.979718,0.661,0.438,0.243,-4.455,16.479,-6.53,1
1.987164,0.671,0.483,0.257,-6.713,16.479,-5.126,1
1.9949750000000002,0.672,0.524,0.265,-5.31,16.967,-3.601,1
2.0018130000000003,0.683,0.55,0.238,-3.295,16.906,-2.441,1
2.009931,0.695,0.567,0.219,-2.685,16.54,-1.77,1
2.017302,0.708,0.583,0.193,-3.479,16.662,-0.976,1
2.0261649999999998,0.72,0.607,0.164,-5.187,15.991,-0.183,1
2.032979,0.73,0.637,0.142,-6.408,15.258,0.183,1
2.0403510000000002,0.747,0.651,0.128,-7.324,14.648,0.244,1
2.0479130000000003,0.752,0.663,0.124,-8.544,13.488,0.427,1
2.0551330000000005,0.752,0.685,0.137,-9.521,12.878,0.549,1
2.0630300000000004,0.749,0.713,0.14,-7.751,11.962,0.305,1
2.072469000000001,0.746,0.746,0.14,-5.615,11.23,-0.488,1
2.079732000000001,0.734,0.759,0.14,-5.126,10.314,-1.403,1
2.087740000000001,0.731,0.769,0.14,-7.324,10.131,-2.258,1
2.0945720000000003,0.732,0.776,0.131,-9.338,9.948,-3.234,1
2.102225,0.732,0.778,0.113,-9.826,9.46,-4.211,1
2.111117000000001,0.731,0.778,0.09,-8.117,8.422,-5.493,1
2.1183450000000006,0.735,0.77,0.081,-4.638,7.324,-6.652,1
2.127010000000001,0.73,0.755,0.058,-4.516,6.591,-7.629,1
2.134304000000001,0.745,0.737,0.026,-7.629,5.615,-8.117,1
2.142194000000001,0.753,0.727,0.01,-9.765,4.272,-8.728,1
2.150240000000001,0.77,0.707,0.006,-10.192,2.868,-9.704,1
2.1593310000000008,0.78,0.691,0.014,-9.216,1.403,-10.07,1
2.1678819999999996,0.78,0.677,0.029,-7.751,-0.427,-10.314,1
2.174799000000001,0.779,0.663,0.04,-7.751,-1.586,-10.681,1
2.1824780000000006,0.771,0.649,0.056,-8.422,-2.563,-10.742,1
2.19184,0.763,0.636,0.067,-8.056,-3.417,-11.047,1
2.198759,0.762,0.621,0.066,-7.019,-4.028,-10.681,1
2.207808000000001,0.748,0.605,0.061,-6.347,-5.004,-10.559,1
2.2151620000000003,0.746,0.588,0.049,-6.835,-6.042,-9.948,1
2.2225650000000003,0.753,0.581,0.043,-6.713,-7.141,-9.765,1
2.2310559999999997,0.733,0.586,0.051,-4.394,-8.483,-9.216,1
2.238758,0.738,0.582,0.055,-3.112,-10.009,-8.728,1
2.247077,0.737,0.572,0.068,-3.723,-10.681,-8.239,1
2.2546869999999997,0.737,0.57,0.09,-5.493,-11.779,-7.568,1
2.2634440000000007,0.738,0.576,0.122,-5.615,-12.268,-6.774,1
2.2712779999999997,0.748,0.58,0.145,-4.028,-12.512,-6.286,1
2.2797460000000003,0.747,0.584,0.177,-2.685,-12.512,-5.371,1
2.287936000000001,0.752,0.586,0.186,-3.051,-12.145,-4.699,1
2.2965550000000006,0.761,0.591,0.197,-3.906,-11.474,-4.516,1
2.3037859999999997,0.764,0.604,0.202,-3.662,-10.803,-3.967,1
2.3125410000000004,0.776,0.596,0.206,-3.479,-10.62,-3.54,1
2.319717,0.784,0.591,0.209,-4.15,-10.009,-3.051,1
2.3283200000000006,0.793,0.594,0.216,-4.15,-9.704,-2.624,1
2.336206,0.794,0.597,0.23,-2.807,-8.972,-2.38,1
2.3447430000000002,0.788,0.599,0.247,-1.953,-8.544,-2.075,1
2.3518440000000007,0.785,0.598,0.254,-2.624,-7.385,-1.647,1
2.35945,0.785,0.608,0.264,-2.319,-6.469,-1.342,1
2.3676710000000005,0.785,0.612,0.265,-1.953,-5.859,-1.22,1
2.3769719999999994,0.771,0.614,0.263,-2.38,-4.699,-1.098,1
2.383876,0.765,0.619,0.26,-4.272,-3.845,-0.976,1
2.393092,0.752,0.62,0.262,-5.554,-2.624,-0.854,1
2.399336000000001,0.753,0.626,0.251,-5.554,-2.075,-0.488,1
2.4083960000000006,0.742,0.624,0.238,-4.76,-1.403,-0.427,1
2.4158540000000004,0.733,0.615,0.229,-4.638,-0.915,-0.122,1
2.4242990000000004,0.726,0.619,0.218,-4.333,-0.61,0.305,1
2.4327499999999995,0.72,0.626,0.208,-3.173,-0.549,0.305,1
2.440352,0.719,0.626,0.204,-1.77,-0.244,0.61,1
2.447082000000001,0.719,0.623,0.199,-1.586,-0.183,1.037,1
2.455382000000001,0.717,0.619,0.196,-1.342,-0.366,1.403,1
2.4642550000000005,0.711,0.625,0.2,0.0,-0.244,1.586,1
2.4708239999999995,0.71,0.629,0.199,0.305,-0.183,2.075,1
2.4790409999999996,0.723,0.625,0.195,-1.281,-0.305,2.258,1
2.487807000000001,0.725,0.631,0.197,-2.99,0.0,2.99,1
2.494967,0.742,0.628,0.204,-2.38,-0.122,2.807,1
2.501875000000001,0.745,0.63,0.207,-1.281,0.549,3.295,1
2.5108439999999996,0.745,0.644,0.204,-0.183,0.488,3.601,1
2.518179000000001,0.743,0.66,0.203,1.892,0.732,3.479,1
2.5265700000000004,0.753,0.667,0.193,2.685,0.854,3.295,1
2.5337009999999998,0.756,0.672,0.186,1.159,0.732,3.54,1
2.5419989999999997,0.755,0.675,0.185,0.183,0.854,3.417,1
2.549410000000001,0.757,0.677,0.189,0.183,0.61,2.99,1
2.557499000000001,0.756,0.675,0.195,1.647,0.61,2.929,1
2.565549,0.753,0.675,0.19,1.831,0.671,2.929,1
2.573436,0.751,0.68,0.187,1.464,0.488,2.746,1
2.5805309999999997,0.747,0.686,0.193,2.014,0.671,2.624,1
2.5892860000000004,0.74,0.692,0.196,2.624,0.061,2.258,1
2.5958619999999994,0.737,0.682,0.2,2.014,0.061,2.075,1
2.6028220000000006,0.743,0.678,0.203,1.342,0.122,2.014,1
2.610473,0.746,0.67,0.208,0.61,0.122,2.197,1
2.6184459999999996,0.75,0.659,0.2,-0.122,0.61,1.892,1
2.625987000000001,0.755,0.655,0.202,0.305,0.549,2.136,1
2.634544000000001,0.759,0.655,0.197,1.831,0.366,2.258,1
2.641628,0.763,0.652,0.187,3.051,0.244,2.502,1
2.649158000000001,0.763,0.646,0.176,2.441,0.305,2.746,1
2.656631,0.764,0.645,0.169,1.22,0.244,2.563,1
2.665532,0.763,0.649,0.17,1.281,-0.061,2.929,1
2.67213,0.761,0.658,0.167,2.502,-0.549,2.99,1
2.679710000000001,0.757,0.666,0.172,3.906,-0.915,3.173,1
2.6880309999999996,0.752,0.675,0.177,4.394,-1.22,2.99,1
2.695571,0.744,0.67,0.176,2.99,-1.159,2.624,1
2.7023669999999997,0.746,0.67,0.187,1.831,-1.708,2.685,1
2.7098629999999995,0.741,0.679,0.199,2.319,-1.708,2.319,1
2.7201960000000005,0.746,0.67,0.198,3.479,-1.831,1.953,1
2.7278399999999996,0.75,0.662,0.191,3.234,-2.014,1.953,1
2.7350210000000006,0.749,0.653,0.187,3.112,-2.197,1.77,1
2.742497000000001,0.763,0.65,0.188,3.356,-2.502,1.831,1
2.751679,0.766,0.653,0.19,4.943,-3.112,1.892,1
2.758019,0.758,0.653,0.192,6.713,-3.234,1.831,1
2.766890000000001,0.756,0.657,0.202,7.812,-3.601,1.831,1
2.7743980000000006,0.747,0.656,0.211,8.239,-3.662,1.708,1
2.7810060000000005,0.738,0.66,0.226,8.3,-3.723,1.586,1
2.789383,0.727,0.668,0.236,7.629,-3.479,1.525,1
2.7963309999999995,0.721,0.664,0.246,6.164,-3.295,1.77,1
2.8046610000000003,0.721,0.665,0.248,4.211,-2.502,1.525,1
2.8119810000000003,0.725,0.655,0.252,2.563,-1.831,1.586,1
2.819857,0.729,0.656,0.247,0.61,-1.159,1.77,1
2.827446000000001,0.728,0.645,0.245,-0.915,-0.793,1.831,1
2.8353670000000006,0.735,0.646,0.237,-1.22,-0.061,2.136,1
2.8442300000000005,0.751,0.641,0.222,-0.793,0.0,2.38,1
2.8509400000000005,0.756,0.643,0.223,-0.122,-0.061,2.502,1
2.858524,0.748,0.647,0.226,1.22,-0.183,2.685,1
2.8664110000000003,0.752,0.646,0.228,1.647,-0.061,2.685,1
2.8753660000000005,0.751,0.647,0.23,2.38,0.061,2.624,1
2.882823000000001,0.752,0.653,0.232,2.746,0.183,2.99,1
2.890192,0.751,0.655,0.231,2.746,0.488,3.051,1
2.8981570000000003,0.75,0.659,0.231,2.319,0.793,2.929,1
2.906035,0.757,0.658,0.228,1.403,0.915,3.051,1
2.9131270000000002,0.757,0.669,0.231,0.61,1.037,2.685,1
2.9210280000000006,0.753,0.642,0.231,-2.136,1.281,3.234,1
2.9290849999999997,0.755,0.673,0.226,-2.197,2.075,2.99,1
2.936025,0.751,0.684,0.223,-0.732,1.586,2.441,1
2.944631,0.749,0.669,0.217,1.464,1.892,2.136,1
2.9526390000000005,0.747,0.663,0.202,-0.183,1.892,2.014,1
2.9604369999999998,0.739,0.669,0.198,-0.793,1.831,2.014,1
2.968279,0.735,0.669,0.185,-0.122,2.014,2.319,1
2.976216,0.733,0.662,0.174,0.244,1.647,2.136,1
2.983167000000001,0.722,0.66,0.164,-0.244,1.281,2.014,1
2.990889,0.725,0.662,0.158,-0.488,0.915,2.014,1
2.998495000000001,0.711,0.669,0.16,0.244,0.793,2.075,1
3.006151,0.715,0.666,0.154,0.366,0.366,1.831,1
3.015366000000001,0.712,0.666,0.155,0.488,-0.061,1.892,1
3.0233060000000007,0.707,0.669,0.159,-0.305,-0.61,1.953,1
3.030658,0.71,0.673,0.164,-1.037,-0.793,2.014,1
3.039199000000001,0.709,0.684,0.175,-0.244,-1.403,2.014,1
3.046798,0.718,0.691,0.18,1.342,-1.708,1.708,1
3.055631000000001,0.727,0.691,0.183,2.441,-2.014,1.464,1
3.0622809999999996,0.733,0.689,0.19,2.563,-2.197,1.342,1
3.071359,0.737,0.688,0.2,1.525,-2.197,1.403,1
3.078867,0.747,0.69,0.204,0.305,-1.892,1.342,1
3.087853,0.748,0.693,0.206,-0.305,-1.831,1.098,1
3.0950169999999995,0.756,0.698,0.213,-0.427,-1.647,1.037,1
3.102254000000001,0.757,0.698,0.215,-0.366,-1.831,0.915,1
3.110342,0.755,0.699,0.222,-0.366,-1.525,0.427,1
3.1197050000000006,0.759,0.698,0.226,-0.793,-0.976,0.305,1
3.1275710000000005,0.754,0.704,0.225,-1.22,-0.976,0.183,1
3.1364209999999995,0.753,0.698,0.211,-1.647,-0.61,-0.061,1
3.1432100000000007,0.76,0.699,0.206,-2.136,-0.671,-0.244,1
3.1514250000000006,0.761,0.691,0.198,-1.586,-0.671,-0.915,1
3.160572000000001,0.763,0.687,0.198,-0.793,-0.732,-0.793,1
3.167611,0.756,0.683,0.197,0.183,-1.22,-1.037,1
