timestamp_s,ax,ay,az,gx,gy,gz,label
0.0,-0.868,0.853,-0.153,-92.041,129.272,-23.01,1
0.010491000000000028,-0.853,0.848,-0.145,-86.853,127.929,-24.353,1
0.019093999999999944,-0.831,0.839,-0.136,-84.777,126.464,-25.756,1
0.027940000000000076,-0.818,0.84,-0.134,-87.951,125.793,-26.977,1
0.03445300000000007,-0.804,0.842,-0.133,-94.726,125.122,-28.076,1
0.043254000000000126,-0.795,0.86,-0.134,-100.524,124.389,-29.418,1
0.05040099999999992,-0.799,0.887,-0.131,-103.576,123.168,-30.822,1
0.06060200000000027,-0.796,0.916,-0.126,-103.942,121.582,-32.592,1
0.06827200000000033,-0.773,0.95,-0.113,-102.172,119.445,-35.034,1
0.0762710000000002,-0.767,0.967,-0.104,-100.402,117.553,-37.841,1
0.0853609999999998,-0.742,0.967,-0.088,-100.158,116.027,-40.71,1
0.09324099999999991,-0.697,0.955,-0.064,-100.891,115.539,-44.128,1
0.10027800000000031,-0.662,0.949,-0.04,-101.501,115.295,-48.095,1
0.10807500000000037,-0.657,0.96,-0.015,-97.473,115.295,-51.635,1
0.11572600000000044,-0.684,0.979,0.003,-87.158,114.685,-54.992,1
0.12455600000000011,-0.708,0.985,0.018,-70.8,113.891,-58.166,1
0.1327670000000003,-0.719,0.986,0.015,-59.753,112.854,-60.485,1
0.14004499999999975,-0.743,0.966,0.014,-55.114,112.487,-63.171,1
0.1476280000000001,-0.762,0.957,0.017,-57.617,112.365,-64.941,1
0.15657100000000046,-0.75,0.948,0.022,-62.927,112.731,-66.711,1
0.16369800000000012,-0.729,0.955,0.038,-69.03,113.159,-68.542,1
0.17227499999999996,-0.73,0.954,0.05,-75.195,113.952,-70.251,1
0.18106000000000044,-0.721,0.96,0.06,-79.223,115.234,-71.533,1
0.18876899999999974,-0.7,0.973,0.069,-81.726,115.966,-72.692,1
0.1963020000000002,-0.704,0.977,0.072,-82.092,117.309,-74.157,1
0.20359000000000016,-0.692,0.975,0.065,-85.815,118.591,-75.012,1
0.2123520000000001,-0.69,0.976,0.053,-93.078,119.812,-75.256,1
0.22005199999999991,-0.687,0.995,0.032,-104.98,121.154,-75.683,1
0.2295379999999998,-0.678,1.014,0.004,-115.6,122.009,-76.171,1
0.23625499999999988,-0.678,1.047,-0.032,-124.084,122.253,-77.27,1
0.24527199999999993,-0.678,1.066,-0.066,-130.004,122.009,-79.284,1
0.253819,-0.692,1.09,-0.09,-130.859,121.337,-81.787,1
0.2625510000000002,-0.673,1.102,-0.115,-127.685,119.75,-84.289,1
0.2705359999999999,-0.669,1.115,-0.124,-119.812,117.675,-87.097,1
0.2782650000000002,-0.664,1.125,-0.143,-108.032,115.234,-88.928,1
0.287693,-0.645,1.137,-0.162,-100.158,112.976,-90.576,1
0.2940870000000002,-0.629,1.158,-0.177,-94.909,110.9,-91.674,1
0.3045200000000001,-0.584,1.175,-0.19,-92.285,108.642,-92.773,1
0.31254700000000035,-0.569,1.208,-0.222,-94.604,106.75,-93.933,1
0.3212760000000001,-0.539,1.22,-0.241,-104.125,105.346,-95.886,1
0.33032799999999973,-0.513,1.243,-0.261,-118.041,104.248,-98.205,1
0.33831900000000026,-0.489,1.286,-0.265,-127.563,102.233,-100.708,1
0.3476189999999999,-0.451,1.338,-0.267,-126.831,99.609,-103.149,1
0.35494300000000045,-0.443,1.376,-0.275,-119.873,96.008,-106.079,1
0.362838,-0.438,1.411,-0.295,-113.098,92.224,-109.68,1
0.3732509999999998,-0.444,1.438,-0.311,-110.29,89.294,-113.22,1
0.38103700000000007,-0.459,1.436,-0.353,-112.121,87.097,-118.347,1
0.38819800000000004,-0.464,1.422,-0.392,-120.178,85.632,-123.046,1
0.39657699999999974,-0.458,1.397,-0.44,-135.375,83.862,-128.723,1
0.4061269999999997,-0.459,1.393,-0.466,-148.742,81.665,-134.155,1
0.4130029999999998,-0.457,1.388,-0.493,-154.846,78.308,-138.854,1
0.4211910000000003,-0.461,1.372,-0.498,-154.113,74.462,-143.371,1
0.42964999999999964,-0.461,1.368,-0.514,-143.798,68.786,-148.132,1
0.43730199999999986,-0.46,1.34,-0.529,-127.563,62.805,-152.648,1
0.4472100000000001,-0.457,1.297,-0.542,-117.309,57.983,-156.005,1
0.4552139999999998,-0.465,1.252,-0.551,-110.412,53.283,-159.179,1
0.46240900000000007,-0.459,1.202,-0.565,-106.628,49.56,-161.193,1
0.471622,-0.445,1.174,-0.58,-103.393,45.898,-162.963,1
0.4800709999999997,-0.435,1.152,-0.616,-101.074,42.602,-164.794,1
0.48737799999999964,-0.439,1.149,-0.643,-96.801,38.024,-166.015,1
0.4952610000000002,-0.42,1.139,-0.682,-91.491,33.935,-166.992,1
0.5044029999999999,-0.442,1.149,-0.712,-84.96,30.151,-168.09,1
0.51166,-0.416,1.148,-0.728,-77.026,25.878,-168.884,1
0.5195090000000002,-0.38,1.15,-0.746,-69.03,21.545,-169.921,1
0.5283199999999999,-0.37,1.142,-0.76,-64.208,17.883,-170.837,1
0.5357120000000002,-0.352,1.127,-0.767,-63.842,14.892,-171.752,1
0.5450670000000004,-0.341,1.112,-0.768,-69.824,12.023,-172.546,1
0.5534699999999999,-0.318,1.106,-0.77,-80.017,9.399,-173.583,1
0.5619329999999998,-0.312,1.113,-0.772,-85.205,6.896,-174.194,1
0.5688690000000003,-0.286,1.112,-0.783,-87.219,3.479,-175.415,1
0.5763879999999997,-0.276,1.112,-0.781,-87.158,0.183,-176.33,1
0.5844300000000002,-0.279,1.112,-0.777,-83.801,-3.662,-177.368,1
0.5940010000000004,-0.263,1.091,-0.765,-79.04,-6.896,-178.405,1
0.602169,-0.264,1.069,-0.758,-73.12,-10.803,-179.443,1
0.6106220000000002,-0.261,1.03,-0.742,-70.007,-13.366,-180.847,1
0.6196869999999999,-0.258,0.989,-0.722,-67.504,-15.747,-181.823,1
0.6288280000000004,-0.241,0.966,-0.7,-67.687,-17.822,-182.8,1
0.6380359999999996,-0.233,0.935,-0.679,-68.237,-19.958,-184.02,1
0.644647,-0.223,0.9,-0.654,-69.335,-21.789,-185.424,1
0.652094,-0.221,0.859,-0.624,-71.96,-22.705,-186.34,1
0.6606909999999999,-0.198,0.807,-0.592,-76.232,-23.376,-186.706,1
0.6692169999999997,-0.184,0.771,-0.572,-79.833,-23.864,-187.011,1
0.6769829999999999,-0.162,0.726,-0.548,-80.566,-25.085,-187.194,1
0.685441,-0.156,0.685,-0.53,-78.308,-25.939,-187.011,1
0.6936520000000002,-0.138,0.635,-0.521,-74.768,-26.55,-186.706,1
0.702134,-0.125,0.593,-0.523,-74.951,-26.855,-186.279,1
0.7116049999999996,-0.097,0.548,-0.527,-77.148,-27.221,-185.852,1
0.7190890000000003,-0.072,0.519,-0.527,-75.866,-27.709,-184.936,1
0.7287820000000007,-0.061,0.489,-0.54,-72.692,-28.198,-184.265,1
0.7373890000000003,-0.001,0.454,-0.547,-68.054,-28.869,-182.8,1
0.7446710000000003,-0.004,0.432,-0.563,-62.133,-29.907,-181.762,1
0.7543020000000009,0.019,0.394,-0.576,-55.358,-30.883,-179.626,1
0.7611860000000004,0.039,0.364,-0.589,-49.804,-31.555,-178.527,1
0.7686270000000004,0.056,0.349,-0.592,-45.471,-32.531,-177.001,1
0.7775449999999999,0.06,0.319,-0.582,-40.405,-33.447,-175.903,1
0.7848389999999998,0.062,0.287,-0.572,-35.156,-34.301,-174.743,1
0.7935770000000009,0.062,0.254,-0.562,-29.296,-35.034,-173.4,1
0.8006630000000001,0.079,0.222,-0.547,-23.132,-35.278,-171.813,1
0.8096429999999994,0.103,0.197,-0.548,-18.981,-35.461,-170.41,1
0.8167360000000006,0.127,0.18,-0.546,-16.235,-34.912,-168.457,1
0.8251260000000009,0.151,0.16,-0.538,-15.014,-34.545,-166.564,1
0.8341569999999994,0.172,0.129,-0.547,-17.15,-33.264,-164.611,1
0.8410489999999999,0.193,0.103,-0.545,-22.277,-32.531,-162.963,1
0.8482240000000001,0.211,0.082,-0.551,-29.968,-31.372,-161.682,1
0.8572760000000006,0.212,0.063,-0.533,-38.33,-30.029,-160.217,1
0.8649369999999994,0.233,0.055,-0.525,-41.198,-29.785,-158.508,1
0.8740089999999991,0.255,0.044,-0.516,-38.452,-29.479,-157.226,1
0.8814340000000005,0.272,0.034,-0.5,-31.921,-29.846,-156.311,1
0.8886009999999995,0.301,0.023,-0.487,-21.362,-30.09,-154.907,1
0.8974329999999995,0.324,0.005,-0.483,-13.0,-29.663,-153.747,1
0.9047809999999998,0.348,-0.017,-0.464,-5.371,-28.564,-152.526,1
0.9140060000000005,0.35,-0.029,-0.456,-1.831,-26.916,-151.306,1
0.9217840000000006,0.388,-0.059,-0.445,-2.868,-24.414,-149.963,1
0.9306769999999993,0.402,-0.076,-0.443,-9.277,-21.362,-149.047,1
0.938682,0.384,-0.095,-0.43,-17.15,-18.493,-148.437,1
0.9471760000000007,0.38,-0.113,-0.416,-25.39,-15.808,-147.644,1
0.9562050000000006,0.387,-0.142,-0.413,-31.005,-13.366,-146.789,1
0.9633570000000002,0.373,-0.161,-0.406,-37.048,-11.352,-146.118,1
0.9713180000000001,0.36,-0.167,-0.402,-40.527,-9.765,-145.751,1
0.9807190000000006,0.335,-0.18,-0.397,-41.992,-8.666,-145.202,1
0.9896899999999995,0.316,-0.184,-0.393,-39.306,-7.568,-145.019,1
0.9968280000000007,0.286,-0.213,-0.388,-33.691,-7.019,-145.141,1
1.0063049999999993,0.262,-0.24,-0.39,-27.404,-6.469,-145.324,1
1.0147139999999997,0.234,-0.257,-0.388,-22.644,-5.249,-145.202,1
1.0250950000000003,0.226,-0.296,-0.391,-22.949,-3.234,-144.592,1
1.032947,0.205,-0.344,-0.402,-29.541,-1.525,-143.615,1
1.039987,0.183,-0.376,-0.406,-37.902,0.732,-142.395,1
1.0488750000000007,0.154,-0.406,-0.411,-50.781,3.173,-140.93,1
1.0578880000000002,0.137,-0.429,-0.424,-63.293,5.615,-139.77,1
1.0667139999999993,0.121,-0.469,-0.428,-72.57,7.019,-138.061,1
1.0753009999999996,0.101,-0.506,-0.433,-81.42,9.094,-135.681,1
1.0833860000000008,0.053,-0.522,-0.44,-85.083,10.131,-134.399,1
1.0928850000000008,0.005,-0.547,-0.44,-83.618,10.07,-133.056,1
1.0999850000000002,-0.029,-0.609,-0.461,-81.787,10.62,-131.469,1
1.1087889999999998,-0.042,-0.656,-0.462,-84.35,10.803,-129.15,1
1.1162600000000005,-0.068,-0.706,-0.462,-85.021,10.864,-127.502,1
1.1257160000000006,-0.084,-0.727,-0.454,-74.707,8.85,-125.061,1
1.1334090000000003,-0.085,-0.77,-0.445,-57.556,6.835,-123.168,1
1.14316,-0.068,-0.804,-0.413,-20.996,3.906,-120.483,1
1.1505589999999994,-0.046,-0.855,-0.411,7.69,0.854,-118.225,1
1.1584889999999994,-0.057,-0.931,-0.386,32.714,-0.427,-114.807,1
1.1679709999999996,-0.058,-1.036,-0.368,43.457,0.915,-110.107,1
1.1772580000000001,-0.084,-1.123,-0.344,38.085,3.723,-105.285,1
1.1853630000000006,-0.101,-1.183,-0.324,23.071,7.568,-100.402,1
1.1926939999999995,-0.12,-1.24,-0.308,-0.854,12.512,-94.055,1
1.2024249999999999,-0.131,-1.286,-0.29,-22.583,16.845,-87.158,1
1.2106399999999997,-0.129,-1.322,-0.261,-33.813,19.042,-80.749,1
1.2175499999999992,-0.172,-1.34,-0.219,-32.348,21.545,-72.631,1
1.226299000000001,-0.193,-1.362,-0.2,-22.46,22.644,-65.612,1
1.2348040000000005,-0.262,-1.4,-0.179,-10.925,24.902,-56.518,1
1.2442430000000009,-0.303,-1.439,-0.166,-5.981,28.076,-47.241,1
1.2532840000000007,-0.352,-1.444,-0.153,-3.479,30.7,-38.879,1
1.2615479999999994,-0.432,-1.467,-0.13,4.638,33.874,-28.808,1
1.2697590000000005,-0.475,-1.518,-0.11,10.681,37.78,-17.333,1
1.2778840000000002,-0.52,-1.541,-0.09,12.817,42.053,-5.554,1
1.2871279999999992,-0.55,-1.56,-0.055,25.939,46.569,7.263,1
1.2945700000000002,-0.617,-1.575,-0.04,37.902,49.316,19.042,1
1.3038070000000008,-0.677,-1.591,-0.038,48.706,54.504,33.752,1
1.3129969999999993,-0.766,-1.606,-0.05,51.94,58.349,46.569,1
1.3199900000000007,-0.888,-1.613,-0.064,51.696,64.27,62.805,1
1.3290640000000007,-0.964,-1.598,-0.067,44.372,69.702,79.284,1
1.3362999999999996,-1.047,-1.618,-0.086,33.569,75.012,93.933,1
1.3441670000000006,-1.162,-1.616,-0.106,10.742,82.763,111.633,1
1.3524659999999997,-1.255,-1.601,-0.107,-4.516,89.477,127.258,1
1.3600480000000008,-1.373,-1.588,-0.104,-17.944,96.862,143.432,1
1.3681059999999992,-1.532,-1.586,-0.108,-35.278,106.628,163.452,1
1.3768170000000008,-1.653,-1.577,-0.114,-48.4,115.905,182.128,1
1.3853810000000006,-1.831,-1.574,-0.1,-59.448,127.502,205.444,1
1.3933680000000006,-1.911,-1.587,-0.117,-61.584,138.305,227.539,1
1.4023690000000002,-2.085,-1.586,-0.122,-53.955,150.512,255.126,1
1.4102899999999998,-2.363,-1.594,-0.172,-41.87,163.94,284.606,1
1.4205509999999997,-2.658,-1.59,-0.202,-32.47,175.598,310.974,1
1.4278720000000007,-3.04,-1.542,-0.277,-16.418,188.842,347.717,1
1.4356039999999997,-3.339,-1.581,-0.34,-1.892,199.645,378.051,1
1.4428909999999995,-3.716,-1.625,-0.414,5.981,209.35,410.766,1
1.452019,-4.285,-1.591,-0.477,16.418,218.566,445.007,1
1.4608930000000004,-4.946,-1.549,-0.577,46.63,225.524,493.041,1
1.469246,-5.536,-1.502,-0.635,81.054,227.966,531.677,1
1.4775480000000005,-6.347,-1.438,-0.733,118.652,226.074,572.204,1
1.4851089999999996,-7.343,-1.322,-0.857,177.001,215.576,622.253,1
1.4922780000000007,-8.228,-1.263,-0.988,232.849,198.059,668.151,1
1.5012249999999998,-9.451,-1.219,-1.13,279.235,174.682,716.308,1
1.5084560000000007,-10.593,-1.183,-1.272,317.016,139.648,774.475,1
1.5173290000000001,-11.708,-1.158,-1.385,335.327,102.05,824.768,1
1.5247779999999995,-13.061,-1.072,-1.444,352.172,51.086,884.155,1
1.5341199999999997,-14.297,-0.922,-1.473,382.751,-1.77,933.715,1
1.5425310000000003,-15.999,-0.673,-1.424,447.936,-89.782,994.323,1
1.5512029999999992,-15.999,-0.472,-1.386,499.023,-168.884,1033.203,1
1.5599240000000005,-15.999,-0.153,-1.26,546.142,-272.705,1066.772,1
1.5675849999999993,-15.999,0.183,-1.094,557.189,-382.202,1085.205,1
1.57653,-15.999,0.541,-0.795,555.847,-473.937,1091.796,1
1.5845649999999996,-15.999,1.037,-0.41,565.673,-580.078,1085.937,1
1.5922820000000009,-15.999,1.407,0.026,572.143,-687.011,1067.565,1
1.6005450000000003,-15.999,1.638,0.514,573.547,-774.902,1044.921,1
1.608993,-15.999,1.717,1.067,586.486,-864.685,1017.089,1
1.6168329999999997,-15.999,2.002,1.892,608.581,-942.565,980.712,1
1.6237929999999992,-15.999,2.439,2.493,664.55,-1020.507,931.701,1
1.6325249999999993,-15.999,2.858,3.27,761.84,-1104.797,864.685,1
1.6393540000000009,-15.999,3.242,3.528,845.886,-1170.166,783.264,1
1.6492179999999994,-15.999,3.891,3.711,979.736,-1238.464,664.245,1
1.6554029999999997,-15.999,4.308,3.735,1128.906,-1285.217,497.68,1
1.6635550000000006,-15.999,4.187,3.67,1203.552,-1309.631,297.851,1
1.6708079999999992,-15.999,3.612,3.536,1167.053,-1294.311,98.205,1
1.6785230000000002,-15.999,2.841,3.673,1112.304,-1251.892,-83.984,1
1.6866959999999995,-15.999,2.108,3.488,1092.956,-1169.189,-245.3,1
1.6945390000000007,-15.999,1.635,3.433,1036.132,-1078.43,-381.774,1
1.7017369999999996,-15.999,1.119,3.214,974.914,-963.561,-496.52,1
1.7094839999999998,-15.999,0.7,2.882,863.037,-838.684,-601.196,1
1.7176039999999997,-15.69,0.362,2.516,733.825,-726.806,-662.902,1
1.7270109999999992,-14.82,0.216,2.509,545.898,-617.675,-706.848,1
1.734508,-14.256,0.133,2.47,403.686,-531.188,-723.632,1
1.7437199999999997,-13.89,0.013,2.495,280.517,-458.679,-724.365,1
1.7512120000000007,-12.593,-0.191,2.556,221.923,-390.197,-712.524,1
1.7588349999999995,-11.68,-0.423,2.635,207.092,-349.426,-697.814,1
1.7687340000000003,-10.803,-0.683,2.738,220.031,-301.452,-675.903,1
1.7778399999999994,-9.676,-0.968,2.672,257.812,-251.281,-655.212,1
1.784879,-8.361,-1.373,2.605,266.784,-185.546,-628.173,1
1.7929949999999995,-7.48,-1.706,2.527,220.336,-140.747,-605.957,1
1.8034420000000004,-6.854,-1.903,2.418,145.08,-94.909,-581.665,1
1.8127589999999998,-6.158,-1.948,2.445,86.303,-50.109,-549.987,1
1.8202999999999996,-5.47,-1.927,2.312,109.069,-19.165,-518.371,1
1.829713,-5.146,-1.898,2.224,178.039,5.432,-482.971,1
1.8376509999999993,-4.825,-1.933,2.026,234.191,26.916,-451.293,1
1.8451710000000006,-4.473,-1.935,1.867,274.108,55.786,-413.635,1
1.8543339999999997,-4.023,-2.034,1.607,270.874,84.045,-376.159,1
1.8629619999999996,-3.555,-2.102,1.429,228.454,112.792,-338.378,1
1.8707209999999996,-3.125,-2.128,1.252,183.532,130.432,-308.227,1
1.8781359999999996,-2.811,-2.133,1.161,148.925,145.69,-279.235,1
1.8886800000000008,-2.578,-2.117,1.029,115.356,157.714,-247.314,1
1.8958359999999992,-2.387,-2.052,0.94,97.29,167.602,-218.017,1
1.903855,-2.129,-2.024,0.831,95.52,173.583,-190.002,1
1.9117510000000006,-1.923,-2.005,0.725,93.811,178.161,-166.442,1
1.9194530000000007,-1.727,-1.958,0.624,87.89,180.358,-144.042,1
1.9273659999999992,-1.517,-1.895,0.539,85.937,182.312,-122.07,1
1.9365269999999999,-1.294,-1.783,0.441,93.749,181.152,-97.045,1
1.9436900000000001,-1.078,-1.718,0.365,105.041,179.992,-75.988,1
1.951581000000001,-0.891,-1.63,0.276,111.694,177.246,-55.786,1
1.9594850000000008,-0.738,-1.514,0.208,117.37,173.828,-35.827,1
1.969963,-0.662,-1.413,0.159,121.093,169.616,-14.526,1
1.977207,-0.586,-1.279,0.121,124.755,164.916,5.065,1
1.9844670000000004,-0.507,-1.158,0.103,130.187,160.217,20.507,1
1.9922179999999994,-0.401,-1.015,0.087,141.662,154.418,37.353,1
2.0011340000000004,-0.296,-0.883,0.076,154.846,148.437,50.598,1
2.0084789999999995,-0.187,-0.732,0.07,172.729,141.54,64.819,1
2.0181620000000002,-0.111,-0.608,0.067,186.279,135.437,75.927,1
2.0252619999999997,-0.029,-0.475,0.071,197.875,129.211,87.951,1
2.03439,0.013,-0.368,0.079,202.819,124.572,96.984,1
2.041596,0.051,-0.256,0.082,204.04,119.689,106.384,1
2.049519,0.097,-0.177,0.096,200.561,116.271,113.22,1
2.0586260000000003,0.156,-0.104,0.102,192.749,113.037,119.445,1
2.065557,0.194,-0.04,0.115,181.884,110.656,125.122,1
2.074598999999999,0.215,0.02,0.113,168.273,108.093,130.371,1
2.0824499999999997,0.233,0.089,0.11,156.188,105.712,133.605,1
2.089504,0.248,0.147,0.115,140.014,102.844,136.718,1
2.0976429999999997,0.276,0.187,0.114,127.685,100.708,138.793,1
2.1045739999999995,0.323,0.21,0.114,115.905,97.656,139.587,1
2.111433,0.373,0.232,0.131,107.299,97.29,140.563,1
2.1181610000000006,0.422,0.264,0.127,99.426,95.336,140.991,1
2.1266940000000005,0.442,0.308,0.148,97.473,94.909,140.93,1
2.133959000000001,0.46,0.329,0.132,98.693,93.994,140.136,1
2.1430950000000006,0.461,0.378,0.146,101.928,92.224,139.099,1
2.149101,0.506,0.403,0.137,108.032,91.247,137.573,1
2.1576660000000007,0.526,0.426,0.147,113.098,89.965,136.779,1
2.1652310000000003,0.56,0.453,0.127,115.478,88.439,135.742,1
2.1725189999999994,0.575,0.479,0.127,113.952,87.158,134.704,1
2.181386,0.583,0.495,0.11,108.825,86.242,133.422,1
2.1884829999999997,0.594,0.525,0.123,100.341,85.449,131.958,1
2.1958990000000007,0.606,0.566,0.124,91.979,85.266,129.76,1
2.2048450000000006,0.628,0.616,0.135,87.341,84.96,127.624,1
2.2127940000000006,0.64,0.667,0.13,87.89,85.021,124.694,1
2.220547,0.648,0.705,0.135,94.543,83.435,121.398,1
2.227608,0.65,0.726,0.137,104.614,82.458,118.469,1
2.2365969999999997,0.67,0.733,0.14,116.027,80.505,116.088,1
2.2438509999999994,0.688,0.745,0.146,127.441,79.528,114.196,1
2.2515719999999995,0.707,0.751,0.161,138.305,78.247,112.609,1
2.2599610000000006,0.697,0.74,0.168,149.536,77.636,110.534,1
2.2676870000000005,0.77,0.718,0.181,155.7,77.453,109.741,1
2.2757330000000007,0.758,0.684,0.18,153.076,78.979,109.68,1
2.283443,0.703,0.679,0.169,144.836,80.383,109.13,1
2.2910439999999994,0.785,0.662,0.175,141.601,82.336,109.68,1
2.29861,0.782,0.633,0.147,136.84,83.251,110.29,1
2.3073999999999995,0.786,0.617,0.138,131.225,84.106,111.389,1
2.3126610000000003,0.791,0.617,0.135,124.877,85.693,112.487,1
2.3207079999999998,0.812,0.612,0.13,121.032,87.646,113.83,1
2.328328000000001,0.856,0.626,0.13,114.685,89.965,115.722,1
2.3360450000000004,0.828,0.644,0.117,103.515,92.834,116.882,1
2.3442159999999994,0.786,0.666,0.117,92.163,94.909,118.103,1
2.3519159999999992,0.746,0.693,0.113,84.777,97.412,118.53,1
2.3594980000000003,0.679,0.703,0.089,78.979,99.121,119.567,1
2.368010999999999,0.761,0.693,0.083,73.364,100.891,120.544,1
2.3761989999999997,0.726,0.692,0.063,65.307,103.454,121.276,1
2.3824170000000002,0.634,0.68,0.032,60.668,105.59,121.398,1
2.390663,0.706,0.667,0.015,60.791,106.506,122.07,1
2.399311000000001,0.652,0.665,-0.038,70.007,107.055,122.924,1
2.4070990000000005,0.555,0.637,-0.075,76.965,105.773,123.352,1
2.4148689999999995,0.469,0.617,-0.115,92.102,104.553,124.938,1
2.421811999999999,0.408,0.587,-0.167,103.759,101.196,126.098,1
2.4290350000000007,0.394,0.554,-0.177,112.426,99.182,127.807,1
2.4375870000000006,0.315,0.546,-0.213,119.079,96.496,129.76,1
2.4458249999999992,0.302,0.524,-0.224,135.375,92.956,131.774,1
2.4527909999999995,0.267,0.49,-0.255,148.62,88.5,134.216,1
2.4607340000000004,0.231,0.472,-0.262,160.034,85.327,137.207,1
2.468605,0.199,0.467,-0.292,171.325,80.932,140.136,1
2.4764429999999997,0.156,0.475,-0.299,184.387,76.721,143.31,1
2.484083,0.142,0.47,-0.319,196.655,71.166,147.521,1
2.4917990000000003,0.067,0.463,-0.342,200.866,67.199,150.39,1
2.5002139999999997,0.031,0.457,-0.345,201.171,62.133,154.785,1
2.507605,-0.002,0.448,-0.349,196.105,57.922,158.691,1
2.5163469999999997,-0.031,0.439,-0.33,187.622,54.565,162.231,1
2.5238829999999997,-0.02,0.411,-0.3,177.612,50.781,166.992,1
2.5311439999999994,0.026,0.385,-0.286,169.006,49.743,172.058,1
2.5385980000000004,0.066,0.382,-0.323,153.076,48.217,176.513,1
2.547580999999999,-0.025,0.414,-0.348,132.568,47.18,179.687,1
2.5568469999999994,-0.13,0.45,-0.367,115.966,45.104,182.617,1
2.56377,-0.217,0.451,-0.362,97.473,43.151,186.34,1
2.570907,-0.329,0.47,-0.393,77.514,42.114,190.429,1
2.580043,-0.417,0.489,-0.374,57.678,40.527,193.176,1
2.588781000000001,-0.556,0.514,-0.382,36.437,40.1,195.495,1
2.5945750000000007,-0.652,0.542,-0.343,16.906,40.283,196.899,1
2.6049450000000007,-0.653,0.561,-0.331,9.704,40.222,198.791,1
2.613137,-0.685,0.614,-0.333,12.329,39.428,200.866,1
2.6212280000000003,-0.673,0.64,-0.364,15.197,37.719,202.148,1
2.628337,-0.708,0.699,-0.388,22.399,34.729,203.308,1
2.6363909999999997,-0.757,0.733,-0.395,34.667,31.433,204.345,1
2.6434409999999993,-0.873,0.751,-0.422,41.503,27.526,204.895,1
2.651325999999999,-0.898,0.772,-0.416,45.532,24.353,205.505,1
2.6595940000000002,-0.854,0.776,-0.392,52.246,20.019,206.909,1
2.6668000000000003,-0.845,0.764,-0.335,59.936,15.441,208.251,1
2.6765410000000003,-0.828,0.742,-0.295,60.729,12.756,209.96,1
2.683738,-0.82,0.737,-0.265,53.527,12.268,212.707,1
2.6927470000000007,-0.823,0.774,-0.286,38.818,10.742,215.087,1
2.699593,-0.879,0.838,-0.259,27.954,9.643,216.369,1
2.7078190000000006,-0.91,0.861,-0.259,18.432,8.911,217.346,1
