timestamp_s,ax,ay,az,gx,gy,gz,label
0.004994,0.647,0.777,-0.098,0.0,-0.061,0.061,1
0.014344,0.646,0.78,-0.1,-0.305,0.122,0.244,1
0.021762,0.647,0.781,-0.098,-0.183,-0.183,0.183,1
0.028477,0.647,0.775,-0.094,0.244,-0.122,0.061,1
0.036717,0.647,0.774,-0.093,0.305,-0.366,0.0,1
0.042981,0.644,0.772,-0.092,0.183,-0.244,-0.122,1
0.051172,0.645,0.775,-0.097,0.183,-0.305,-0.061,1
0.059237,0.653,0.772,-0.095,0.488,-0.427,0.0,1
0.066687,0.647,0.774,-0.095,0.732,-0.427,-0.122,1
0.07537,0.646,0.773,-0.096,0.549,-0.488,-0.122,1
0.083829,0.647,0.766,-0.095,0.0,-0.366,-0.366,1
0.092556,0.648,0.768,-0.097,0.0,-0.549,-0.122,1
0.099421,0.648,0.77,-0.095,-0.183,-0.488,0.0,1
0.107284,0.647,0.77,-0.097,-0.122,-0.305,-0.244,1
0.115989,0.645,0.766,-0.097,-0.366,-0.183,-0.366,1
0.123403,0.646,0.764,-0.098,-0.793,-0.427,-0.366,1
0.132065,0.645,0.769,-0.099,-0.244,-0.427,-0.183,1
0.13855,0.651,0.767,-0.095,0.427,-0.61,-0.183,1
0.147034,0.645,0.768,-0.091,0.61,-0.488,-0.183,1
0.155439,0.645,0.771,-0.09,0.549,-0.488,-0.488,1
0.164245,0.645,0.767,-0.09,0.366,-0.549,-0.183,1
0.171184,0.643,0.767,-0.085,0.122,-0.366,-0.244,1
0.18093,0.645,0.768,-0.091,-0.305,-0.366,-0.305,1
0.188012,0.644,0.767,-0.092,-0.366,-0.183,-0.366,1
0.195311,0.649,0.769,-0.089,-0.244,-0.244,-0.122,1
0.204442,0.644,0.77,-0.093,-0.122,-0.122,-0.244,1
0.211415,0.646,0.768,-0.097,0.061,-0.183,-0.183,1
0.220687,0.647,0.769,-0.09,-0.061,-0.244,-0.244,1
0.227445,0.647,0.77,-0.095,0.122,-0.488,-0.244,1
0.236833,0.647,0.769,-0.087,0.122,-0.305,-0.061,1
0.243883,0.646,0.771,-0.09,0.244,-0.305,-0.305,1
0.253064,0.644,0.765,-0.092,0.122,-0.366,-0.061,1
0.260232,0.646,0.765,-0.09,0.0,-0.244,-0.061,1
0.26932,0.646,0.765,-0.093,-0.122,-0.244,-0.061,1
0.277532,0.646,0.761,-0.095,-0.305,-0.183,-0.061,1
0.284558,0.645,0.76,-0.096,0.122,-0.183,-0.122,1
0.293848,0.646,0.759,-0.098,0.427,-0.244,-0.122,1
0.301444,0.645,0.758,-0.089,0.854,-0.427,0.0,1
0.308249,0.644,0.756,-0.091,1.22,-0.427,0.0,1
0.316302,0.643,0.762,-0.092,1.403,-0.671,0.183,1
0.324349,0.64,0.758,-0.089,0.732,-0.122,0.427,1
0.331855,0.645,0.757,-0.087,-0.183,-0.061,0.427,1
0.340215,0.644,0.753,-0.092,-0.488,-0.061,0.488,1
0.348923,0.644,0.759,-0.093,-0.366,0.061,0.61,1
0.356386,0.645,0.759,-0.099,-0.427,0.061,0.793,1
0.364319,0.645,0.759,-0.101,-0.488,-0.183,0.488,1
0.372631,0.645,0.766,-0.102,-0.732,-0.305,0.793,1
0.379716,0.648,0.764,-0.102,-0.427,-0.488,0.854,1
0.388989,0.647,0.769,-0.103,-0.305,-0.854,0.549,1
0.396436,0.654,0.769,-0.102,0.488,-0.671,0.488,1
0.403587,0.655,0.769,-0.092,0.854,-0.915,0.61,1
0.411002,0.651,0.765,-0.086,0.732,-0.793,0.671,1
0.419549,0.649,0.77,-0.083,0.305,-0.61,0.61,1
0.42779,0.647,0.771,-0.076,0.183,-0.549,0.61,1
0.435693,0.648,0.771,-0.073,0.427,0.0,0.61,1
0.442958,0.642,0.768,-0.081,0.488,-0.122,0.732,1
0.450459,0.641,0.775,-0.081,0.0,0.061,0.732,1
0.459366,0.639,0.775,-0.088,-0.976,0.427,0.427,1
0.466166,0.638,0.774,-0.089,-1.342,0.305,0.488,1
0.474307,0.635,0.773,-0.091,-0.976,0.366,0.305,1
0.483709,0.637,0.771,-0.097,-0.61,0.183,0.366,1
0.491538,0.642,0.762,-0.097,-1.098,0.122,0.244,1
0.499208,0.647,0.764,-0.1,-1.586,0.305,0.183,1
0.506789,0.651,0.763,-0.094,-1.342,0.122,0.61,1
0.514415,0.651,0.762,-0.099,-1.22,0.366,0.366,1
0.523542,0.646,0.762,-0.097,-1.098,0.305,0.671,1
0.531149,0.646,0.759,-0.1,-1.464,0.0,0.671,1
0.538883,0.648,0.765,-0.099,-1.464,0.061,0.854,1
0.546523,0.649,0.762,-0.103,-1.892,0.366,0.854,1
0.554162,0.652,0.763,-0.105,-2.075,0.305,0.671,1
0.561889,0.648,0.759,-0.107,-2.441,0.183,0.732,1
0.570871,0.645,0.759,-0.107,-2.136,0.122,0.915,1
0.577561,0.647,0.756,-0.113,-2.258,0.0,0.915,1
0.586273,0.648,0.754,-0.115,-1.892,-0.305,1.037,1
0.594181,0.653,0.755,-0.117,-1.525,-0.427,0.976,1
0.60244,0.656,0.752,-0.118,-0.732,-0.488,1.098,1
0.610056,0.658,0.758,-0.12,0.0,-1.037,1.22,1
0.616527,0.66,0.755,-0.116,0.915,-0.976,1.159,1
0.626072,0.656,0.754,-0.114,1.342,-1.342,0.915,1
0.632736,0.656,0.751,-0.113,1.525,-1.342,1.159,1
0.64093,0.656,0.755,-0.107,1.22,-1.586,1.281,1
0.64746,0.654,0.756,-0.108,0.854,-1.525,1.342,1
0.655244,0.656,0.759,-0.104,0.793,-1.708,1.464,1
0.664239,0.655,0.758,-0.101,0.915,-1.831,1.77,1
0.671191,0.657,0.757,-0.101,1.22,-1.708,1.586,1
0.67888,0.652,0.756,-0.094,1.281,-1.647,1.525,1
0.686645,0.646,0.759,-0.091,1.464,-1.892,1.586,1
0.695476,0.645,0.76,-0.09,1.22,-2.075,1.525,1
0.702957,0.646,0.762,-0.081,1.525,-1.953,1.464,1
0.710504,0.645,0.765,-0.076,1.342,-1.892,1.464,1
0.719436,0.643,0.763,-0.07,1.22,-1.586,1.403,1
0.727011,0.644,0.763,-0.063,1.159,-1.403,1.403,1
0.735169,0.637,0.762,-0.053,1.342,-1.098,1.281,1
0.742467,0.64,0.759,-0.049,1.586,-0.854,1.586,1
0.750063,0.64,0.758,-0.05,1.525,-0.366,1.586,1
0.757781,0.638,0.759,-0.054,1.831,0.122,1.77,1
0.766323,0.636,0.758,-0.056,2.075,0.366,1.831,1
0.773337,0.637,0.762,-0.061,2.136,0.244,2.014,1
0.782682,0.634,0.767,-0.068,1.77,0.549,2.197,1
0.789809,0.636,0.769,-0.08,1.647,0.671,2.136,1
0.797192,0.634,0.775,-0.087,1.22,0.854,2.197,1
0.804708,0.624,0.777,-0.092,1.281,0.61,2.319,1
0.813273,0.623,0.78,-0.098,1.403,0.549,2.136,1
0.821394,0.62,0.781,-0.105,0.915,0.366,2.136,1
0.829572,0.616,0.773,-0.096,0.305,0.244,2.136,1
0.836529,0.616,0.77,-0.099,-0.244,0.0,2.197,1
0.843731,0.617,0.767,-0.097,-0.427,0.061,2.38,1
0.85296,0.62,0.76,-0.094,-0.366,0.183,2.441,1
0.861188,0.62,0.757,-0.092,-0.183,0.0,2.746,1
0.868601,0.624,0.753,-0.094,0.122,0.0,3.173,1
0.87747,0.625,0.754,-0.093,0.61,-0.061,3.54,1
0.884486,0.628,0.751,-0.101,0.122,0.0,3.845,1
0.8929,0.634,0.758,-0.104,-0.549,0.0,3.967,1
0.899802,0.64,0.763,-0.11,-1.037,-0.061,4.211,1
0.908692,0.638,0.771,-0.113,-0.915,-0.244,4.15,1
0.916251,0.646,0.782,-0.116,-0.427,-0.427,4.15,1
0.923658,0.645,0.791,-0.123,-1.22,-0.854,4.028,1
0.933054,0.646,0.795,-0.133,-1.098,-0.915,3.723,1
0.940882,0.648,0.804,-0.134,-0.915,-1.403,3.723,1
0.948071,0.65,0.804,-0.135,-0.793,-1.77,3.356,1
0.95724,0.647,0.809,-0.137,-0.915,-2.014,2.929,1
0.964327,0.647,0.804,-0.146,-0.976,-2.441,2.502,1
0.97326,0.64,0.804,-0.143,-0.793,-2.929,2.502,1
0.98111,0.641,0.8,-0.136,-0.549,-3.295,2.502,1
0.988411,0.633,0.798,-0.14,-0.061,-3.601,2.136,1
0.996055,0.63,0.804,-0.139,0.549,-3.906,2.197,1
1.00369,0.621,0.805,-0.128,1.647,-4.394,2.38,1
1.012646,0.615,0.808,-0.125,2.38,-4.699,2.258,1
1.02088,0.61,0.809,-0.112,2.502,-4.943,2.197,1
1.028755,0.606,0.817,-0.1,2.441,-5.493,2.38,1
1.036543,0.604,0.816,-0.09,2.624,-5.432,2.197,1
1.044343,0.604,0.813,-0.08,2.746,-5.371,1.77,1
1.052348,0.607,0.814,-0.066,2.624,-5.249,1.464,1
1.059038,0.613,0.81,-0.059,2.38,-5.126,1.342,1
1.067746,0.618,0.812,-0.053,1.953,-4.699,1.098,1
1.073927,0.618,0.813,-0.044,1.037,-4.516,1.159,1
1.082548,0.625,0.815,-0.042,0.61,-4.333,0.915,1
1.090348,0.632,0.813,-0.035,0.61,-4.15,0.549,1
1.097762,0.644,0.81,-0.035,0.976,-3.784,0.488,1
1.106298,0.644,0.809,-0.026,1.037,-3.295,0.427,1
1.11359,0.645,0.812,-0.022,0.854,-3.112,0.183,1
1.12142,0.649,0.804,-0.016,1.037,-2.99,0.305,1
1.128959,0.65,0.807,-0.015,1.281,-2.38,0.244,1
1.13818,0.647,0.807,-0.011,1.403,-1.77,-0.061,1
1.146669,0.643,0.805,-0.006,1.464,-1.464,-0.244,1
1.153862,0.642,0.808,-0.011,1.098,-0.793,-0.427,1
1.162597,0.638,0.81,-0.013,0.61,-0.305,-0.366,1
1.170006,0.638,0.815,-0.02,0.183,0.061,-0.793,1
1.178494,0.635,0.808,-0.023,0.0,0.427,-0.915,1
1.185624,0.636,0.806,-0.023,0.305,1.159,-1.281,1
1.193459,0.631,0.806,-0.028,0.427,1.22,-1.464,1
1.201042,0.63,0.8,-0.037,0.549,1.647,-1.464,1
1.210478,0.633,0.793,-0.039,0.915,1.831,-1.525,1
1.21856,0.629,0.791,-0.043,0.61,2.197,-1.831,1
1.225433,0.627,0.787,-0.049,0.366,2.502,-1.708,1
1.233339,0.627,0.784,-0.06,0.0,2.746,-1.586,1
1.240629,0.626,0.784,-0.063,-0.122,2.746,-1.525,1
1.249189,0.624,0.785,-0.068,-0.305,2.807,-1.586,1
1.256701,0.625,0.783,-0.074,-0.915,2.746,-1.647,1
1.265712,0.625,0.781,-0.081,-0.976,2.99,-1.77,1
1.273145,0.629,0.784,-0.088,-0.732,2.624,-1.708,1
1.281105,0.631,0.779,-0.089,-0.366,2.746,-1.831,1
1.289991,0.626,0.772,-0.09,-0.366,2.746,-1.525,1
1.297954,0.631,0.773,-0.096,-0.183,2.563,-1.525,1
1.305861,0.634,0.768,-0.096,-0.122,2.502,-1.525,1
1.31367,0.634,0.762,-0.099,-0.183,2.441,-1.403,1
1.322853,0.635,0.761,-0.101,-0.305,2.38,-1.22,1
1.330525,0.637,0.76,-0.108,-0.732,2.319,-1.159,1
1.337369,0.633,0.76,-0.115,-1.159,2.197,-1.098,1
1.346677,0.635,0.76,-0.119,-1.403,2.075,-0.793,1
1.353834,0.637,0.763,-0.121,-0.976,1.77,-1.037,1
1.36327,0.64,0.764,-0.123,-0.61,1.586,-0.488,1
1.37055,0.636,0.758,-0.125,-0.61,1.037,-0.732,1
1.378276,0.633,0.761,-0.126,-0.305,0.732,-0.305,1
1.387712,0.633,0.761,-0.124,-0.183,0.732,-0.122,1
1.394628,0.638,0.76,-0.125,0.061,0.366,-0.183,1
1.402224,0.64,0.764,-0.123,0.366,0.122,-0.122,1
1.411033,0.635,0.765,-0.121,0.671,-0.244,0.061,1
1.418403,0.634,0.765,-0.118,0.793,-0.488,0.366,1
1.426169,0.633,0.766,-0.115,1.22,-0.549,0.122,1
1.43304,0.632,0.766,-0.114,1.037,-0.854,0.366,1
1.440214,0.634,0.766,-0.11,0.671,-0.854,0.366,1
1.448578,0.63,0.771,-0.109,-0.427,-1.098,0.366,1
1.45689,0.631,0.773,-0.107,-1.037,-1.22,0.244,1
1.465915,0.629,0.781,-0.105,-0.488,-1.525,0.488,1
1.472649,0.63,0.779,-0.107,-0.122,-1.708,0.427,1
1.481947,0.635,0.78,-0.096,0.427,-1.831,0.183,1
1.488797,0.635,0.784,-0.093,0.61,-2.014,0.427,1
1.497843,0.627,0.785,-0.087,0.915,-2.075,0.366,1
1.504839,0.63,0.782,-0.082,1.037,-2.075,0.305,1
1.512439,0.634,0.784,-0.075,1.037,-1.892,0.244,1
1.521499,0.632,0.786,-0.08,0.305,-1.77,0.366,1
1.528544,0.633,0.789,-0.078,-0.061,-1.647,0.427,1
1.53754,0.632,0.791,-0.073,-0.61,-1.586,0.061,1
1.544801,0.634,0.793,-0.073,-0.732,-1.403,-0.122,1
1.553889,0.638,0.789,-0.073,0.0,-1.586,-0.183,1
1.561178,0.635,0.786,-0.071,0.366,-1.403,-0.244,1
1.568534,0.637,0.785,-0.067,0.549,-1.464,-0.183,1
1.577037,0.637,0.785,-0.067,1.037,-1.342,-0.244,1
1.585647,0.635,0.782,-0.063,0.854,-1.098,-0.427,1
1.592974,0.638,0.782,-0.062,0.854,-1.281,-0.244,1
1.599679,0.634,0.783,-0.061,0.793,-0.793,-0.122,1
1.608042,0.638,0.786,-0.061,0.305,-0.61,0.061,1
1.614961,0.636,0.783,-0.058,0.244,-0.366,0.0,1
1.622426,0.633,0.783,-0.059,0.244,-0.244,-0.305,1
1.63094,0.633,0.785,-0.055,0.244,0.0,-0.305,1
1.638765,0.633,0.781,-0.061,0.183,0.0,-0.244,1
1.646513,0.633,0.781,-0.062,0.183,0.061,-0.244,1
1.65445,0.63,0.778,-0.063,-0.061,0.549,-0.305,1
1.662498,0.633,0.776,-0.069,-0.244,0.305,-0.244,1
1.67185,0.634,0.779,-0.074,-0.061,0.732,-0.244,1
1.679021,0.629,0.776,-0.074,-0.061,0.671,-0.305,1
1.686744,0.633,0.779,-0.073,0.183,0.549,-0.183,1
1.696137,0.632,0.78,-0.081,0.427,0.61,-0.061,1
1.70354,0.635,0.774,-0.081,0.183,0.732,-0.061,1
1.710688,0.635,0.778,-0.085,0.0,0.61,0.061,1
1.718799,0.634,0.774,-0.084,0.183,0.793,0.061,1
1.727137,0.632,0.778,-0.083,0.366,0.366,-0.122,1
1.734733,0.634,0.774,-0.086,0.671,0.305,0.061,1
1.743588,0.634,0.775,-0.085,0.915,0.427,0.0,1
1.750551,0.633,0.775,-0.086,1.037,0.427,0.061,1
1.759232,0.633,0.773,-0.089,0.61,0.427,-0.122,1
1.767321,0.63,0.778,-0.083,0.61,0.366,0.366,1
1.774153,0.632,0.773,-0.086,0.122,0.427,0.366,1
1.782537,0.635,0.773,-0.086,0.0,0.366,0.366,1
1.790635,0.632,0.774,-0.086,0.061,0.549,0.366,1
1.799145,0.63,0.77,-0.09,-0.061,0.671,0.305,1
1.80608,0.636,0.773,-0.091,0.061,0.305,0.61,1
1.815459,0.634,0.776,-0.088,0.183,0.366,0.732,1
1.822792,0.635,0.777,-0.095,0.061,0.244,0.671,1
1.830985,0.635,0.782,-0.089,0.0,0.427,0.488,1
1.838194,0.631,0.78,-0.094,0.244,0.183,0.732,1
1.84627,0.633,0.785,-0.091,0.061,0.122,0.793,1
1.854198,0.633,0.785,-0.093,0.183,0.061,0.732,1
1.861965,0.633,0.789,-0.091,0.0,0.0,0.549,1
1.869151,0.633,0.787,-0.09,0.0,-0.122,0.488,1
1.876644,0.635,0.79,-0.093,0.183,0.0,0.488,1
1.884384,0.635,0.791,-0.094,-0.244,0.122,0.366,1
1.892237,0.633,0.791,-0.096,-0.915,-0.122,0.122,1
1.901059,0.637,0.795,-0.1,-0.915,0.0,0.122,1
1.907722,0.64,0.795,-0.1,-0.915,0.0,0.183,1
1.916923,0.637,0.8,-0.108,-1.037,-0.183,0.122,1
1.924112,0.638,0.796,-0.111,-1.464,-0.305,-0.244,1
1.933382,0.634,0.802,-0.107,-1.892,-0.488,-0.305,1
1.940806,0.634,0.804,-0.114,-2.319,-0.244,-0.305,1
1.948105,0.625,0.808,-0.118,-2.319,-0.366,-0.549,1
1.95664,0.622,0.799,-0.123,-3.417,0.0,-0.488,1
1.965086,0.612,0.804,-0.127,-5.493,0.305,-0.793,1
1.972669,0.601,0.8,-0.136,-7.08,0.549,-0.793,1
1.982115,0.6,0.799,-0.145,-8.666,0.854,-0.976,1
1.989258,0.598,0.792,-0.176,-10.498,1.281,-1.037,1
1.99755,0.598,0.795,-0.199,-12.145,1.098,-1.159,1
2.006678,0.607,0.789,-0.235,-13.122,0.976,-1.098,1
2.014336,0.603,0.789,-0.263,-13.916,0.427,-1.037,1
2.023024,0.6,0.789,-0.301,-14.587,-0.305,-0.915,1
2.030065,0.593,0.777,-0.341,-16.052,-1.098,-1.098,1
2.039226,0.594,0.775,-0.378,-17.089,-2.38,-0.793,1
2.0467,0.583,0.768,-0.432,-18.371,-3.784,-0.671,1
2.055469,0.572,0.766,-0.491,-19.592,-5.126,-0.488,1
2.064707,0.565,0.765,-0.54,-21.728,-7.507,-0.427,1
2.07315,0.559,0.773,-0.6,-23.132,-10.131,0.0,1
2.080647,0.551,0.781,-0.653,-25.512,-12.329,-0.122,1
2.089413,0.552,0.804,-0.717,-28.686,-16.052,-0.427,1
2.096454,0.548,0.804,-0.772,-31.127,-19.287,0.0,1
2.105453,0.547,0.809,-0.833,-34.79,-23.62,-0.244,1
2.112535,0.555,0.812,-0.878,-38.574,-27.526,-0.305,1
2.121526,0.558,0.814,-0.92,-42.358,-31.677,-0.305,1
2.130371,0.562,0.827,-0.969,-45.776,-37.353,0.183,1
2.137384,0.558,0.84,-1.013,-47.302,-42.053,0.244,1
2.146529,0.548,0.849,-1.035,-48.645,-48.217,0.549,1
2.153218,0.535,0.869,-1.075,-50.048,-53.527,0.732,1
2.162389,0.521,0.888,-1.101,-50.659,-59.448,0.854,1
2.169277,0.498,0.899,-1.132,-52.001,-66.406,0.793,1
2.178043,0.485,0.919,-1.163,-54.931,-72.814,0.732,1
2.185188,0.464,0.928,-1.19,-57.556,-79.345,0.305,1
2.193503,0.466,0.933,-1.206,-58.959,-87.28,0.488,1
2.200985,0.444,0.943,-1.206,-59.143,-94.665,0.488,1
2.209241,0.414,0.947,-1.201,-59.509,-103.149,0.305,1
2.216967,0.375,0.958,-1.173,-57.312,-110.534,0.305,1
2.225918,0.343,0.96,-1.133,-54.809,-117.736,0.244,1
2.234969,0.301,0.96,-1.077,-53.039,-125.427,0.122,1
2.241524,0.275,0.971,-1.015,-52.001,-131.469,-0.183,1
2.250503,0.235,0.985,-0.947,-51.025,-136.779,-0.488,1
2.259194,0.204,0.991,-0.899,-53.283,-141.845,-1.098,1
2.267484,0.175,0.993,-0.857,-58.288,-145.812,-1.403,1
2.274247,0.139,1.0,-0.815,-62.744,-150.268,-1.708,1
2.283633,0.091,1.004,-0.772,-65.246,-153.869,-1.953,1
2.290728,0.067,1.001,-0.729,-66.833,-158.569,-2.319,1
2.298671,0.04,1.003,-0.683,-66.345,-162.109,-2.075,1
2.308761,0.013,1.021,-0.636,-66.528,-166.137,-1.831,1
2.316048,-0.024,1.046,-0.584,-66.528,-170.104,-1.953,1
2.325266,-0.056,1.076,-0.528,-66.162,-173.156,-2.136,1
2.33416,-0.073,1.096,-0.479,-66.772,-176.452,-2.38,1
2.342843,-0.086,1.132,-0.416,-66.894,-179.687,-2.746,1
2.351814,-0.104,1.169,-0.343,-63.659,-182.556,-3.295,1
2.358821,-0.104,1.197,-0.273,-61.401,-184.692,-4.15,1
2.36788,-0.115,1.217,-0.214,-61.828,-186.34,-5.371,1
2.376421,-0.129,1.247,-0.156,-63.232,-187.499,-6.835,1
2.383953,-0.119,1.271,-0.094,-63.842,-188.537,-8.3,1
2.393057,-0.127,1.294,-0.035,-63.476,-189.575,-10.498,1
2.401356,-0.135,1.314,0.035,-62.988,-190.246,-12.634,1
2.40793,-0.135,1.331,0.083,-64.331,-190.002,-14.587,1
2.416394,-0.141,1.329,0.135,-67.626,-189.941,-16.601,1
2.42407,-0.14,1.342,0.19,-70.19,-189.331,-18.371,1
2.432806,-0.128,1.352,0.252,-70.617,-188.781,-20.69,1
2.44117,-0.138,1.355,0.285,-70.373,-187.927,-22.583,1
2.448488,-0.138,1.349,0.326,-71.35,-187.255,-24.902,1
2.457868,-0.152,1.349,0.351,-70.861,-186.279,-26.977,1
2.464891,-0.128,1.34,0.395,-67.26,-186.096,-29.174,1
2.473544,-0.125,1.33,0.454,-60.668,-185.729,-31.738,1
2.480962,-0.143,1.314,0.513,-56.701,-184.753,-34.118,1
2.489817,-0.152,1.294,0.582,-56.274,-182.922,-36.193,1
2.497458,-0.143,1.273,0.646,-57.495,-181.274,-38.696,1
2.506305,-0.145,1.248,0.737,-56.335,-178.833,-41.015,1
2.514139,-0.145,1.22,0.808,-56.335,-176.269,-42.541,1
2.523248,-0.132,1.194,0.897,-56.64,-172.912,-44.25,1
2.530722,-0.1,1.171,0.987,-52.612,-170.471,-45.654,1
2.539377,-0.065,1.126,1.091,-46.874,-166.687,-47.058,1
2.547214,-0.025,1.089,1.182,-43.945,-162.292,-48.339,1
2.554581,0.02,1.042,1.275,-43.151,-156.188,-49.499,1
2.563357,0.088,1.0,1.344,-41.931,-150.39,-50.354,1
2.570616,0.153,0.954,1.388,-42.114,-143.859,-51.208,1
2.579657,0.222,0.919,1.416,-42.724,-136.84,-52.062,1
2.588507,0.271,0.883,1.433,-42.175,-130.31,-52.856,1
2.595771,0.322,0.833,1.435,-42.541,-123.107,-53.588,1
2.605172,0.361,0.802,1.421,-41.381,-116.577,-54.138,1
2.61219,0.371,0.769,1.425,-37.353,-111.206,-54.992,1
2.621399,0.366,0.711,1.422,-34.851,-104.492,-54.931,1
2.628041,0.385,0.666,1.409,-37.841,-97.961,-54.565,1
2.636891,0.391,0.645,1.411,-38.391,-92.468,-53.894,1
2.644968,0.393,0.614,1.411,-35.827,-85.449,-52.368,1
2.652502,0.409,0.588,1.401,-34.179,-79.467,-51.33,1
2.660771,0.435,0.553,1.387,-34.423,-72.509,-49.377,1
2.66963,0.45,0.527,1.38,-34.912,-66.467,-47.912,1
2.678467,0.471,0.503,1.353,-34.729,-59.387,-45.776,1
2.68568,0.485,0.481,1.312,-33.63,-53.833,-44.128,1
2.693475,0.516,0.451,1.269,-32.104,-48.278,-42.236,1
2.702735,0.533,0.42,1.22,-31.372,-42.175,-40.039,1
2.709852,0.553,0.404,1.186,-30.334,-37.353,-37.963,1
2.716935,0.558,0.412,1.14,-27.465,-32.775,-35.583,1
2.725864,0.554,0.409,1.105,-23.437,-28.137,-33.386,1
2.735104,0.564,0.413,1.067,-20.324,-24.108,-31.555,1
2.741896,0.574,0.407,1.024,-18.127,-19.287,-29.235,1
2.751164,0.563,0.414,0.973,-19.042,-15.319,-27.587,1
2.758515,0.583,0.411,0.904,-23.01,-11.23,-25.573,1
2.767455,0.603,0.42,0.839,-25.756,-8.239,-23.62,1
2.77482,0.606,0.426,0.795,-23.986,-5.859,-21.85,1
2.784482,0.621,0.421,0.751,-19.836,-4.211,-20.019,1
2.791636,0.622,0.414,0.722,-16.54,-2.258,-18.188,1
2.800586,0.617,0.413,0.671,-17.15,-0.244,-16.052,1
2.808222,0.622,0.429,0.621,-19.775,1.525,-13.977,1
2.815878,0.623,0.448,0.569,-20.263,2.807,-12.39,1
2.823356,0.625,0.467,0.52,-19.775,3.417,-10.925,1
2.832313,0.628,0.483,0.48,-16.845,3.845,-9.521,1
2.83982,0.633,0.488,0.445,-15.136,3.662,-8.605,1
2.847503,0.633,0.497,0.412,-13.671,3.356,-7.263,1
2.855301,0.632,0.503,0.386,-13.244,3.54,-6.164,1
2.864174,0.629,0.515,0.364,-12.878,3.479,-5.249,1
2.871163,0.635,0.53,0.344,-12.329,3.173,-4.272,1
2.879744,0.625,0.55,0.334,-9.887,2.807,-3.54,1
2.888244,0.626,0.558,0.319,-8.422,2.258,-2.99,1
2.895302,0.631,0.569,0.306,-8.361,2.014,-2.014,1
2.903763,0.641,0.57,0.29,-10.742,1.892,-1.525,1
2.912343,0.654,0.583,0.264,-12.634,1.159,-1.037,1
2.919334,0.666,0.594,0.252,-13.061,0.427,-0.549,1
2.928203,0.679,0.61,0.241,-12.207,-0.61,0.061,1
2.93529,0.688,0.609,0.236,-11.535,-2.014,0.427,1
2.944381,0.692,0.624,0.243,-11.169,-3.173,0.854,1
2.952118,0.693,0.632,0.259,-9.033,-4.577,0.732,1
2.960845,0.696,0.635,0.276,-7.751,-5.31,1.525,1
2.96781,0.685,0.635,0.291,-7.263,-5.859,1.281,1
2.975491,0.665,0.644,0.296,-5.737,-6.408,1.647,1
2.983297,0.655,0.648,0.305,-2.441,-6.835,1.647,1
2.990336,0.648,0.65,0.309,0.305,-7.446,1.708,1
2.998544,0.642,0.64,0.318,-0.061,-7.446,1.77,1
3.006335,0.646,0.633,0.326,-2.99,-7.629,1.953,1
3.01539,0.65,0.636,0.336,-5.065,-7.751,2.258,1
3.022969,0.652,0.644,0.338,-5.004,-7.629,2.441,1
3.030456,0.663,0.655,0.345,-3.662,-8.361,2.624,1
3.039452,0.657,0.665,0.357,-1.403,-8.605,2.868,1
3.045997,0.665,0.672,0.364,1.159,-8.789,2.929,1
3.054204,0.666,0.68,0.377,1.708,-8.666,2.99,1
3.061339,0.668,0.691,0.38,0.549,-8.483,3.051,1
3.06967,0.673,0.702,0.382,-0.671,-8.117,2.685,1
3.075944,0.672,0.71,0.39,-1.892,-7.751,2.624,1
3.083497,0.673,0.715,0.39,-2.38,-7.385,2.319,1
3.091769,0.674,0.719,0.398,-2.685,-6.774,1.647,1
3.100924,0.675,0.717,0.404,-3.234,-6.713,1.281,1
3.107897,0.675,0.72,0.412,-3.112,-6.164,1.037,1
3.117391,0.675,0.708,0.412,-1.586,-5.798,0.427,1
3.12431,0.68,0.698,0.411,-1.403,-5.065,-0.122,1
3.132002,0.685,0.693,0.399,-2.014,-4.516,-0.061,1
3.140595,0.686,0.696,0.387,-2.38,-4.272,0.0,1
3.148217,0.695,0.7,0.378,-0.244,-4.333,-0.427,1
3.157227,0.698,0.699,0.382,1.892,-4.394,-0.671,1
3.16482,0.692,0.692,0.379,2.197,-4.272,-0.488,1
3.172872,0.689,0.691,0.389,1.708,-3.845,-0.61,1
3.181178,0.686,0.697,0.386,1.647,-3.723,-0.854,1
3.189038,0.687,0.693,0.383,1.281,-3.356,-0.549,1
3.197446,0.672,0.706,0.389,1.586,-2.929,-0.854,1
3.204114,0.672,0.703,0.391,3.051,-3.173,-1.159,1
3.213103,0.66,0.697,0.401,4.15,-2.99,-1.464,1
3.219579,0.654,0.687,0.412,2.807,-2.441,-1.403,1
3.227931,0.651,0.687,0.418,1.77,-2.075,-1.403,1
3.23491,0.653,0.683,0.42,1.892,-1.586,-1.525,1
3.243977,0.653,0.684,0.416,1.892,-1.22,-1.647,1
3.251468,0.658,0.681,0.417,2.319,-1.037,-1.708,1
3.258673,0.665,0.681,0.413,2.441,-0.61,-1.403,1
3.266678,0.662,0.682,0.409,2.197,-0.427,-1.342,1
3.274045,0.665,0.685,0.408,2.197,-0.366,-1.342,1
3.281494,0.668,0.687,0.417,2.136,0.244,-1.708,1
3.290202,0.665,0.688,0.416,2.014,0.488,-1.525,1
3.299378,0.667,0.689,0.414,0.915,1.037,-1.525,1
3.306516,0.668,0.689,0.408,0.488,1.342,-1.953,1
3.313837,0.67,0.689,0.399,1.037,1.647,-1.892,1
3.322295,0.671,0.683,0.4,1.098,1.525,-2.258,1
3.329739,0.67,0.682,0.392,1.342,1.586,-2.258,1
3.337062,0.667,0.677,0.394,2.38,1.892,-2.38,1
3.345925,0.658,0.682,0.393,2.807,1.831,-2.441,1
3.352542,0.664,0.677,0.391,1.342,2.258,-2.319,1
3.360129,0.663,0.677,0.381,-0.61,2.38,-2.258,1
3.369137,0.663,0.675,0.372,-1.098,2.319,-2.38,1
3.377975,0.663,0.673,0.367,-0.488,2.075,-2.197,1
3.38577,0.658,0.664,0.36,-0.061,1.892,-2.319,1
3.393241,0.656,0.66,0.356,0.0,1.892,-2.014,1
3.401908,0.654,0.665,0.354,-0.122,1.77,-1.831,1
3.408805,0.657,0.674,0.352,0.915,1.403,-2.075,1
3.416039,0.658,0.666,0.35,2.075,1.342,-1.892,1
3.425027,0.658,0.665,0.352,2.746,0.854,-2.197,1
3.432272,0.658,0.659,0.356,2.868,0.732,-2.014,1
3.441156,0.652,0.657,0.365,3.112,0.549,-2.075,1
3.4483,0.648,0.657,0.372,3.295,0.793,-1.831,1
3.457435,0.652,0.659,0.372,2.807,0.732,-1.831,1
3.464552,0.657,0.655,0.375,2.502,0.854,-1.647,1
3.473542,0.66,0.658,0.366,2.746,0.732,-1.403,1
3.480572,0.67,0.66,0.37,2.746,0.549,-1.403,1
3.488375,0.68,0.658,0.368,2.624,0.915,-1.464,1
3.496178,0.682,0.655,0.363,2.136,0.732,-1.342,1
3.503334,0.684,0.657,0.361,1.953,0.671,-1.403,1
3.511758,0.685,0.661,0.355,2.014,0.671,-1.22,1
3.520524,0.685,0.66,0.353,1.586,0.488,-1.159,1
3.526909,0.686,0.664,0.351,1.586,0.671,-1.159,1
3.534317,0.681,0.668,0.354,1.953,0.305,-1.281,1
3.542561,0.678,0.679,0.348,2.685,0.0,-1.647,1
3.550075,0.675,0.677,0.35,2.685,0.183,-1.281,1
3.558533,0.673,0.678,0.346,2.136,0.061,-1.403,1
3.566013,0.672,0.682,0.347,1.342,0.244,-1.77,1
3.57459,0.672,0.679,0.346,0.61,0.061,-1.892,1
3.583958,0.671,0.679,0.336,-0.976,0.305,-2.136,1
3.591282,0.67,0.674,0.331,-2.014,-0.183,-2.563,1
3.599315,0.676,0.671,0.33,-2.197,-0.488,-2.502,1
3.606847,0.677,0.664,0.332,-1.403,-0.915,-2.502,1
3.6158,0.682,0.657,0.338,-0.244,-1.159,-2.441,1
3.62474,0.682,0.651,0.343,0.122,-1.403,-2.38,1
3.632628,0.676,0.643,0.354,0.244,-1.708,-2.136,1
3.639844,0.676,0.639,0.353,0.061,-1.708,-2.014,1
3.647482,0.673,0.633,0.365,0.671,-1.77,-2.014,1
3.656807,0.676,0.627,0.369,0.366,-1.708,-1.647,1
3.664125,0.676,0.624,0.368,-0.732,-1.159,-1.403,1
3.672968,0.676,0.623,0.372,-1.098,-1.342,-1.037,1
3.679768,0.676,0.624,0.369,-0.732,-1.159,-0.915,1
3.687844,0.683,0.625,0.369,-0.549,-1.037,-0.671,1
3.697487,0.683,0.631,0.365,-0.671,-0.854,-0.366,1
3.705256,0.679,0.627,0.36,-0.976,-1.098,0.0,1
3.711291,0.679,0.629,0.354,-1.037,-1.098,0.244,1
3.719032,0.677,0.626,0.355,-0.915,-1.098,0.183,1
3.7278,0.677,0.626,0.354,-0.488,-1.525,0.305,1
3.735933,0.666,0.621,0.361,0.244,-1.647,0.61,1
3.743908,0.661,0.623,0.366,0.61,-1.647,0.732,1
3.751007,0.659,0.624,0.369,0.854,-1.708,1.037,1
3.757982,0.662,0.624,0.369,0.671,-1.586,1.098,1
3.766374,0.664,0.617,0.372,-0.061,-1.586,1.647,1
3.774021,0.665,0.621,0.373,-1.098,-1.525,2.014,1
3.783295,0.666,0.625,0.374,-1.22,-1.403,2.38,1
3.790049,0.673,0.631,0.38,-0.061,-1.586,2.502,1
3.798095,0.673,0.637,0.381,0.549,-1.281,2.685,1
3.80576,0.671,0.648,0.386,0.732,-1.342,2.868,1
3.814036,0.668,0.655,0.392,0.488,-1.159,2.929,1
3.820913,0.662,0.666,0.394,1.953,-1.342,3.051,1
3.829707,0.669,0.67,0.395,3.051,-1.037,3.112,1
3.836903,0.671,0.669,0.394,2.441,-0.671,2.868,1
3.844404,0.672,0.669,0.39,0.793,-0.427,2.685,1
3.853322,0.665,0.676,0.387,-0.183,-0.061,2.563,1
3.860413,0.674,0.683,0.378,-0.427,0.061,2.38,1
3.868218,0.671,0.675,0.372,-0.61,0.122,2.319,1
3.875761,0.677,0.672,0.368,-0.793,0.061,2.441,1
3.883587,0.675,0.668,0.369,-0.549,0.122,2.319,1
3.892456,0.677,0.663,0.365,-0.122,-0.122,2.258,1
3.900318,0.674,0.666,0.363,-0.61,-0.122,2.502,1
3.907781,0.676,0.671,0.366,-0.976,-0.061,2.502,1
3.916473,0.671,0.672,0.359,-1.037,-0.122,2.685,1
3.924568,0.671,0.671,0.363,-1.403,-0.183,2.502,1
3.932195,0.675,0.681,0.352,-1.037,-0.366,2.319,1
3.939441,0.673,0.681,0.342,-0.122,-0.488,2.319,1
3.948367,0.677,0.687,0.34,0.549,-0.976,2.014,1
3.956358,0.679,0.689,0.342,1.22,-1.098,1.892,1
3.963581,0.675,0.69,0.346,2.136,-1.403,1.647,1
3.972787,0.674,0.696,0.346,1.831,-1.403,1.464,1
3.97905,0.672,0.696,0.345,0.732,-1.586,1.281,1
3.987881,0.668,0.705,0.349,-0.732,-1.342,1.098,1
3.994242,0.67,0.706,0.347,-1.342,-1.525,0.732,1
4.002175,0.687,0.689,0.348,-1.77,-1.647,0.549,1
4.010817,0.66,0.693,0.353,-2.624,-1.525,0.793,1
4.018946,0.667,0.695,0.354,-1.953,-1.831,0.183,1
4.025338,0.666,0.691,0.362,0.732,-2.441,0.061,1
4.033922,0.66,0.673,0.368,1.77,-2.441,0.244,1
4.040332,0.657,0.672,0.372,0.488,-2.258,0.305,1
4.048563,0.656,0.674,0.372,-0.671,-1.892,0.366,1
4.057999,0.666,0.67,0.373,-2.197,-2.136,0.549,1
4.065392,0.645,0.685,0.381,-2.624,-1.77,0.427,1
4.073455,0.664,0.685,0.382,-0.671,-2.258,0.183,1
4.080578,0.664,0.682,0.387,-0.183,-2.136,0.183,1
4.088463,0.667,0.677,0.385,-2.136,-1.892,0.122,1
4.095869,0.663,0.677,0.378,-2.929,-1.586,-0.244,1
4.10454,0.667,0.675,0.376,-2.136,-1.77,-0.305,1
4.113476,0.669,0.664,0.374,-0.976,-1.586,-0.244,1
4.120209,0.669,0.657,0.372,0.244,-1.831,-0.244,1
4.128628,0.664,0.65,0.372,0.671,-1.831,-0.122,1
4.136852,0.664,0.648,0.373,1.159,-2.014,0.122,1
4.143534,0.657,0.648,0.373,1.342,-2.136,0.427,1
4.151927,0.658,0.65,0.376,1.831,-2.197,0.61,1
4.160586,0.656,0.645,0.381,1.403,-2.319,0.61,1
4.167349,0.657,0.646,0.38,0.61,-2.136,0.732,1
4.175563,0.656,0.644,0.393,0.122,-2.075,1.037,1
4.18342,0.654,0.645,0.394,-0.305,-2.075,1.037,1
4.191988,0.652,0.646,0.395,-1.159,-1.464,1.647,1
4.199919,0.653,0.65,0.398,-1.159,-1.586,1.586,1
4.208805,0.652,0.651,0.396,-0.671,-1.464,1.708,1
4.215388,0.657,0.652,0.4,-0.427,-1.22,1.831,1
4.223028,0.658,0.658,0.403,0.427,-1.342,2.014,1
4.23058,0.657,0.66,0.409,1.159,-1.037,1.892,1
4.239805,0.657,0.66,0.412,0.976,-0.793,2.075,1
4.246097,0.658,0.659,0.414,0.366,-0.427,2.38,1
4.253883,0.657,0.669,0.415,0.61,-0.122,2.258,1
4.261594,0.666,0.668,0.416,1.586,-0.122,2.197,1
4.26923,0.666,0.67,0.411,1.77,0.488,2.38,1
4.277622,0.667,0.674,0.403,0.0,0.793,2.319,1
4.284605,0.669,0.68,0.402,-0.549,0.976,2.319,1
4.291793,0.664,0.688,0.399,-0.183,1.281,2.197,1
4.300858,0.666,0.691,0.398,-0.061,1.342,2.197,1
4.307778,0.665,0.691,0.398,-0.244,1.464,2.258,1
4.315745,0.664,0.694,0.395,-1.098,1.708,1.953,1
4.322985,0.666,0.696,0.386,-1.892,1.953,1.953,1
4.332024,0.665,0.695,0.378,-1.831,2.197,1.647,1
4.339396,0.666,0.699,0.368,-1.708,2.319,1.708,1
4.346515,0.66,0.694,0.364,-1.77,2.136,1.586,1
4.354178,0.659,0.704,0.355,-0.915,1.953,1.342,1
4.361658,0.664,0.703,0.352,0.61,1.464,1.098,1
4.370558,0.665,0.701,0.345,0.61,1.159,1.098,1
4.377385,0.664,0.703,0.349,-0.183,1.22,0.854,1
4.385589,0.665,0.706,0.351,0.122,0.854,0.549,1
4.393189,0.674,0.706,0.352,0.061,0.671,0.549,1
4.400753,0.671,0.698,0.356,-1.098,1.037,0.366,1
4.40934,0.663,0.705,0.356,-2.014,0.976,0.122,1
4.416869,0.664,0.704,0.354,-0.915,0.61,-0.183,1
4.424955,0.659,0.701,0.348,-0.061,0.488,-0.305,1
4.432425,0.655,0.701,0.344,-0.61,0.183,-0.671,1
4.440943,0.65,0.7,0.343,-0.671,0.0,-0.549,1
4.448152,0.657,0.698,0.339,-0.244,-0.305,-1.159,1
4.457155,0.656,0.692,0.337,0.183,-0.427,-0.915,1
4.464062,0.658,0.693,0.344,0.305,-1.159,-1.037,1
4.473306,0.654,0.692,0.352,0.427,-0.976,-1.281,1
4.480261,0.658,0.687,0.359,0.183,-1.22,-1.098,1
4.489192,0.656,0.689,0.365,-0.61,-0.976,-1.159,1
4.497109,0.663,0.691,0.366,-0.854,-0.915,-1.159,1
4.505818,0.664,0.688,0.368,0.061,-1.098,-1.342,1
4.513879,0.667,0.681,0.367,-0.488,-0.854,-1.525,1
4.521209,0.667,0.676,0.368,-0.732,-1.037,-1.586,1
4.529582,0.662,0.671,0.37,-0.244,-1.159,-1.708,1
4.536414,0.663,0.666,0.37,0.488,-0.976,-1.77,1
4.54377,0.66,0.661,0.369,0.976,-1.281,-1.586,1
4.551592,0.657,0.658,0.373,0.549,-1.403,-1.342,1
4.55957,0.65,0.656,0.386,0.183,-1.159,-1.342,1
4.568855,0.652,0.656,0.386,0.305,-1.159,-1.037,1
4.576547,0.652,0.653,0.393,0.488,-0.976,-1.037,1
4.585389,0.655,0.653,0.392,-0.061,-0.61,-0.488,1
4.592444,0.654,0.653,0.394,-0.854,-0.244,-0.488,1
4.601462,0.656,0.657,0.394,-0.854,-0.122,-0.427,1
4.608172,0.662,0.655,0.396,-0.244,0.122,-0.366,1
4.61568,0.666,0.662,0.394,0.0,0.0,-0.183,1
4.623664,0.666,0.662,0.393,-0.061,0.305,-0.244,1
4.631492,0.666,0.666,0.395,-0.122,0.488,-0.305,1
4.640658,0.664,0.665,0.402,0.0,0.549,-0.549,1
4.647613,0.666,0.663,0.4,0.305,0.854,-0.061,1
4.655292,0.666,0.661,0.396,0.061,1.159,0.061,1
4.66449,0.664,0.658,0.388,-0.488,1.586,0.061,1
4.672423,0.666,0.663,0.377,-1.464,1.525,0.183,1
4.679533,0.666,0.668,0.367,-1.708,1.647,0.427,1
4.687176,0.661,0.67,0.36,-1.831,1.342,0.488,1
4.695795,0.662,0.669,0.359,-1.464,1.159,0.244,1
4.702585,0.655,0.672,0.355,-0.976,0.976,0.366,1
4.710838,0.657,0.681,0.351,-0.366,0.976,0.549,1
4.718861,0.658,0.678,0.347,0.305,0.427,0.671,1
4.725647,0.653,0.675,0.349,0.427,0.183,0.244,1
4.733297,0.657,0.674,0.349,-0.122,0.061,0.305,1
4.742067,0.653,0.672,0.35,-0.671,0.244,0.305,1
4.749296,0.652,0.67,0.348,-0.488,0.061,0.427,1
4.757798,0.649,0.669,0.343,-0.427,0.061,0.427,1
4.764919,0.654,0.666,0.337,-0.427,0.0,0.549,1
4.773755,0.653,0.665,0.331,-0.549,-0.549,0.61,1
4.782117,0.651,0.664,0.328,0.244,-1.098,0.793,1
4.788713,0.65,0.666,0.328,1.281,-1.22,0.854,1
4.796481,0.647,0.667,0.317,1.403,-1.77,0.854,1
4.804077,0.652,0.666,0.31,0.793,-2.075,0.976,1
4.811995,0.652,0.673,0.312,0.549,-2.746,0.854,1
4.820442,0.658,0.666,0.312,0.0,-3.051,0.854,1
4.827925,0.665,0.655,0.32,-0.122,-3.479,0.793,1
4.836577,0.674,0.651,0.335,0.244,-4.516,1.037,1
4.842628,0.673,0.645,0.353,0.976,-4.577,1.403,1
4.851157,0.665,0.643,0.368,2.014,-4.577,1.403,1
4.859796,0.661,0.648,0.381,2.38,-4.516,1.831,1
4.866644,0.656,0.645,0.388,1.586,-3.601,2.136,1
4.87433,0.658,0.655,0.382,0.366,-3.54,2.258,1
4.883751,0.662,0.661,0.391,-0.427,-3.417,2.441,1
4.890973,0.659,0.662,0.385,-0.244,-3.295,2.624,1
4.898899,0.663,0.67,0.385,-0.854,-3.173,2.563,1
4.906154,0.669,0.675,0.386,-1.403,-2.868,2.258,1
4.914458,0.67,0.677,0.384,-1.403,-2.929,2.441,1
4.92295,0.666,0.675,0.388,-1.281,-3.051,2.258,1
4.931375,0.665,0.674,0.393,-0.976,-2.929,2.258,1
4.939875,0.658,0.679,0.398,-1.037,-2.685,2.502,1
4.946419,0.661,0.681,0.395,-0.61,-2.319,2.38,1
4.954471,0.662,0.685,0.396,-0.122,-1.892,2.258,1
4.96211,0.659,0.686,0.393,0.183,-1.953,2.197,1
4.970314,0.658,0.691,0.393,-0.549,-1.586,2.136,1
4.977677,0.656,0.694,0.387,-1.586,-1.342,1.892,1
4.985887,0.653,0.702,0.382,-1.403,-1.098,1.953,1
4.993292,0.654,0.701,0.38,-1.525,-1.037,1.892,1
5.001465,0.659,0.706,0.37,-2.136,-1.037,1.586,1
5.008919,0.658,0.703,0.367,-2.136,-1.159,1.342,1
5.016713,0.659,0.705,0.361,-2.136,-1.281,1.22,1
5.024979,0.654,0.706,0.366,-2.075,-1.525,1.098,1
5.033868,0.652,0.702,0.366,-2.38,-1.281,0.854,1
5.040333,0.654,0.703,0.367,-2.319,-1.586,0.671,1
5.048853,0.646,0.708,0.363,-1.892,-1.403,0.732,1
5.055384,0.645,0.704,0.363,-1.647,-1.403,0.366,1
5.064795,0.645,0.706,0.361,-1.586,-1.403,0.061,1
5.071838,0.647,0.697,0.354,-1.464,-1.525,-0.122,1
5.080773,0.651,0.688,0.352,-2.197,-1.831,-0.122,1
5.087776,0.656,0.681,0.348,-3.173,-1.77,-0.366,1
5.096869,0.669,0.68,0.343,-3.662,-2.38,-0.305,1
5.104558,0.676,0.68,0.341,-3.784,-2.563,-0.61,1
5.113531,0.679,0.674,0.341,-4.028,-3.051,-0.427,1
5.120699,0.67,0.687,0.344,-4.211,-2.99,-0.427,1
5.129015,0.664,0.687,0.344,-4.638,-3.112,-0.488,1
5.136852,0.663,0.682,0.341,-4.516,-3.051,-0.427,1
5.144277,0.651,0.682,0.339,-3.601,-3.051,0.0,1
5.153268,0.648,0.676,0.335,-2.624,-3.051,0.427,1
5.160933,0.644,0.665,0.324,-1.22,-3.417,0.732,1
5.167755,0.644,0.66,0.311,-0.183,-3.601,1.647,1
5.175266,0.647,0.657,0.29,-0.244,-4.028,1.892,1
5.183621,0.655,0.657,0.265,-1.22,-4.943,2.075,1
5.191094,0.66,0.648,0.243,-1.403,-5.92,2.441,1
5.198787,0.666,0.635,0.226,-1.22,-7.69,2.868,1
5.208063,0.659,0.624,0.22,-1.403,-9.277,2.929,1
5.215347,0.657,0.611,0.217,-1.159,-11.352,3.234,1
5.222883,0.645,0.6,0.221,0.305,-13.183,3.479,1
5.231251,0.621,0.583,0.242,2.075,-15.075,3.906,1
5.23922,0.596,0.572,0.26,3.845,-16.906,4.272,1
5.247423,0.575,0.561,0.282,5.493,-18.493,4.76,1
5.253995,0.555,0.558,0.314,6.896,-19.592,5.126,1
5.263141,0.53,0.549,0.352,8.666,-20.568,5.737,1
5.27063,0.5,0.54,0.397,10.192,-21.24,6.164,1
5.277514,0.475,0.528,0.448,10.925,-21.789,6.835,1
5.285921,0.465,0.502,0.496,9.948,-21.789,7.568,1
5.292401,0.446,0.485,0.552,8.483,-21.545,8.544,1
5.300506,0.422,0.47,0.615,8.239,-20.935,9.826,1
5.307906,0.41,0.453,0.673,8.789,-20.141,11.291,1
5.31576,0.417,0.425,0.739,9.643,-18.859,13.122,1
5.323975,0.409,0.413,0.834,13.488,-17.395,14.892,1
5.331269,0.41,0.402,0.937,21.728,-16.052,17.089,1
5.339586,0.395,0.395,1.065,33.142,-13.916,19.531,1
5.347149,0.432,0.383,1.233,47.424,-10.253,22.399,1
5.35613,0.436,0.354,1.363,57.922,-5.676,24.963,1
5.363471,0.443,0.324,1.498,65.185,0.183,27.832,1
5.371478,0.452,0.297,1.612,66.772,7.141,31.005,1
5.379283,0.459,0.281,1.745,65.612,14.77,34.545,1
5.386022,0.469,0.262,1.851,64.636,24.719,39.001,1
5.393507,0.496,0.253,1.926,63.293,32.714,42.236,1
5.402809,0.488,0.256,1.983,62.255,43.518,46.691,1
5.409999,0.474,0.274,2.02,61.523,53.039,50.17,1
5.416984,0.451,0.296,2.042,64.086,62.255,53.894,1
5.425901,0.408,0.311,2.05,64.758,71.472,57.189,1
5.433369,0.352,0.331,2.046,63.354,81.054,60.241,1
5.440445,0.294,0.369,2.019,61.401,91.918,63.903,1
5.449177,0.242,0.391,1.979,58.654,101.257,66.955,1
5.455933,0.177,0.431,1.933,57.312,109.924,69.335,1
5.46334,0.114,0.466,1.881,57.617,118.286,72.204,1
5.471045,0.049,0.52,1.794,57.128,126.708,74.523,1
5.479654,0.005,0.571,1.693,55.847,133.483,76.354,1
5.487057,-0.034,0.628,1.611,57.617,139.587,77.88,1
5.494285,-0.058,0.682,1.551,61.767,144.836,79.101,1
5.503316,-0.088,0.725,1.497,64.636,149.841,80.383,1
5.511884,-0.136,0.779,1.445,63.171,156.433,81.237,1
5.518598,-0.175,0.836,1.406,61.462,161.56,81.909,1
5.527925,-0.217,0.904,1.37,62.316,166.259,82.214,1
5.535083,-0.241,0.939,1.368,68.237,171.02,82.275,1
5.54241,-0.283,0.958,1.379,74.34,175.598,82.885,1
5.551125,-0.329,0.983,1.383,78.491,180.969,83.801,1
5.559153,-0.383,1.037,1.364,79.711,186.645,84.655,1
5.56603,-0.429,1.084,1.329,79.345,192.993,85.083,1
5.574807,-0.461,1.131,1.293,79.223,197.814,85.144,1
5.581555,-0.499,1.174,1.252,79.65,202.758,85.327,1
5.590827,-0.538,1.225,1.21,78.674,207.458,85.388,1
5.597272,-0.569,1.262,1.175,77.026,211.975,84.96,1
5.605131,-0.607,1.301,1.15,75.744,216.491,83.862,1
5.61352,-0.654,1.364,1.125,75.439,221.374,82.824,1
5.620827,-0.682,1.407,1.102,75.012,226.074,81.42,1
5.627741,-0.722,1.463,1.073,75.134,230.468,79.65,1
5.636702,-0.764,1.529,1.062,81.359,234.863,77.331,1
5.643911,-0.815,1.592,1.035,88.928,238.342,75.5,1
5.651553,-0.867,1.66,1.0,92.834,242.675,72.814,1
5.660809,-0.912,1.735,0.981,94.543,245.727,70.373,1
5.666563,-0.941,1.81,0.993,102.172,248.352,67.993,1
5.674984,-0.984,1.853,0.988,108.642,251.708,65.795,1
5.681795,-1.028,1.886,0.955,107.788,256.408,62.744,1
5.69066,-1.06,1.919,0.907,102.294,261.169,59.753,1
5.697624,-1.087,1.937,0.855,94.909,266.052,56.274,1
5.705962,-1.131,1.96,0.781,87.158,272.155,52.917,1
5.713021,-1.181,1.987,0.665,79.284,277.343,48.339,1
5.722217,-1.192,1.994,0.528,70.068,282.531,43.334,1
5.729615,-1.191,1.986,0.343,61.828,286.254,37.963,1
5.736623,-1.199,1.962,0.206,58.105,288.94,31.555,1
5.744712,-1.199,1.937,0.069,57.006,290.771,26.428,1
5.752312,-1.197,1.905,-0.093,55.053,291.748,21.301,1
5.760486,-1.19,1.875,-0.272,51.452,292.175,16.479,1
5.767914,-1.164,1.857,-0.482,47.18,291.259,11.596,1
5.776623,-1.112,1.838,-0.751,41.809,288.146,5.432,1
5.783806,-1.055,1.815,-0.962,39.794,282.897,-0.061,1
5.792205,-1.013,1.789,-1.139,42.419,277.465,-4.943,1
5.799894,-0.906,1.729,-1.351,49.255,268.859,-10.131,1
5.808447,-0.844,1.664,-1.517,52.856,260.803,-14.16,1
5.816214,-0.765,1.6,-1.674,55.053,251.892,-17.272,1
5.825115,-0.688,1.561,-1.797,55.786,240.478,-20.629,1
5.832406,-0.609,1.529,-1.912,55.541,229.858,-23.254,1
5.841445,-0.506,1.484,-2.026,55.419,218.444,-26.184,1
5.848882,-0.416,1.462,-2.107,54.931,203.735,-29.296,1
5.857737,-0.309,1.413,-2.171,53.405,190.124,-31.494,1
5.865275,-0.178,1.347,-2.189,47.729,174.682,-34.057,1
5.872339,-0.069,1.287,-2.16,45.837,161.132,-36.254,1
5.880813,0.022,1.222,-2.094,49.194,148.071,-37.78,1
5.889613,0.101,1.13,-2.014,47.424,134.887,-38.635,1
5.896672,0.176,1.06,-1.945,41.503,124.206,-39.672,1
5.905024,0.227,1.026,-1.842,40.344,113.281,-40.039,1
5.913211,0.274,0.983,-1.708,45.593,102.172,-40.283,1
5.920033,0.326,0.93,-1.631,46.569,94.36,-40.344,1
5.928569,0.366,0.89,-1.567,41.564,86.914,-40.039,1
5.937631,0.404,0.857,-1.5,36.743,79.772,-39.794,1
5.944558,0.431,0.834,-1.42,34.24,73.181,-39.672,1
5.953103,0.462,0.79,-1.347,30.395,66.406,-39.123,1
5.960654,0.47,0.756,-1.286,25.024,60.913,-38.757,1
5.9676,0.493,0.722,-1.225,20.446,55.48,-38.574,1
5.97581,0.493,0.675,-1.151,17.089,50.231,-37.963,1
5.982803,0.492,0.638,-1.092,16.723,44.921,-37.414,1
5.990798,0.505,0.593,-1.043,20.935,40.283,-36.437,1
5.999273,0.523,0.543,-0.999,24.719,35.034,-34.667,1
6.007342,0.527,0.511,-0.921,27.832,30.639,-32.958,1
6.015318,0.534,0.458,-0.848,28.259,26.794,-30.334,1
6.023556,0.546,0.426,-0.795,24.291,24.719,-27.709,1
6.032273,0.553,0.421,-0.738,18.371,21.972,-24.536,1
6.040149,0.546,0.424,-0.698,16.906,19.287,-22.644,1
6.046965,0.545,0.427,-0.653,16.479,16.845,-20.324,1
6.05524,0.552,0.423,-0.614,16.723,14.831,-18.188,1
6.063031,0.545,0.424,-0.583,15.38,12.695,-16.174,1
6.069809,0.557,0.43,-0.549,14.282,10.986,-14.343,1
6.079121,0.574,0.438,-0.525,13.061,9.399,-12.451,1
6.086571,0.601,0.448,-0.489,11.596,7.69,-10.498,1
6.094076,0.625,0.451,-0.468,11.108,6.469,-8.544,1
6.101717,0.638,0.458,-0.442,10.681,4.943,-6.835,1
6.110281,0.649,0.476,-0.412,11.474,3.845,-5.493,1
6.117016,0.659,0.496,-0.403,9.155,3.417,-3.784,1
6.125975,0.67,0.522,-0.393,5.371,2.319,-2.38,1
6.13294,0.667,0.561,-0.366,4.272,1.464,-1.525,1
6.141672,0.661,0.592,-0.344,5.493,0.61,-0.793,1
6.149558,0.65,0.623,-0.329,6.286,0.061,-0.183,1
6.157373,0.654,0.641,-0.32,3.417,-0.061,0.0,1
6.164499,0.661,0.654,-0.314,0.366,-0.244,0.122,1
6.173614,0.664,0.659,-0.309,-1.281,-0.732,0.366,1
6.180912,0.667,0.678,-0.301,0.427,-1.159,0.244,1
6.189139,0.655,0.68,-0.291,3.906,-1.953,0.793,1
6.1964,0.652,0.681,-0.295,5.004,-2.319,1.037,1
6.20456,0.647,0.676,-0.298,2.868,-2.807,1.831,1
6.211862,0.653,0.676,-0.292,1.037,-3.051,2.319,1
6.219622,0.653,0.691,-0.285,0.427,-3.479,2.502,1
6.227988,0.65,0.712,-0.27,1.892,-4.211,2.929,1
6.236455,0.646,0.724,-0.247,3.54,-4.76,2.99,1
6.245058,0.641,0.73,-0.232,2.38,-4.882,3.173,1
6.252027,0.635,0.736,-0.218,-0.183,-4.577,2.99,1
6.261576,0.638,0.74,-0.217,-3.784,-3.967,2.99,1
6.268112,0.649,0.747,-0.214,-6.591,-3.845,2.868,1
6.276317,0.649,0.752,-0.198,-6.469,-4.272,2.685,1
6.284586,0.646,0.761,-0.185,-4.089,-4.028,2.563,1
6.292985,0.645,0.767,-0.177,-2.441,-4.028,2.136,1
6.301502,0.649,0.762,-0.161,-0.915,-3.906,2.075,1
6.308499,0.656,0.77,-0.158,0.305,-3.54,1.953,1
6.316372,0.663,0.764,-0.152,1.22,-3.234,1.831,1
6.325597,0.664,0.761,-0.155,0.549,-2.502,1.525,1
6.3328,0.662,0.761,-0.155,-1.281,-1.647,1.281,1
6.341027,0.655,0.751,-0.157,-2.136,-1.159,1.281,1
6.349472,0.659,0.743,-0.171,-2.929,-0.61,1.098,1
6.357498,0.654,0.74,-0.183,-4.272,-0.549,1.281,1
6.365214,0.654,0.746,-0.188,-4.15,-0.183,1.22,1
6.371759,0.65,0.748,-0.197,-2.807,-0.427,1.281,1
6.379776,0.651,0.748,-0.203,-1.525,-0.366,1.098,1
6.388347,0.644,0.745,-0.204,-1.403,-0.61,1.464,1
6.396163,0.65,0.746,-0.209,-1.525,-0.549,1.342,1
6.404373,0.642,0.745,-0.214,-2.563,-0.366,1.525,1
6.412025,0.645,0.749,-0.219,-3.479,-0.122,1.525,1
6.420773,0.646,0.751,-0.223,-3.295,-0.488,1.464,1
6.427637,0.642,0.745,-0.223,-2.807,-0.549,1.586,1
6.436696,0.638,0.749,-0.213,-1.708,-0.488,1.647,1
6.443625,0.636,0.749,-0.208,0.183,-0.488,1.464,1
6.451218,0.634,0.743,-0.202,0.854,-0.244,1.586,1
6.460538,0.627,0.743,-0.203,-0.427,-0.244,1.708,1
6.46731,0.625,0.754,-0.207,-2.319,-0.122,1.586,1
6.476342,0.635,0.763,-0.207,-1.647,0.122,1.403,1
6.483692,0.637,0.763,-0.206,-0.549,0.122,1.037,1
6.491375,0.645,0.759,-0.21,-1.037,0.0,1.037,1
6.499948,0.639,0.757,-0.216,-1.831,0.061,0.915,1
6.50743,0.646,0.752,-0.215,-2.624,0.305,0.915,1
6.516802,0.65,0.744,-0.217,-2.929,0.488,0.793,1
6.524395,0.647,0.741,-0.227,-3.356,0.549,0.488,1
6.533187,0.65,0.743,-0.228,-3.906,0.366,0.671,1
6.540927,0.646,0.747,-0.229,-2.746,0.305,0.732,1
6.547872,0.642,0.746,-0.223,-1.098,0.122,0.793,1
6.556891,0.648,0.75,-0.228,-0.671,0.0,0.732,1
6.56398,0.643,0.756,-0.227,-0.793,0.122,0.793,1
6.57143,0.645,0.759,-0.224,-0.976,0.061,0.793,1
6.58073,0.644,0.766,-0.225,-0.427,-0.183,0.549,1
6.589275,0.644,0.764,-0.224,0.183,-0.122,0.549,1
6.596577,0.645,0.755,-0.231,-0.732,0.122,0.061,1
6.603248,0.645,0.752,-0.235,-1.708,0.366,0.183,1
6.611526,0.646,0.753,-0.241,-1.464,0.244,-0.366,1
6.620381,0.647,0.754,-0.244,-1.098,-0.183,-0.183,1
6.627606,0.644,0.748,-0.246,-0.244,-0.366,-0.183,1
6.636412,0.648,0.75,-0.26,-0.732,-0.427,-0.305,1
6.644242,0.648,0.75,-0.266,-1.647,-0.549,-0.488,1
6.652762,0.647,0.753,-0.274,-1.831,-1.281,-0.732,1
6.661499,0.645,0.754,-0.274,-0.976,-1.708,-0.366,1
6.668627,0.653,0.753,-0.259,-0.061,-2.441,-0.854,1
6.677078,0.652,0.741,-0.251,0.793,-2.685,-0.671,1
6.685349,0.655,0.74,-0.242,-0.488,-2.685,-0.854,1
6.69341,0.653,0.74,-0.233,-0.854,-2.624,-0.976,1
6.701585,0.658,0.741,-0.223,0.427,-3.051,-0.915,1
6.710222,0.658,0.738,-0.215,1.342,-3.051,-0.915,1
6.717392,0.663,0.738,-0.211,1.831,-3.051,-0.732,1
6.725706,0.656,0.736,-0.211,0.732,-2.624,-0.915,1
6.735683,0.65,0.734,-0.222,-1.098,-2.502,-0.793,1
6.742452,0.649,0.733,-0.234,-2.746,-2.441,-0.854,1
6.750905,0.644,0.73,-0.241,-2.929,-2.868,-0.915,1
6.759695,0.642,0.729,-0.23,-2.258,-3.234,-0.671,1
6.767251,0.642,0.722,-0.227,-0.976,-3.54,-0.549,1
6.775963,0.643,0.724,-0.214,-0.427,-3.723,-0.549,1
6.785236,0.644,0.725,-0.203,-0.427,-3.356,-0.427,1
6.794035,0.642,0.726,-0.196,-0.366,-3.173,-0.305,1
6.801116,0.647,0.72,-0.189,-0.366,-2.99,-0.122,1
6.808831,0.646,0.717,-0.182,-0.305,-2.746,0.061,1
6.816662,0.65,0.714,-0.187,-0.427,-2.624,0.244,1
6.825555,0.644,0.718,-0.188,-0.671,-2.319,0.488,1
6.83382,0.649,0.718,-0.193,-0.793,-2.136,0.671,1
6.842486,0.656,0.721,-0.198,-0.915,-2.075,0.793,1
6.849499,0.65,0.717,-0.198,-1.159,-1.953,0.915,1
6.85792,0.649,0.722,-0.201,-1.159,-1.77,1.159,1
6.865108,0.649,0.72,-0.205,-0.976,-1.831,1.159,1
6.873848,0.647,0.729,-0.204,-0.732,-1.77,1.22,1
6.881526,0.65,0.729,-0.204,-0.061,-2.014,1.525,1
6.890162,0.65,0.729,-0.195,0.976,-1.77,1.342,1
6.898316,0.654,0.729,-0.192,1.403,-1.831,1.403,1
6.905165,0.649,0.726,-0.185,1.647,-1.708,1.586,1
6.914892,0.653,0.724,-0.183,1.525,-1.586,1.647,1
6.922835,0.65,0.727,-0.179,0.854,-1.159,1.525,1
6.930026,0.65,0.735,-0.179,0.671,-1.342,1.892,1
6.937612,0.648,0.742,-0.177,1.22,-1.037,1.953,1
6.945607,0.65,0.745,-0.172,1.892,-0.793,1.953,1
6.953191,0.645,0.749,-0.168,1.464,-0.427,1.831,1
6.962089,0.643,0.744,-0.17,1.037,-0.122,1.77,1
6.970711,0.646,0.747,-0.168,0.61,0.183,1.77,1
6.977732,0.644,0.746,-0.17,0.0,0.549,1.77,1
6.984861,0.645,0.744,-0.171,0.122,0.976,1.708,1
6.993108,0.643,0.75,-0.172,0.427,1.037,1.708,1
7.000599,0.644,0.744,-0.176,0.122,1.342,1.708,1
7.009316,0.641,0.749,-0.176,0.671,1.647,1.708,1
7.016299,0.642,0.757,-0.174,1.525,1.586,2.075,1
7.024417,0.644,0.76,-0.174,2.258,1.892,1.525,1
7.031925,0.647,0.762,-0.168,2.258,2.258,1.464,1
7.039873,0.649,0.766,-0.175,1.464,2.502,1.525,1
7.047382,0.648,0.761,-0.18,1.647,2.685,1.098,1
7.057016,0.647,0.765,-0.189,1.892,3.051,1.037,1
7.06582,0.644,0.762,-0.193,1.77,3.356,0.915,1
7.073009,0.647,0.761,-0.2,1.708,3.295,0.793,1
7.081984,0.649,0.752,-0.208,0.915,3.479,0.61,1
7.089388,0.644,0.748,-0.212,0.854,3.54,0.61,1
7.096131,0.641,0.756,-0.213,2.441,3.234,0.793,1
7.105037,0.639,0.761,-0.225,2.502,3.173,0.549,1
7.112032,0.646,0.763,-0.228,1.892,3.051,0.305,1
7.120165,0.649,0.759,-0.23,1.892,2.99,0.0,1
7.127032,0.645,0.758,-0.232,2.014,2.99,0.122,1
7.135624,0.646,0.752,-0.235,2.319,2.502,0.0,1
7.142878,0.641,0.75,-0.228,2.197,2.624,-0.244,1
7.150511,0.643,0.746,-0.228,1.892,2.563,0.0,1
7.158181,0.644,0.744,-0.227,1.953,2.38,-0.122,1
7.166631,0.64,0.744,-0.222,2.319,2.319,0.0,1
7.175164,0.643,0.744,-0.226,2.746,2.258,0.061,1
7.181332,0.64,0.744,-0.229,2.38,2.197,0.183,1
7.188678,0.637,0.742,-0.234,1.525,2.319,0.366,1
7.197418,0.64,0.737,-0.232,0.793,2.38,0.305,1
7.204482,0.636,0.738,-0.231,1.159,2.197,0.305,1
7.212194,0.639,0.737,-0.233,1.647,2.075,0.488,1
7.220621,0.635,0.735,-0.241,1.159,1.953,0.305,1
7.229293,0.635,0.733,-0.253,0.305,1.647,0.488,1
7.236058,0.635,0.736,-0.253,0.366,1.342,0.488,1
7.244619,0.64,0.732,-0.253,1.037,1.342,0.427,1
7.251264,0.643,0.736,-0.248,1.708,0.915,0.732,1
7.259692,0.646,0.743,-0.238,2.99,0.427,0.854,1
7.269771,0.645,0.747,-0.238,2.746,0.488,0.793,1
7.276091,0.642,0.753,-0.239,1.403,0.427,0.793,1
7.284533,0.634,0.755,-0.241,0.427,0.244,0.61,1
7.291444,0.64,0.766,-0.24,0.122,0.244,0.549,1
7.299788,0.638,0.761,-0.254,-0.488,0.244,0.366,1
7.308413,0.633,0.758,-0.26,-1.22,0.244,0.366,1
7.315366,0.633,0.752,-0.268,-1.281,-0.366,0.122,1
7.323919,0.635,0.75,-0.262,-1.22,-0.793,0.183,1
7.332336,0.637,0.752,-0.251,-0.488,-1.403,0.183,1
7.340918,0.64,0.755,-0.241,-0.732,-1.464,0.061,1
7.348023,0.643,0.757,-0.238,-1.098,-1.647,0.244,1
7.356365,0.644,0.758,-0.231,-1.281,-1.525,0.061,1
7.364856,0.645,0.75,-0.227,-0.61,-1.892,0.122,1
7.37299,0.643,0.756,-0.227,-0.488,-1.708,-0.061,1
7.381728,0.639,0.751,-0.224,-0.488,-1.77,0.122,1
7.38849,0.639,0.748,-0.22,-0.488,-1.586,-0.061,1
7.396224,0.642,0.742,-0.217,0.0,-1.586,0.0,1
7.404129,0.641,0.74,-0.223,0.488,-1.647,0.0,1
7.411552,0.642,0.736,-0.22,0.366,-1.77,-0.061,1
7.419478,0.637,0.737,-0.221,-0.122,-1.831,0.183,1
7.427604,0.64,0.732,-0.217,-0.549,-1.708,0.183,1
7.436965,0.637,0.736,-0.212,-0.61,-1.953,0.305,1
7.443555,0.638,0.74,-0.211,-0.793,-1.708,0.183,1
7.452086,0.641,0.742,-0.212,-0.854,-1.953,0.305,1
7.45877,0.641,0.743,-0.207,-0.549,-1.892,0.549,1
7.466536,0.643,0.746,-0.205,-0.183,-1.77,0.427,1
7.474315,0.645,0.746,-0.206,0.122,-1.831,0.427,1
7.481124,0.642,0.748,-0.208,0.488,-1.708,0.488,1
7.488963,0.642,0.746,-0.204,0.0,-1.525,0.427,1
7.497215,0.637,0.744,-0.2,-0.183,-1.647,0.244,1
7.504276,0.635,0.74,-0.201,-0.183,-1.159,0.122,1
7.512431,0.632,0.737,-0.195,0.427,-1.22,0.366,1
7.519515,0.629,0.731,-0.194,0.976,-1.098,0.427,1
7.528047,0.622,0.725,-0.194,1.281,-0.671,0.61,1
7.534928,0.618,0.721,-0.208,1.525,-0.244,0.671,1
7.541705,0.616,0.722,-0.223,0.976,0.244,0.793,1
7.549129,0.614,0.719,-0.247,0.244,0.122,1.098,1
7.557755,0.62,0.716,-0.268,0.366,0.122,0.976,1
7.564811,0.631,0.71,-0.286,0.793,-0.244,1.281,1
7.571583,0.635,0.707,-0.299,1.831,-0.671,1.464,1
7.580357,0.637,0.699,-0.301,2.136,-1.342,1.77,1
7.587176,0.636,0.697,-0.301,2.563,-2.258,2.075,1
7.595909,0.64,0.699,-0.288,2.502,-2.685,2.075,1
7.602699,0.637,0.694,-0.286,1.77,-3.417,2.624,1
7.611997,0.635,0.688,-0.273,0.976,-3.601,2.868,1
7.618557,0.63,0.691,-0.271,0.122,-3.784,3.417,1
7.627897,0.623,0.691,-0.265,0.183,-4.821,4.089,1
7.634301,0.621,0.692,-0.254,-0.305,-4.76,4.333,1
7.642555,0.614,0.69,-0.243,-1.342,-4.821,4.76,1
7.649862,0.613,0.69,-0.242,-2.624,-4.943,5.126,1
7.658417,0.609,0.693,-0.237,-3.845,-4.516,5.31,1
7.666165,0.602,0.7,-0.237,-4.882,-4.76,5.676,1
7.674229,0.604,0.696,-0.243,-5.615,-4.394,6.103,1
7.682135,0.6,0.707,-0.246,-5.432,-4.272,6.408,1
7.690698,0.594,0.713,-0.245,-5.615,-3.906,6.652,1
7.699085,0.583,0.717,-0.255,-7.263,-3.54,7.08,1
7.705984,0.579,0.723,-0.267,-8.544,-3.051,7.08,1
7.713786,0.573,0.724,-0.291,-9.582,-2.685,7.568,1
7.723022,0.567,0.726,-0.315,-11.047,-2.441,7.812,1
7.730354,0.557,0.728,-0.336,-12.451,-2.38,8.178,1
7.738022,0.56,0.728,-0.375,-14.282,-2.685,8.178,1
7.745764,0.554,0.729,-0.414,-15.686,-2.563,8.422,1
7.753529,0.546,0.728,-0.457,-17.578,-3.234,8.728,1
7.761642,0.543,0.728,-0.502,-20.263,-4.15,8.972,1
7.770706,0.541,0.729,-0.569,-23.315,-5.249,9.155,1
7.777778,0.531,0.737,-0.622,-25.695,-7.019,9.033,1
7.785255,0.535,0.735,-0.679,-26.855,-9.155,9.155,1
7.794528,0.535,0.732,-0.732,-27.77,-11.779,9.216,1
7.801026,0.536,0.719,-0.787,-27.648,-15.197,9.521,1
7.810224,0.542,0.708,-0.833,-27.832,-18.737,9.887,1
7.817255,0.541,0.699,-0.877,-28.93,-22.277,10.192,1
7.826014,0.549,0.681,-0.925,-31.982,-26.672,11.108,1
7.833703,0.548,0.68,-0.979,-36.193,-30.456,11.901,1
7.841401,0.537,0.679,-1.03,-39.245,-34.973,12.634,1
7.851203,0.54,0.673,-1.08,-42.724,-40.588,13.671,1
7.858606,0.531,0.67,-1.116,-46.264,-45.837,14.892,1
7.866439,0.515,0.667,-1.143,-49.194,-51.818,16.662,1
7.87407,0.517,0.664,-1.168,-51.452,-57.312,18.127,1
7.883224,0.503,0.663,-1.199,-53.833,-64.025,19.897,1
7.890566,0.492,0.671,-1.226,-55.419,-69.824,21.24,1
7.898721,0.481,0.674,-1.254,-57.983,-76.171,22.827,1
7.906259,0.472,0.687,-1.281,-61.096,-82.458,24.353,1
7.915051,0.444,0.706,-1.306,-63.781,-89.294,25.817,1
7.922397,0.414,0.721,-1.312,-65.368,-97.473,27.465,1
7.930671,0.375,0.738,-1.309,-65.917,-106.018,29.357,1
7.937837,0.339,0.75,-1.281,-66.894,-112.976,30.151,1
7.945874,0.31,0.754,-1.244,-67.016,-119.75,31.616,1
7.955171,0.281,0.766,-1.198,-67.749,-125.671,32.775,1
7.961755,0.241,0.81,-1.138,-67.199,-132.446,33.996,1
7.969899,0.199,0.85,-1.077,-65.612,-138.061,35.095,1
7.97737,0.156,0.886,-1.015,-64.453,-142.944,35.705,1
7.985603,0.117,0.92,-0.944,-64.636,-147.399,36.315,1
7.99396,0.068,0.961,-0.863,-64.208,-151.489,36.743,1
8.001637,0.039,0.995,-0.806,-66.223,-154.785,37.109,1
8.008559,0.009,1.041,-0.736,-68.298,-158.63,37.231,1
8.016715,-0.01,1.085,-0.68,-71.105,-160.766,37.536,1
8.025747,-0.033,1.132,-0.631,-74.34,-162.475,36.987,1
8.034501,-0.057,1.166,-0.589,-77.087,-164.855,36.437,1
8.042277,-0.069,1.215,-0.542,-78.308,-166.381,35.888,1
8.05002,-0.089,1.269,-0.5,-78.552,-167.724,34.729,1
8.057896,-0.106,1.316,-0.459,-78.186,-169.433,33.874,1
8.06596,-0.122,1.357,-0.415,-80.383,-170.41,31.982,1
8.074161,-0.118,1.394,-0.381,-83.374,-170.593,30.7,1
8.081044,-0.107,1.416,-0.361,-86.73,-171.081,29.052,1
8.089034,-0.111,1.436,-0.348,-88.989,-171.691,27.404,1
8.097334,-0.097,1.46,-0.333,-90.881,-172.607,25.268,1
8.107389,-0.09,1.476,-0.312,-89.66,-173.4,23.498,1
8.115732,-0.076,1.482,-0.296,-87.463,-174.743,21.484,1
8.122828,-0.069,1.512,-0.267,-85.693,-176.025,18.981,1
8.131166,-0.063,1.532,-0.245,-85.021,-176.635,16.662,1
8.140159,-0.061,1.554,-0.226,-87.463,-177.246,13.549,1
8.148665,-0.05,1.561,-0.206,-89.904,-177.612,10.986,1
8.156409,-0.037,1.556,-0.184,-91.247,-178.344,7.873,1
8.163175,-0.038,1.539,-0.166,-93.017,-178.588,5.249,1
8.172972,-0.042,1.526,-0.159,-93.627,-178.955,2.746,1
8.180305,-0.039,1.506,-0.142,-93.078,-179.87,-0.122,1
8.189055,-0.05,1.496,-0.113,-90.82,-180.541,-2.563,1
8.198099,-0.057,1.464,-0.096,-89.782,-180.847,-5.371,1
8.205224,-0.064,1.431,-0.087,-90.82,-180.969,-8.178,1
8.214437,-0.071,1.393,-0.081,-91.796,-181.457,-9.948,1
8.222959,-0.08,1.375,-0.074,-90.881,-182.617,-12.023,1
8.230235,-0.093,1.37,-0.043,-86.486,-184.57,-13.488,1
8.240091,-0.129,1.353,-0.001,-83.129,-185.241,-15.136,1
8.247271,-0.145,1.341,0.031,-83.068,-185.607,-17.028,1
8.255016,-0.177,1.345,0.076,-83.129,-185.913,-18.31,1
8.264126,-0.179,1.322,0.105,-83.312,-186.035,-19.897,1
8.273069,-0.174,1.303,0.151,-83.679,-186.035,-20.996,1
8.280555,-0.174,1.288,0.176,-82.946,-185.485,-22.338,1
8.288501,-0.164,1.257,0.214,-82.519,-185.18,-23.742,1
8.297145,-0.15,1.234,0.257,-81.787,-184.936,-24.414,1
8.305535,-0.148,1.211,0.313,-79.895,-184.143,-25.39,1
8.312541,-0.153,1.181,0.367,-77.575,-182.8,-26.367,1
8.321799,-0.145,1.163,0.422,-76.232,-181.762,-26.733,1
8.329044,-0.138,1.139,0.509,-73.974,-179.748,-27.465,1
8.337947,-0.115,1.119,0.583,-71.044,-177.673,-27.832,1
8.345629,-0.086,1.107,0.672,-67.565,-174.194,-28.198,1
8.353466,-0.057,1.099,0.738,-65.795,-171.142,-28.564,1
8.362523,-0.012,1.09,0.796,-65.795,-166.503,-29.113,1
8.371382,0.02,1.084,0.839,-67.565,-162.353,-30.029,1
8.378238,0.083,1.072,0.883,-69.274,-157.714,-30.883,1
8.386991,0.131,1.055,0.928,-68.42,-153.808,-31.433,1
8.39419,0.175,1.034,0.989,-64.453,-149.78,-31.982,1
8.403191,0.2,1.013,1.041,-57.739,-144.592,-32.775,1
8.410382,0.22,0.986,1.086,-53.161,-139.77,-33.203,1
8.419045,0.244,0.966,1.122,-51.635,-133.728,-33.325,1
8.427868,0.26,0.95,1.134,-52.795,-127.99,-33.569,1
8.434743,0.293,0.933,1.131,-54.26,-122.619,-33.874,1
8.443746,0.313,0.913,1.128,-54.504,-116.21,-34.179,1
8.451267,0.338,0.887,1.117,-55.603,-111.206,-34.118,1
8.46017,0.36,0.864,1.107,-57.312,-105.346,-34.118,1
8.468054,0.393,0.841,1.104,-57.128,-100.769,-34.057,1
8.476762,0.405,0.828,1.102,-54.992,-95.275,-33.996,1
8.484649,0.416,0.812,1.111,-52.062,-90.942,-34.179,1
8.492822,0.431,0.789,1.11,-47.973,-85.815,-34.179,1
8.501467,0.444,0.772,1.106,-45.776,-81.054,-34.118,1
8.509427,0.473,0.751,1.095,-43.457,-75.378,-33.874,1
8.516574,0.498,0.732,1.076,-42.053,-70.8,-33.874,1
8.525678,0.534,0.711,1.051,-41.809,-65.856,-33.447,1
8.532906,0.562,0.686,1.033,-41.198,-61.523,-33.325,1
8.542019,0.578,0.662,1.005,-40.283,-56.762,-32.531,1
8.550746,0.6,0.646,0.992,-38.452,-52.917,-31.799,1
8.557928,0.604,0.644,0.974,-33.935,-48.583,-31.127,1
8.565456,0.601,0.631,0.962,-31.127,-44.799,-30.578,1
8.573244,0.604,0.61,0.945,-30.883,-40.405,-30.029,1
8.582263,0.609,0.602,0.92,-31.738,-36.621,-29.357,1
8.589984,0.618,0.589,0.89,-31.494,-32.104,-28.686,1
8.59841,0.633,0.567,0.869,-31.616,-28.381,-27.648,1
8.604673,0.641,0.548,0.837,-32.348,-24.902,-26.55,1
8.614654,0.644,0.539,0.801,-33.203,-21.545,-25.207,1
8.622204,0.654,0.528,0.76,-31.372,-17.517,-23.742,1
8.630784,0.664,0.517,0.722,-30.334,-14.831,-22.583,1
8.638392,0.67,0.508,0.683,-29.174,-12.268,-20.996,1
8.647301,0.671,0.498,0.662,-27.099,-9.643,-19.714,1
8.656096,0.671,0.486,0.635,-24.719,-7.263,-18.066,1
8.663148,0.675,0.479,0.612,-22.949,-5.065,-16.54,1
8.670833,0.671,0.473,0.576,-21.362,-2.807,-14.831,1
8.679354,0.663,0.486,0.544,-20.019,-0.732,-13.305,1
8.687623,0.668,0.492,0.505,-18.737,1.098,-11.901,1
8.695482,0.667,0.499,0.465,-18.554,2.441,-10.559,1
8.702822,0.672,0.507,0.42,-18.859,3.723,-9.155,1
8.711873,0.678,0.514,0.392,-18.249,4.638,-8.056,1
8.718864,0.686,0.516,0.376,-16.662,5.126,-6.713,1
8.72789,0.696,0.519,0.354,-14.16,5.859,-5.31,1
8.735346,0.689,0.518,0.347,-12.329,6.591,-4.028,1
8.743517,0.692,0.528,0.326,-11.291,6.958,-2.685,1
8.751035,0.683,0.543,0.299,-10.192,7.568,-1.708,1
8.759025,0.677,0.558,0.276,-10.009,8.117,-0.61,1
8.767782,0.668,0.58,0.253,-9.887,7.934,0.427,1
8.774236,0.658,0.595,0.236,-9.765,7.873,0.976,1
8.782367,0.667,0.604,0.227,-10.131,7.446,1.525,1
8.790436,0.663,0.608,0.221,-10.742,7.019,2.136,1
8.797526,0.665,0.606,0.228,-10.925,7.141,2.563,1
8.805248,0.668,0.605,0.218,-11.108,6.958,3.295,1
8.813149,0.68,0.605,0.212,-11.413,7.08,3.54,1
8.823032,0.69,0.61,0.211,-9.704,6.408,3.906,1
8.830438,0.695,0.613,0.207,-7.263,6.469,4.699,1
8.837493,0.703,0.61,0.203,-5.554,6.225,5.187,1
8.845159,0.707,0.605,0.21,-4.15,6.103,5.798,1
8.853917,0.704,0.604,0.213,-2.258,6.103,5.92,1
8.860761,0.701,0.602,0.22,-0.488,6.408,6.652,1
8.869609,0.699,0.604,0.219,0.061,6.652,7.263,1
8.876769,0.703,0.603,0.218,0.366,6.591,7.995,1
8.884188,0.701,0.619,0.211,0.793,6.835,8.666,1
8.891811,0.701,0.631,0.205,1.281,6.774,9.094,1
8.900766,0.698,0.645,0.199,1.342,6.835,9.704,1
8.907398,0.707,0.655,0.189,0.366,6.958,10.009,1
8.914721,0.706,0.669,0.186,0.0,6.53,10.192,1
8.923783,0.708,0.683,0.185,1.281,6.225,10.314,1
8.929912,0.709,0.693,0.186,3.479,5.981,10.314,1
8.939535,0.707,0.693,0.192,4.76,5.737,10.253,1
8.945993,0.708,0.702,0.201,4.943,5.676,10.375,1
8.953422,0.704,0.705,0.213,5.187,5.676,10.375,1
8.960785,0.695,0.71,0.214,4.882,6.042,10.559,1
8.969924,0.686,0.721,0.213,3.906,6.469,10.559,1
8.977012,0.683,0.737,0.196,2.807,6.713,10.375,1
8.984337,0.679,0.749,0.18,2.563,6.591,10.192,1
8.993172,0.677,0.753,0.163,2.075,6.286,9.826,1
9.000489,0.681,0.759,0.148,1.403,6.042,9.46,1
9.008676,0.681,0.761,0.131,0.427,5.554,9.155,1
9.016374,0.691,0.767,0.113,0.0,5.004,8.728,1
9.024345,0.687,0.774,0.108,1.892,3.723,8.422,1
9.032296,0.689,0.78,0.103,3.906,3.173,7.629,1
9.04024,0.697,0.775,0.101,4.699,2.075,7.202,1
9.047721,0.702,0.771,0.106,5.004,1.098,6.835,1
9.054965,0.702,0.768,0.108,4.211,0.549,6.103,1
9.062115,0.697,0.77,0.108,2.929,-0.305,5.981,1
9.07147,0.698,0.778,0.106,2.014,-0.793,5.554,1
9.079446,0.702,0.785,0.105,1.22,-1.708,4.943,1
9.086654,0.702,0.784,0.111,1.098,-2.441,4.699,1
9.093858,0.706,0.788,0.122,0.305,-3.112,4.211,1
9.102317,0.707,0.791,0.14,-1.22,-3.662,4.089,1
9.110484,0.715,0.789,0.16,-2.685,-3.906,3.295,1
9.118132,0.704,0.793,0.184,-3.112,-3.784,2.868,1
9.12559,0.703,0.791,0.199,-2.807,-3.723,2.502,1
9.133955,0.707,0.783,0.218,-1.708,-3.356,1.892,1
9.141358,0.7,0.775,0.228,-0.732,-2.99,1.281,1
9.149263,0.703,0.766,0.235,-0.427,-2.502,0.671,1
9.158376,0.7,0.758,0.239,-0.366,-1.831,0.244,1
9.165568,0.694,0.748,0.243,-0.366,-1.647,0.183,1
9.174495,0.69,0.739,0.242,-0.915,-0.793,-0.061,1
9.181782,0.689,0.729,0.233,-1.037,-0.61,-0.122,1
9.191003,0.688,0.716,0.232,-1.403,-0.061,0.183,1
9.197624,0.678,0.716,0.224,-1.464,0.183,0.488,1
9.204474,0.682,0.716,0.218,-0.671,0.427,0.671,1
9.212122,0.681,0.717,0.215,0.427,0.366,0.793,1
9.221029,0.676,0.722,0.211,0.427,0.671,1.464,1
9.227576,0.674,0.729,0.211,-0.305,0.732,1.464,1
9.235064,0.682,0.743,0.202,-0.549,1.037,1.464,1
9.24437,0.682,0.749,0.191,-1.22,1.037,1.403,1
9.25182,0.681,0.759,0.186,-1.953,1.098,1.037,1
9.259455,0.685,0.758,0.179,-2.136,1.159,0.671,1
9.266726,0.687,0.767,0.181,-1.892,0.915,0.305,1
9.275815,0.693,0.767,0.179,-0.122,0.366,-0.061,1
9.283444,0.695,0.763,0.182,1.037,0.244,-0.427,1
9.290708,0.693,0.762,0.185,1.831,0.0,-0.915,1
9.298535,0.696,0.764,0.192,2.319,-0.244,-1.159,1
9.307189,0.7,0.768,0.199,2.746,-0.183,-1.464,1
9.316168,0.7,0.762,0.211,2.624,-0.183,-1.708,1
9.323237,0.7,0.763,0.208,1.708,-0.122,-1.892,1
9.331037,0.7,0.756,0.21,-0.305,0.183,-2.136,1
9.339567,0.701,0.758,0.211,-2.685,0.427,-2.258,1
9.348741,0.703,0.76,0.199,-5.615,0.793,-2.441,1
9.355883,0.701,0.755,0.195,-9.155,1.098,-2.624,1
9.363286,0.694,0.764,0.189,-12.451,1.098,-2.685,1
9.37243,0.698,0.774,0.184,-15.93,1.098,-2.99,1
9.380597,0.698,0.778,0.177,-22.277,1.159,-3.295,1
9.387776,0.697,0.787,0.17,-27.465,1.22,-3.784,1
9.396586,0.708,0.789,0.159,-29.113,1.098,-4.455,1
9.40377,0.715,0.791,0.154,-27.77,0.549,-5.004,1
9.41278,0.725,0.778,0.14,-27.526,-0.061,-5.493,1
9.419855,0.713,0.77,0.135,-28.93,-0.549,-6.286,1
9.428543,0.719,0.76,0.131,-30.151,-0.671,-6.835,1
9.436409,0.726,0.736,0.132,-32.958,-1.281,-7.019,1
9.443797,0.683,0.736,0.132,-34.24,-1.098,-7.507,1
9.452725,0.688,0.73,0.131,-33.142,-1.831,-7.507,1
9.460337,0.696,0.731,0.135,-30.944,-2.197,-7.751,1
9.469154,0.701,0.722,0.135,-26.794,-2.99,-7.873,1
9.475705,0.704,0.716,0.146,-23.925,-3.54,-8.361,1
9.484856,0.693,0.721,0.161,-19.592,-4.211,-8.239,1
9.492806,0.691,0.728,0.176,-13.305,-4.882,-8.239,1
9.500139,0.686,0.742,0.188,-7.629,-5.371,-8.178,1
9.509361,0.693,0.749,0.204,-0.976,-5.615,-8.544,1
9.516624,0.694,0.764,0.208,6.103,-5.859,-9.155,1
9.525556,0.708,0.778,0.229,15.624,-6.408,-9.46,1
9.533544,0.72,0.777,0.239,23.559,-6.347,-10.192,1
9.540716,0.739,0.773,0.25,29.479,-6.103,-10.803,1
9.548659,0.734,0.775,0.259,33.508,-5.615,-11.108,1
9.556018,0.736,0.791,0.273,36.926,-5.493,-11.596,1
9.564412,0.746,0.795,0.285,37.78,-4.821,-11.962,1
9.572581,0.794,0.753,0.29,25.268,-6.042,-13.061,1
9.5796,0.777,0.753,0.325,14.16,-2.258,-13.305,1
9.587519,0.869,0.687,0.299,-9.094,-1.831,-14.16,1
9.595615,0.734,0.729,0.326,-30.212,0.671,-14.038,1
9.604115,0.692,0.754,0.316,-36.621,0.61,-14.526,1
9.610863,0.714,0.796,0.331,-28.381,1.22,-15.38,1
9.620135,0.692,0.788,0.34,-13.671,0.427,-15.991,1
9.62654,0.578,0.791,0.336,0.915,2.258,-16.54,1
9.63409,0.597,0.793,0.334,13.183,2.38,-17.211,1
9.641438,0.718,0.781,0.341,27.954,2.929,-18.31,1
9.65033,0.638,0.776,0.337,36.499,3.051,-18.066,1
9.657578,0.625,0.778,0.354,41.381,4.699,-18.31,1
9.665536,0.643,0.785,0.338,40.893,6.774,-18.249,1
9.674161,0.668,0.77,0.308,36.499,8.605,-18.737,1
9.681422,0.679,0.756,0.302,30.212,9.887,-19.592,1
9.68912,0.706,0.747,0.307,26.428,11.23,-19.897,1
9.696535,0.723,0.74,0.305,21.606,12.145,-20.446,1
9.704866,0.734,0.729,0.327,18.188,13.061,-20.935,1
9.712415,0.732,0.718,0.333,17.211,14.282,-21.362,1
9.720825,0.736,0.709,0.332,16.723,15.441,-21.789,1
9.729158,0.744,0.687,0.332,17.15,16.418,-22.094,1
9.736097,0.744,0.677,0.326,17.578,17.089,-22.033,1
9.743624,0.73,0.666,0.318,19.531,18.432,-21.911,1
9.751161,0.711,0.657,0.306,21.484,19.531,-21.545,1
9.758779,0.702,0.643,0.278,21.545,20.935,-21.057,1
9.767428,0.706,0.622,0.254,19.042,21.423,-20.568,1
9.774671,0.711,0.617,0.234,15.747,22.46,-19.775,1
9.782609,0.709,0.62,0.215,13.854,23.132,-18.981,1
9.791889,0.719,0.616,0.196,12.695,23.62,-18.737,1
9.79911,0.728,0.61,0.183,13.0,23.437,-18.432,1
9.806916,0.727,0.605,0.169,14.648,23.132,-18.188,1
9.814636,0.726,0.59,0.158,17.7,23.071,-18.127,1
9.823225,0.722,0.576,0.147,21.118,22.644,-17.944,1
9.829818,0.735,0.565,0.136,24.414,22.277,-17.456,1
9.838844,0.742,0.547,0.124,27.038,21.85,-16.967,1
9.846354,0.735,0.54,0.126,28.442,21.24,-15.991,1
9.8546,0.727,0.537,0.126,28.808,20.935,-15.197,1
9.861994,0.729,0.536,0.115,28.259,21.118,-13.977,1
9.86941,0.734,0.534,0.108,25.268,20.996,-12.939,1
9.877513,0.733,0.529,0.101,21.423,20.874,-12.207,1
9.886392,0.744,0.528,0.103,18.066,20.751,-11.23,1
9.893582,0.754,0.517,0.088,14.953,20.629,-10.498,1
9.901872,0.754,0.513,0.086,13.183,20.629,-9.887,1
9.908749,0.755,0.503,0.082,12.39,20.385,-9.094,1
9.916305,0.754,0.493,0.077,13.488,19.287,-8.361,1
9.923931,0.762,0.481,0.072,15.624,18.676,-7.629,1
9.932357,0.769,0.464,0.066,18.31,17.639,-6.53,1
9.940204,0.773,0.457,0.057,20.629,17.15,-5.371,1
9.946903,0.782,0.454,0.047,22.766,16.052,-4.272,1
9.954545,0.789,0.443,0.048,23.437,15.136,-2.929,1
9.963248,0.782,0.438,0.048,23.132,14.343,-1.77,1
9.971272,0.759,0.443,0.049,21.972,13.854,-0.305,1
9.977963,0.753,0.451,0.048,19.897,13.488,1.281,1
9.98556,0.758,0.459,0.035,17.822,12.939,2.502,1
9.994683,0.747,0.467,0.033,16.113,12.084,3.723,1
