timestamp_s,ax,ay,az,gx,gy,gz,label
0.004446,0.79,1.454,0.161,13.061,-9.887,-3.662,1
0.011671,0.859,1.338,0.196,11.901,-9.216,-12.634,1
0.020021,0.927,1.188,0.231,11.657,-7.812,-20.751,1
0.027958,0.984,1.017,0.267,11.901,-6.225,-27.099,1
0.034893,1.032,0.794,0.292,12.084,-4.211,-32.531,1
0.04278,1.056,0.61,0.303,10.864,-1.342,-36.987,1
0.050907,1.07,0.419,0.304,10.07,1.037,-39.001,1
0.05952,1.075,0.236,0.302,10.986,4.028,-40.527,1
0.065954,1.067,0.062,0.286,13.671,6.286,-39.55,1
0.073214,1.068,-0.073,0.256,15.441,8.544,-37.963,1
0.081498,1.053,-0.204,0.228,16.479,10.803,-34.606,1
0.089375,1.039,-0.307,0.187,15.075,12.329,-30.029,1
0.09708,1.005,-0.401,0.143,13.854,14.282,-23.62,1
0.106208,0.986,-0.462,0.096,14.465,14.77,-16.845,1
0.113103,0.959,-0.5,0.06,17.15,14.221,-8.666,1
0.121801,0.921,-0.515,0.008,19.226,13.061,0.671,1
0.12968,0.864,-0.474,-0.038,14.587,10.925,12.512,1
0.138372,0.817,-0.378,-0.068,6.652,8.972,23.193,1
0.146767,0.769,-0.176,-0.078,-4.333,6.042,34.912,1
0.15389,0.72,0.033,-0.063,-12.756,3.906,43.579,1
0.162449,0.691,0.301,-0.043,-23.315,1.708,51.696,1
0.171974,0.68,0.551,-0.021,-33.63,0.732,56.213,1
0.178958,0.665,0.798,0.002,-42.724,-0.61,58.288,1
0.186605,0.648,1.075,0.026,-45.898,-2.136,56.762,1
0.195679,0.626,1.285,0.038,-38.94,-4.516,52.124,1
0.202103,0.596,1.448,0.049,-26.855,-6.835,44.738,1
0.209679,0.601,1.585,0.063,-12.268,-8.911,33.02,1
0.218118,0.617,1.641,0.072,-3.784,-10.498,21.362,1
0.227287,0.675,1.611,0.077,0.915,-11.108,8.911,1
0.234117,0.75,1.498,0.092,3.723,-11.291,-5.065,1
0.242105,0.823,1.324,0.107,7.324,-11.108,-15.38,1
0.250195,0.883,1.12,0.124,13.061,-10.925,-23.864,1
0.258088,0.943,0.888,0.142,20.202,-10.314,-30.578,1
0.264833,0.996,0.639,0.153,29.052,-9.887,-35.278,1
0.273406,1.059,0.333,0.156,36.743,-9.155,-37.109,1
0.28139,1.121,0.088,0.152,39.611,-7.568,-36.987,1
0.289054,1.169,-0.116,0.15,34.729,-4.821,-33.02,1
0.296393,1.183,-0.282,0.143,25.573,-2.746,-27.709,1
0.305834,1.166,-0.404,0.146,16.784,-0.915,-20.812,1
0.313454,1.125,-0.5,0.135,9.277,0.427,-11.413,1
0.322105,1.071,-0.536,0.122,3.295,0.976,-1.464,1
0.328999,0.996,-0.501,0.104,-5.371,1.037,10.62,1
0.3369,0.901,-0.412,0.088,-11.718,0.061,21.24,1
0.346426,0.803,-0.218,0.089,-15.808,-1.037,31.311,1
0.353649,0.731,-0.003,0.108,-18.981,-2.258,41.198,1
0.361272,0.668,0.259,0.117,-24.475,-2.807,48.828,1
0.368793,0.618,0.516,0.131,-31.616,-3.54,53.161,1
0.378065,0.582,0.783,0.133,-40.222,-3.295,55.358,1
0.384817,0.562,1.055,0.14,-45.593,-4.028,54.809,1
0.392492,0.562,1.304,0.154,-43.09,-4.577,51.086,1
0.400863,0.577,1.512,0.157,-31.555,-5.859,44.982,1
0.408598,0.616,1.68,0.16,-15.747,-7.812,36.254,1
0.4163,0.656,1.775,0.157,0.0,-9.46,24.291,1
0.424173,0.712,1.809,0.159,6.652,-10.192,14.404,1
0.430846,0.77,1.768,0.167,9.399,-10.62,0.427,1
0.438732,0.837,1.68,0.191,10.375,-10.375,-10.681,1
0.446601,0.892,1.539,0.217,12.878,-9.46,-20.996,1
0.455559,0.936,1.346,0.239,15.747,-8.361,-30.029,1
0.461939,0.979,1.127,0.258,17.517,-6.713,-37.353,1
0.471,1.006,0.901,0.275,17.578,-5.065,-42.663,1
0.477418,1.033,0.645,0.282,15.624,-2.807,-46.447,1
0.486491,1.052,0.444,0.288,13.122,-0.183,-48.278,1
0.492799,1.06,0.26,0.284,10.498,2.319,-48.522,1
0.50113,1.066,0.102,0.278,10.986,4.028,-46.691,1
0.507918,1.051,-0.023,0.274,12.573,6.164,-43.945,1
0.516869,1.021,-0.131,0.254,14.648,7.751,-40.283,1
0.524471,0.981,-0.223,0.226,16.967,9.094,-35.461,1
0.533376,0.925,-0.296,0.193,21.789,9.582,-28.991,1
0.541476,0.898,-0.343,0.17,27.709,9.643,-21.423,1
0.548178,0.862,-0.353,0.133,31.188,8.972,-12.817,1
0.556718,0.826,-0.302,0.104,26.123,7.995,-1.098,1
0.564151,0.802,-0.172,0.088,12.573,6.958,9.094,1
0.572752,0.772,0.046,0.096,-2.136,6.591,18.249,1
0.581949,0.74,0.336,0.124,-16.113,5.981,26.062,1
0.588949,0.722,0.591,0.144,-26.428,6.042,30.029,1
0.597238,0.697,0.863,0.159,-34.24,6.164,30.639,1
0.603666,0.674,1.031,0.166,-36.804,5.92,28.503,1
0.611021,0.652,1.2,0.166,-32.897,5.31,23.071,1
0.618601,0.638,1.326,0.157,-24.353,4.211,16.052,1
0.627247,0.638,1.395,0.15,-15.624,3.295,7.263,1
0.634336,0.652,1.413,0.142,-7.934,2.38,-2.746,1
0.642134,0.675,1.344,0.131,1.281,1.586,-14.648,1
0.649703,0.704,1.203,0.12,10.131,1.098,-24.353,1
0.658783,0.74,1.001,0.111,16.662,0.427,-31.066,1
0.66572,0.78,0.767,0.1,22.949,0.488,-38.024,1
0.674728,0.846,0.528,0.097,24.902,0.671,-41.748,1
0.681435,0.945,0.292,0.101,24.047,1.22,-42.724,1
0.688249,1.07,0.055,0.121,21.911,2.014,-40.832,1
0.695729,1.136,-0.074,0.138,19.653,3.234,-36.865,1
0.70381,1.191,-0.232,0.154,17.272,4.211,-31.249,1
0.712865,1.199,-0.332,0.156,16.723,5.737,-23.742,1
0.719388,1.183,-0.416,0.15,17.028,6.591,-16.601,1
0.727227,1.137,-0.46,0.139,17.395,7.08,-8.789,1
0.73558,1.062,-0.473,0.117,14.343,7.507,-0.488,1
0.742939,0.955,-0.429,0.081,5.859,7.995,9.216,1
0.751108,0.857,-0.335,0.051,-3.112,8.178,16.967,1
0.759744,0.763,-0.208,0.021,-10.375,7.629,23.986,1
0.767301,0.695,-0.048,0.0,-15.93,6.896,29.724,1
0.775251,0.625,0.135,-0.01,-20.385,5.371,33.996,1
0.784121,0.599,0.29,-0.006,-24.291,3.906,37.536,1
0.790937,0.6,0.434,0.003,-25.39,2.502,38.879,1
0.799503,0.61,0.584,0.015,-23.071,0.915,38.757,1
0.808286,0.638,0.69,0.015,-18.737,-0.549,37.658,1
0.813701,0.681,0.771,0.017,-13.366,-2.624,35.522,1
0.822063,0.719,0.83,0.02,-10.559,-3.967,32.958,1
0.829171,0.771,0.875,0.024,-9.582,-5.187,30.09,1
0.838033,0.827,0.901,0.037,-8.728,-6.225,26.672,1
0.845241,0.873,0.905,0.049,-7.446,-7.263,23.62,1
0.855347,0.925,0.899,0.068,-5.31,-8.239,20.69,1
0.862155,0.962,0.874,0.087,-2.746,-8.972,17.517,1
0.870645,0.994,0.843,0.105,-0.976,-9.216,15.075,1
0.877169,1.007,0.804,0.134,0.976,-9.46,13.0,1
0.884613,1.002,0.768,0.164,3.051,-9.399,11.352,1
0.893746,0.986,0.729,0.19,5.065,-8.911,9.887,1
0.900753,0.964,0.693,0.22,5.798,-8.239,8.361,1
0.908591,0.928,0.655,0.241,5.798,-6.896,7.08,1
0.916466,0.905,0.63,0.25,4.028,-5.432,6.164,1
0.9261,0.875,0.604,0.253,2.014,-3.845,5.371,1
0.933894,0.842,0.585,0.251,0.183,-2.624,4.333,1
0.941568,0.832,0.557,0.242,-0.061,-1.464,3.845,1
0.94788,0.823,0.531,0.232,0.061,-0.366,2.929,1
0.955571,0.819,0.51,0.22,0.366,0.305,2.929,1
0.963382,0.821,0.486,0.201,0.427,0.976,2.99,1
0.971065,0.82,0.471,0.178,-0.366,1.403,3.295,1
0.978267,0.824,0.473,0.159,-1.831,1.708,3.967,1
0.987683,0.827,0.478,0.148,-2.868,1.892,4.76,1
0.995218,0.833,0.491,0.136,-2.868,1.586,5.615,1
1.003303,0.837,0.509,0.123,-3.051,1.647,5.981,1
1.010377,0.853,0.536,0.11,-3.784,1.281,6.713,1
1.017445,0.853,0.565,0.097,-4.455,0.976,7.019,1
1.026228,0.854,0.589,0.09,-5.737,0.793,7.141,1
1.03254,0.854,0.607,0.084,-6.469,0.183,6.958,1
1.040411,0.85,0.619,0.076,-6.347,-0.305,6.286,1
1.048227,0.849,0.632,0.075,-5.065,-0.976,5.676,1
1.057372,0.844,0.637,0.074,-2.929,-1.77,4.882,1
1.063918,0.838,0.627,0.076,-0.488,-2.563,3.967,1
1.072262,0.834,0.614,0.083,0.915,-2.807,3.784,1
1.079135,0.828,0.601,0.091,1.281,-3.479,3.356,1
1.087979,0.821,0.581,0.109,1.708,-3.906,3.234,1
1.094689,0.823,0.563,0.121,1.77,-3.906,3.051,1
1.102178,0.822,0.544,0.133,1.22,-3.723,2.99,1
1.110729,0.828,0.532,0.145,0.0,-3.417,3.417,1
1.119321,0.83,0.521,0.144,-1.403,-3.112,4.028,1
1.126593,0.827,0.518,0.145,-2.929,-2.929,4.455,1
1.134891,0.83,0.52,0.139,-4.028,-2.502,4.577,1
1.143988,0.833,0.526,0.13,-4.638,-2.441,5.065,1
1.152506,0.829,0.538,0.117,-5.554,-2.136,5.31,1
1.161081,0.83,0.547,0.106,-5.187,-2.563,5.493,1
1.168625,0.832,0.555,0.096,-3.784,-2.929,5.371,1
1.176047,0.827,0.569,0.083,-2.136,-3.112,5.432,1
1.183087,0.826,0.575,0.076,-1.586,-4.089,5.31,1
1.191368,0.834,0.577,0.076,-1.953,-4.699,5.065,1
1.200229,0.834,0.579,0.082,-1.586,-4.943,4.943,1
1.208249,0.84,0.585,0.086,-1.831,-5.371,4.882,1
1.21536,0.846,0.589,0.095,-2.197,-5.859,4.76,1
1.22348,0.845,0.603,0.104,-2.807,-5.859,4.577,1
1.23142,0.848,0.611,0.106,-3.356,-5.859,4.638,1
1.238285,0.845,0.615,0.112,-3.967,-6.164,4.394,1
1.247201,0.84,0.635,0.117,-4.089,-6.164,4.15,1
1.25475,0.84,0.648,0.12,-3.417,-6.286,3.845,1
1.262523,0.832,0.656,0.111,-2.807,-6.286,3.417,1
1.268714,0.821,0.666,0.101,-3.356,-6.225,2.746,1
1.278271,0.817,0.683,0.095,-3.601,-6.835,2.258,1
1.284707,0.814,0.693,0.088,-2.99,-7.446,1.77,1
1.292997,0.811,0.704,0.094,-1.77,-7.995,0.854,1
1.302249,0.814,0.708,0.098,-0.366,-8.3,-0.122,1
1.308804,0.823,0.703,0.109,0.305,-8.85,-1.098,1
1.31604,0.829,0.692,0.124,-0.366,-8.911,-2.197,1
1.324519,0.84,0.686,0.132,-1.342,-9.033,-2.868,1
1.332885,0.846,0.682,0.137,-2.258,-8.85,-3.417,1
1.341111,0.847,0.679,0.142,-2.441,-8.85,-4.211,1
1.349205,0.845,0.678,0.145,-1.953,-8.728,-4.76,1
1.357967,0.846,0.67,0.142,-1.22,-8.728,-5.798,1
1.364318,0.845,0.66,0.139,-1.159,-8.85,-6.347,1
1.37278,0.84,0.659,0.138,-1.953,-8.789,-6.591,1
1.380311,0.839,0.651,0.135,-2.502,-8.789,-7.568,1
1.389004,0.841,0.652,0.136,-1.892,-8.972,-8.056,1
1.396265,0.839,0.644,0.138,-1.22,-9.277,-8.789,1
1.404208,0.84,0.633,0.145,-1.098,-9.338,-9.216,1
1.411942,0.834,0.622,0.151,-1.77,-9.521,-9.521,1
1.420331,0.834,0.616,0.16,-2.014,-9.704,-9.887,1
1.429038,0.84,0.605,0.164,-2.075,-9.643,-10.192,1
1.43656,0.841,0.59,0.174,-2.075,-9.399,-10.192,1
1.444189,0.838,0.581,0.174,-1.831,-9.155,-10.62,1
1.452122,0.832,0.579,0.174,-2.807,-8.85,-10.742,1
1.461291,0.825,0.576,0.164,-3.479,-8.483,-10.986,1
1.469533,0.824,0.583,0.149,-5.004,-8.605,-10.803,1
1.476961,0.815,0.6,0.141,-6.591,-8.3,-10.925,1
1.486122,0.815,0.613,0.124,-8.605,-8.239,-11.169,1
1.493372,0.819,0.632,0.106,-10.253,-8.483,-11.413,1
1.501676,0.836,0.656,0.095,-10.62,-8.789,-11.718,1
1.510957,0.841,0.682,0.082,-11.23,-9.094,-12.329,1
1.518481,0.849,0.716,0.059,-12.573,-9.338,-12.878,1
1.526871,0.852,0.767,0.015,-16.967,-9.155,-13.549,1
1.533753,0.85,0.81,-0.039,-24.047,-10.253,-15.258,1
1.54268,0.844,0.854,-0.07,-28.808,-11.169,-16.601,1
1.550832,0.859,0.912,-0.112,-33.447,-12.39,-18.676,1
1.558549,0.861,0.961,-0.165,-38.33,-13.977,-20.935,1
1.566932,0.845,1.02,-0.204,-43.151,-16.906,-24.353,1
1.575697,0.854,1.057,-0.221,-44.25,-19.348,-27.343,1
1.58252,0.863,1.082,-0.238,-43.029,-22.094,-30.639,1
1.590967,0.854,1.099,-0.265,-41.381,-25.451,-34.362,1
1.598066,0.859,1.101,-0.276,-39.733,-29.052,-38.391,1
1.606328,0.865,1.085,-0.291,-40.893,-31.372,-41.931,1
1.614639,0.865,1.062,-0.306,-45.043,-34.545,-45.227,1
1.622896,0.867,1.048,-0.31,-52.307,-37.292,-48.645,1
1.629531,0.86,1.029,-0.312,-58.471,-39.55,-51.94,1
1.63785,0.846,1.007,-0.307,-61.706,-43.212,-54.809,1
1.646414,0.832,0.97,-0.29,-61.096,-46.569,-57.861,1
1.654272,0.811,0.923,-0.27,-57.678,-50.598,-60.852,1
1.66348,0.792,0.865,-0.25,-53.955,-53.771,-63.598,1
1.671345,0.77,0.799,-0.24,-51.269,-57.25,-65.856,1
1.680367,0.735,0.734,-0.217,-50.903,-60.241,-68.054,1
1.686399,0.711,0.676,-0.181,-50.231,-63.72,-69.213,1
1.695076,0.701,0.626,-0.138,-46.936,-66.101,-70.434,1
1.703058,0.696,0.558,-0.091,-41.442,-68.542,-71.166,1
1.712618,0.681,0.491,-0.069,-39.123,-69.946,-71.472,1
1.718886,0.713,0.422,-0.041,-38.879,-71.472,-71.411,1
1.728598,0.716,0.347,-0.02,-39.367,-72.326,-71.044,1
1.736829,0.699,0.287,0.007,-40.832,-74.096,-69.702,1
1.745157,0.702,0.229,0.059,-43.273,-75.5,-67.993,1
1.753646,0.693,0.184,0.104,-43.64,-76.416,-66.467,1
1.761368,0.643,0.158,0.142,-41.503,-77.331,-64.086,1
1.767149,0.652,0.106,0.162,-41.015,-77.148,-61.34,1
1.775884,0.684,0.063,0.162,-46.752,-77.27,-58.471,1
1.784718,0.659,0.042,0.209,-47.119,-77.941,-54.87,1
1.793075,0.659,0.016,0.232,-39.489,-78.186,-51.025,1
1.801173,0.656,0.0,0.257,-29.846,-79.162,-47.912,1
1.807757,0.651,-0.015,0.241,-25.695,-78.002,-44.677,1
1.816179,0.634,-0.03,0.273,-25.756,-81.176,-41.198,1
1.823479,0.624,-0.053,0.348,-18.493,-81.42,-38.33,1
1.831776,0.626,-0.082,0.368,-11.047,-80.993,-35.583,1
1.841288,0.623,-0.092,0.458,1.403,-84.716,-33.02,1
1.848365,0.654,-0.12,0.539,19.47,-83.74,-30.578,1
1.856437,0.692,-0.174,0.554,30.517,-84.838,-28.198,1
1.864948,0.684,-0.205,0.605,33.935,-83.679,-25.329,1
1.873957,0.662,-0.204,0.636,23.315,-81.909,-21.85,1
1.880933,0.652,-0.197,0.678,3.784,-77.453,-17.7,1
1.889134,0.648,-0.161,0.716,-15.869,-74.34,-13.977,1
1.896338,0.622,-0.126,0.733,-30.883,-70.068,-9.582,1
1.906277,0.621,-0.094,0.77,-37.17,-67.565,-6.103,1
1.912835,0.635,-0.049,0.807,-34.667,-64.453,-2.441,1
1.921043,0.653,-0.03,0.825,-27.465,-61.889,0.305,1
1.929502,0.674,-0.011,0.811,-20.568,-59.265,2.929,1
1.936772,0.697,0.017,0.78,-13.488,-57.006,5.676,1
1.946064,0.708,0.032,0.753,-10.559,-55.114,7.629,1
1.95283,0.716,0.048,0.743,-9.643,-53.527,9.582,1
1.961558,0.728,0.069,0.725,-8.789,-51.757,11.23,1
1.969928,0.75,0.091,0.709,-7.751,-50.109,13.488,1
1.976706,0.78,0.113,0.699,-8.422,-48.828,15.136,1
1.98493,0.797,0.142,0.687,-10.314,-47.729,16.723,1
1.994029,0.824,0.171,0.687,-14.892,-46.264,18.798,1
2.000483,0.832,0.21,0.7,-18.066,-45.166,20.202,1
2.009103,0.84,0.274,0.713,-16.845,-44.311,21.118,1
2.017655,0.851,0.288,0.717,-15.869,-42.541,21.972,1
2.026784,0.84,0.329,0.717,-15.686,-42.114,22.033,1
2.034166,0.827,0.369,0.74,-13.0,-40.466,22.033,1
2.040917,0.814,0.395,0.739,-10.62,-39.306,22.033,1
2.050468,0.811,0.412,0.739,-5.798,-38.33,21.545,1
2.059052,0.809,0.429,0.721,-3.295,-37.048,20.996,1
2.0665,0.764,0.445,0.705,-2.197,-35.644,19.958,1
2.073499,0.796,0.451,0.693,-1.525,-34.362,19.226,1
2.082338,0.787,0.458,0.676,-1.037,-33.325,18.493,1
2.090813,0.775,0.473,0.674,-0.183,-32.592,17.578,1
2.09785,0.762,0.477,0.671,1.586,-31.738,17.028,1
2.106079,0.753,0.496,0.673,2.685,-30.822,16.54,1
2.112854,0.741,0.504,0.663,0.549,-29.785,15.686,1
2.121418,0.734,0.504,0.65,-1.281,-28.625,15.014,1
2.128466,0.729,0.503,0.629,-6.347,-26.977,14.221,1
2.137867,0.722,0.514,0.603,-12.084,-25.939,13.732,1
2.145311,0.712,0.522,0.582,-20.385,-25.146,12.817,1
2.153633,0.717,0.54,0.552,-26.733,-23.681,12.023,1
2.160854,0.708,0.545,0.52,-32.226,-23.986,11.047,1
2.168326,0.704,0.564,0.512,-33.081,-24.291,9.887,1
2.177048,0.71,0.58,0.514,-27.77,-25.39,8.789,1
2.185271,0.725,0.577,0.524,-18.554,-26.428,7.507,1
2.191963,0.73,0.566,0.54,-8.728,-27.404,6.286,1
2.201025,0.743,0.551,0.538,-4.577,-28.381,5.432,1
2.209494,0.75,0.527,0.551,-3.967,-28.503,4.699,1
2.216628,0.742,0.516,0.571,-3.54,-28.747,4.211,1
2.225504,0.753,0.502,0.579,-3.356,-28.442,3.723,1
2.231689,0.754,0.476,0.583,-6.591,-28.198,3.479,1
2.239673,0.749,0.448,0.59,-11.23,-27.709,3.173,1
2.247038,0.75,0.426,0.597,-16.174,-26.977,3.173,1
2.254698,0.749,0.405,0.6,-20.507,-26.306,3.112,1
2.263949,0.735,0.384,0.601,-23.01,-26.184,3.112,1
2.271814,0.73,0.367,0.612,-22.583,-26.123,2.868,1
2.280111,0.716,0.361,0.631,-16.113,-26.428,3.479,1
2.288693,0.699,0.347,0.646,-8.911,-26.672,3.601,1
2.295125,0.689,0.326,0.656,-4.028,-26.428,3.906,1
2.303126,0.68,0.293,0.658,-2.319,-25.878,4.699,1
2.311346,0.67,0.262,0.657,-3.479,-25.146,5.676,1
2.320047,0.664,0.22,0.661,-6.835,-23.925,6.835,1
2.326683,0.646,0.185,0.663,-10.375,-22.949,7.934,1
2.334145,0.635,0.129,0.671,-15.014,-22.399,9.765,1
2.342154,0.611,0.063,0.677,-20.812,-21.301,11.657,1
2.351727,0.585,-0.001,0.707,-28.076,-21.179,13.61,1
2.358537,0.557,-0.057,0.763,-35.583,-20.446,16.052,1
2.367197,0.515,-0.111,0.849,-40.649,-19.836,19.042,1
2.376137,0.476,-0.169,0.966,-36.254,-20.324,22.399,1
2.383472,0.364,-0.196,1.199,-11.291,-21.606,25.634,1
2.391372,0.274,-0.243,1.457,28.32,-22.155,28.869,1
2.398329,0.253,-0.404,1.775,70.373,-21.301,32.531,1
2.405353,0.177,-0.575,2.084,104.98,-16.845,39.001,1
2.413504,0.148,-0.815,2.384,110.595,-11.169,45.593,1
2.422846,0.011,-0.99,2.707,100.341,1.647,56.274,1
2.429605,-0.056,-1.14,3.025,83.984,15.197,68.115,1
2.437244,-0.132,-1.232,3.406,70.678,31.372,81.237,1
2.445737,-0.186,-1.31,3.685,64.941,53.283,97.534,1
2.453507,-0.242,-1.357,3.924,56.579,74.035,113.22,1
2.461695,-0.265,-1.315,4.059,44.372,96.74,130.249,1
2.469625,-0.248,-1.169,4.112,32.409,123.535,149.719,1
2.478348,-0.273,-0.931,4.1,29.235,146.24,165.527,1
2.485965,-0.33,-0.6,4.034,36.071,167.541,179.321,1
2.493348,-0.469,-0.186,3.886,43.823,190.49,191.955,1
2.501532,-0.592,0.178,3.729,48.034,208.679,199.829,1
2.508453,-0.761,0.535,3.559,52.185,226.013,204.711,1
2.517628,-0.928,0.876,3.4,54.565,242.614,207.458,1
2.524676,-1.107,1.176,3.24,54.321,259.643,207.397,1
2.532093,-1.35,1.479,3.03,53.833,276.062,205.627,1
2.539403,-1.571,1.668,2.821,52.429,292.48,202.941,1
2.54853,-1.876,1.757,2.629,47.607,309.631,200.317,1
2.557322,-2.118,2.007,2.502,44.311,326.538,196.289,1
2.563966,-2.314,2.456,2.15,38.757,344.116,186.767,1
2.572747,-2.434,2.779,1.705,28.991,358.276,170.837,1
2.579989,-2.503,3.023,1.292,24.23,366.027,153.991,1
2.588801,-2.422,3.271,0.872,31.921,370.3,131.408,1
2.595813,-2.26,3.383,0.525,50.231,369.811,111.938,1
2.60325,-2.142,3.438,0.202,64.88,367.065,93.261,1
2.612043,-2.098,3.498,-0.074,70.495,363.037,74.768,1
2.618629,-1.952,3.497,-0.31,78.43,356.994,57.006,1
2.626515,-1.785,3.412,-0.487,90.637,350.219,40.405,1
2.635262,-1.634,3.252,-0.645,100.646,342.956,25.695,1
2.642247,-1.5,3.071,-0.806,106.628,334.167,11.718,1
2.651151,-1.373,2.89,-0.962,101.684,327.514,0.915,1
2.658741,-1.308,2.73,-1.115,87.219,320.068,-8.178,1
2.666758,-1.211,2.594,-1.243,75.561,311.218,-17.15,1
2.674469,-1.149,2.462,-1.323,76.232,299.804,-26.977,1
2.683633,-1.068,2.309,-1.37,84.96,289.428,-34.729,1
2.69088,-0.997,2.113,-1.425,95.642,278.93,-40.71,1
2.698248,-0.97,1.926,-1.438,101.318,267.517,-46.325,1
2.706638,-0.875,1.743,-1.434,101.379,259.765,-49.621,1
2.713264,-0.815,1.583,-1.51,97.534,254.028,-51.94,1
2.722261,-0.771,1.451,-1.623,83.435,246.276,-53.527,1
2.72937,-0.708,1.365,-1.71,72.326,238.464,-54.748,1
2.738236,-0.595,1.307,-1.807,74.279,228.332,-56.03,1
2.746375,-0.54,1.219,-1.894,87.402,216.735,-56.579,1
2.755088,-0.416,1.096,-2.018,92.651,205.688,-56.03,1
2.761759,-0.307,0.95,-2.13,89.233,193.42,-54.931,1
2.770761,-0.225,0.862,-2.218,79.833,182.373,-53.222,1
2.778021,-0.131,0.802,-2.295,75.5,170.532,-51.879,1
2.786841,-0.055,0.743,-2.364,72.082,158.081,-50.292,1
2.794147,0.0,0.695,-2.469,58.349,142.517,-49.133,1
2.802812,0.087,0.647,-2.492,48.278,128.723,-48.156,1
2.811172,0.165,0.615,-2.51,37.78,111.694,-46.874,1
2.81804,0.227,0.575,-2.491,38.208,96.374,-45.288,1
2.82607,0.301,0.5,-2.468,40.954,78.491,-43.029,1
2.836126,0.348,0.434,-2.416,39.123,63.903,-40.405,1
2.842581,0.422,0.368,-2.325,35.705,47.485,-36.682,1
2.850739,0.478,0.324,-2.229,31.616,34.79,-33.081,1
2.85893,0.513,0.301,-2.141,21.789,23.498,-29.357,1
2.867209,0.537,0.301,-2.048,9.765,12.817,-25.756,1
2.875568,0.574,0.329,-1.931,2.685,0.976,-21.85,1
2.884581,0.6,0.345,-1.813,-0.488,-9.338,-19.104,1
2.891233,0.644,0.359,-1.65,2.929,-19.714,-16.113,1
2.900132,0.652,0.347,-1.511,10.253,-29.663,-13.61,1
2.909019,0.68,0.324,-1.366,11.535,-36.254,-11.169,1
2.916076,0.703,0.313,-1.212,7.934,-41.809,-8.85,1
2.924705,0.718,0.324,-1.085,2.441,-46.325,-6.53,1
2.933791,0.717,0.363,-0.962,-2.685,-50.109,-4.089,1
2.940945,0.694,0.404,-0.847,-7.202,-53.588,-2.258,1
2.950709,0.687,0.45,-0.722,-8.972,-55.786,-0.732,1
2.957203,0.68,0.49,-0.607,-10.375,-57.434,0.244,1
2.966328,0.679,0.508,-0.502,-14.099,-58.044,0.549,1
2.973549,0.696,0.528,-0.412,-18.249,-58.105,0.976,1
2.982694,0.7,0.549,-0.301,-21.484,-57.434,0.915,1
2.990401,0.702,0.57,-0.208,-21.423,-56.823,1.403,1
2.999186,0.706,0.582,-0.119,-18.859,-55.175,1.342,1
3.007041,0.715,0.58,-0.048,-15.686,-52.978,1.403,1
3.015851,0.706,0.587,0.0,-14.282,-50.903,1.586,1
3.025124,0.691,0.602,0.027,-13.671,-48.645,2.014,1
3.032629,0.687,0.622,0.045,-14.709,-46.386,2.319,1
3.041382,0.686,0.642,0.065,-16.784,-43.945,2.38,1
3.04883,0.679,0.664,0.078,-18.554,-41.931,2.441,1
3.055929,0.676,0.681,0.089,-18.432,-39.733,2.197,1
3.065388,0.678,0.683,0.09,-16.174,-38.146,2.014,1
3.07321,0.697,0.673,0.092,-15.014,-36.56,1.77,1
3.079623,0.694,0.663,0.09,-15.563,-34.973,1.647,1
3.088809,0.693,0.654,0.096,-17.028,-33.447,1.831,1
3.096213,0.708,0.64,0.112,-18.066,-31.494,2.197,1
3.105274,0.711,0.635,0.114,-18.188,-29.785,2.624,1
3.112379,0.724,0.648,0.114,-17.15,-28.076,2.99,1
3.122893,0.719,0.659,0.111,-12.939,-26.672,3.417,1
3.129127,0.727,0.664,0.117,-8.117,-25.878,3.356,1
3.138602,0.742,0.655,0.121,-3.54,-24.902,3.295,1
3.145462,0.76,0.648,0.128,-1.403,-23.559,3.051,1
3.154108,0.77,0.635,0.138,-1.159,-22.399,2.685,1
3.160664,0.769,0.638,0.15,-2.136,-20.69,2.929,1
3.168974,0.772,0.647,0.158,-3.173,-19.042,2.441,1
3.178051,0.778,0.654,0.171,-2.99,-17.089,2.38,1
3.186472,0.775,0.665,0.178,-2.197,-14.831,2.136,1
3.193129,0.778,0.675,0.184,0.0,-12.756,1.77,1
3.201249,0.781,0.682,0.193,1.892,-10.559,1.281,1
3.20899,0.785,0.68,0.189,2.746,-8.117,0.915,1
3.216444,0.797,0.672,0.175,2.38,-5.92,0.366,1
3.223694,0.806,0.666,0.158,0.61,-3.723,-0.183,1
3.23153,0.806,0.67,0.149,-0.366,-1.647,-0.793,1
3.240007,0.819,0.661,0.139,-0.793,0.305,-1.159,1
3.246719,0.833,0.653,0.121,-0.793,1.953,-1.464,1
3.255344,0.847,0.645,0.109,-0.366,3.479,-2.136,1
3.263143,0.847,0.63,0.097,0.488,5.004,-2.441,1
3.272572,0.845,0.615,0.09,0.854,6.591,-2.807,1
3.278913,0.834,0.612,0.08,-0.366,8.117,-2.929,1
3.288442,0.822,0.604,0.065,-1.464,9.582,-2.929,1
3.294753,0.81,0.6,0.047,-1.159,11.108,-2.868,1
3.302686,0.8,0.601,0.029,0.061,11.901,-2.624,1
3.312002,0.797,0.601,0.014,1.281,12.695,-2.502,1
3.319458,0.794,0.593,-0.004,2.197,13.183,-2.075,1
3.326402,0.795,0.589,-0.008,2.929,13.732,-1.525,1
3.335271,0.8,0.582,-0.02,3.723,14.282,-1.159,1
3.343592,0.796,0.579,-0.023,4.577,14.892,-1.037,1
3.351211,0.791,0.58,-0.038,4.394,15.747,-0.793,1
3.358301,0.787,0.571,-0.053,3.723,16.113,-0.671,1
3.366552,0.782,0.57,-0.064,2.99,16.54,-0.61,1
3.373468,0.777,0.564,-0.077,2.563,16.723,-0.549,1
3.382406,0.777,0.561,-0.084,2.868,17.15,-0.305,1
3.388902,0.772,0.557,-0.089,3.906,17.15,0.122,1
3.39659,0.772,0.55,-0.1,5.31,17.028,0.488,1
3.405325,0.768,0.547,-0.102,6.591,17.333,0.732,1
3.413463,0.768,0.541,-0.118,6.835,17.395,1.342,1
3.421012,0.764,0.534,-0.137,6.286,17.333,2.014,1
3.428815,0.764,0.535,-0.145,5.187,17.456,2.441,1
3.436947,0.759,0.538,-0.154,4.76,17.517,3.112,1
3.444234,0.759,0.544,-0.163,4.577,17.211,4.028,1
3.451513,0.762,0.544,-0.177,4.394,17.211,4.455,1
3.459368,0.756,0.556,-0.185,3.723,17.028,5.004,1
3.466697,0.76,0.559,-0.202,2.38,17.15,5.432,1
3.474368,0.759,0.567,-0.216,0.976,16.906,5.798,1
3.481945,0.772,0.576,-0.225,1.037,16.479,5.676,1
3.491522,0.787,0.583,-0.242,2.014,15.991,5.981,1
3.498025,0.777,0.593,-0.262,1.892,15.38,5.859,1
3.505476,0.784,0.6,-0.276,0.61,14.404,5.737,1
3.513331,0.773,0.608,-0.285,-0.061,13.793,5.798,1
3.52253,0.78,0.615,-0.29,0.0,12.817,5.798,1
3.530559,0.782,0.621,-0.298,1.098,12.084,5.798,1
3.53744,0.79,0.625,-0.305,1.831,11.169,5.92,1
3.546471,0.784,0.632,-0.312,0.915,10.437,6.042,1
3.553598,0.776,0.64,-0.328,-0.793,9.521,5.981,1
3.562279,0.787,0.65,-0.339,-1.647,8.911,6.225,1
3.569189,0.8,0.658,-0.349,-2.868,7.812,5.981,1
3.578173,0.788,0.666,-0.348,-2.624,6.591,5.798,1
3.584876,0.784,0.67,-0.354,-1.831,5.126,5.798,1
3.593242,0.789,0.672,-0.342,-1.647,3.906,5.493,1
3.601933,0.788,0.68,-0.339,-2.014,2.624,4.882,1
3.609795,0.79,0.684,-0.327,-1.586,1.464,4.394,1
3.616595,0.791,0.687,-0.316,-1.77,0.549,4.15,1
3.624515,0.783,0.689,-0.297,-2.624,-0.061,3.234,1
3.634279,0.784,0.692,-0.285,-2.624,-0.915,2.929,1
3.642594,0.767,0.695,-0.263,-1.342,-1.647,2.441,1
3.650382,0.76,0.692,-0.245,0.366,-1.953,2.258,1
3.65861,0.75,0.683,-0.233,1.037,-2.136,1.708,1
3.66729,0.757,0.676,-0.223,0.854,-2.136,1.525,1
3.673998,0.756,0.667,-0.213,-0.061,-2.197,1.403,1
3.683236,0.753,0.664,-0.2,-1.098,-2.197,1.159,1
3.690888,0.754,0.663,-0.186,-1.403,-2.014,1.159,1
3.698641,0.754,0.659,-0.183,-0.305,-2.258,1.037,1
3.706104,0.758,0.656,-0.175,0.183,-2.319,0.793,1
3.713769,0.764,0.655,-0.173,-0.427,-2.014,1.037,1
3.721961,0.77,0.655,-0.166,-1.953,-1.77,0.976,1
3.729214,0.819,0.657,-0.129,5.615,-1.708,1.342,1
3.738296,0.722,0.645,-0.164,1.159,-1.892,1.159,1
3.746164,0.761,0.662,-0.138,-5.432,-0.61,1.098,1
3.753208,0.764,0.667,-0.137,-7.324,-0.305,0.915,1
3.762215,0.75,0.691,-0.124,-2.258,-0.305,0.61,1
3.768829,0.757,0.695,-0.107,2.441,-0.427,0.488,1
3.776623,0.757,0.703,-0.092,4.211,0.122,0.061,1
3.786384,0.752,0.698,-0.077,4.394,0.854,-0.244,1
3.793539,0.748,0.699,-0.064,4.577,1.647,-0.793,1
3.801355,0.75,0.688,-0.063,4.455,2.685,-1.22,1
3.808883,0.753,0.672,-0.064,3.906,3.54,-1.342,1
3.816834,0.759,0.665,-0.072,3.051,4.333,-1.77,1
3.825835,0.762,0.66,-0.072,2.014,5.187,-2.197,1
3.833444,0.766,0.649,-0.079,1.037,5.859,-2.075,1
3.840657,0.767,0.641,-0.082,0.732,6.53,-2.136,1
3.84861,0.759,0.645,-0.082,1.647,7.263,-2.075,1
3.857794,0.758,0.643,-0.087,3.967,7.751,-2.136,1
3.865292,0.766,0.635,-0.097,6.347,8.056,-2.136,1
3.872907,0.791,0.655,-0.093,13.916,8.972,-1.892,1
3.880279,0.721,0.632,-0.113,9.521,8.483,-1.892,1
3.888742,0.737,0.629,-0.109,5.554,10.314,-1.586,1
3.896978,0.75,0.628,-0.132,4.882,10.742,-1.708,1
3.903905,0.755,0.625,-0.139,6.835,10.925,-1.647,1
3.911429,0.76,0.621,-0.156,6.896,11.047,-1.403,1
3.920338,0.753,0.619,-0.17,4.699,11.596,-1.159,1
3.927563,0.75,0.619,-0.187,2.014,11.84,-1.342,1
3.936515,0.751,0.625,-0.2,1.586,11.596,-1.342,1
3.94432,0.755,0.625,-0.21,2.929,11.474,-1.22,1
3.951899,0.753,0.616,-0.226,3.845,11.108,-1.159,1
3.959357,0.75,0.608,-0.238,4.15,10.498,-0.854,1
3.968857,0.747,0.607,-0.249,3.723,10.498,-0.793,1
3.975032,0.747,0.603,-0.25,4.76,9.704,-0.671,1
3.982909,0.784,0.622,-0.252,12.878,9.582,0.0,1
3.992505,0.722,0.602,-0.281,8.666,7.995,0.549,1
3.999248,0.74,0.612,-0.277,3.417,9.094,0.549,1
4.006309,0.748,0.611,-0.296,2.319,8.422,0.915,1
4.01529,0.759,0.613,-0.295,3.234,7.446,1.037,1
4.022617,0.766,0.619,-0.301,4.272,6.896,1.403,1
4.029869,0.761,0.621,-0.303,3.356,6.103,1.22,1
4.038407,0.761,0.626,-0.305,1.77,5.615,1.464,1
4.045387,0.76,0.635,-0.307,0.183,4.577,1.403,1
4.052582,0.754,0.647,-0.306,0.122,4.211,1.22,1
4.061723,0.753,0.655,-0.303,0.427,3.479,1.403,1
4.07053,0.755,0.655,-0.299,1.22,2.807,0.854,1
4.078143,0.766,0.658,-0.295,1.953,2.136,0.854,1
4.08553,0.765,0.656,-0.292,2.197,1.403,0.366,1
4.092853,0.766,0.654,-0.288,1.77,0.732,0.427,1
4.100349,0.766,0.658,-0.281,0.976,0.061,0.183,1
4.1096,0.76,0.66,-0.28,-0.244,0.0,0.122,1
4.11659,0.763,0.665,-0.274,-0.549,-0.305,0.244,1
4.125116,0.763,0.669,-0.27,0.61,-1.037,-0.122,1
4.133004,0.758,0.669,-0.27,1.159,-1.403,-0.244,1
4.139891,0.76,0.668,-0.27,0.915,-2.014,-0.366,1
4.149901,0.76,0.665,-0.265,0.427,-2.136,-0.671,1
4.157049,0.764,0.662,-0.257,0.732,-2.807,-1.037,1
4.165849,0.76,0.659,-0.252,0.854,-3.234,-1.281,1
4.172758,0.759,0.653,-0.241,0.244,-3.54,-1.342,1
4.181788,0.764,0.645,-0.232,-0.061,-3.906,-1.403,1
4.190177,0.77,0.641,-0.218,-0.183,-4.028,-1.586,1
4.198063,0.771,0.632,-0.209,-0.061,-4.211,-1.586,1
4.206544,0.771,0.624,-0.195,0.183,-3.967,-1.464,1
4.213744,0.765,0.622,-0.186,0.061,-4.028,-1.281,1
4.22182,0.763,0.619,-0.172,-1.342,-3.906,-1.037,1
4.230124,0.765,0.622,-0.165,-2.929,-3.295,-0.915,1
4.239024,0.76,0.628,-0.158,-3.173,-3.112,-0.732,1
4.246067,0.754,0.64,-0.154,-1.708,-2.685,-0.61,1
4.255228,0.75,0.649,-0.152,0.366,-2.624,-0.732,1
4.262096,0.738,0.647,-0.152,2.685,-2.563,-0.854,1
4.271622,0.742,0.634,-0.149,3.295,-2.014,-1.22,1
4.279027,0.742,0.627,-0.154,3.051,-1.953,-1.159,1
4.286371,0.744,0.628,-0.148,2.929,-1.708,-0.976,1
4.29377,0.753,0.62,-0.145,3.112,-1.586,-1.037,1
4.303265,0.761,0.612,-0.138,3.601,-1.464,-0.366,1
4.310725,0.767,0.614,-0.131,3.417,-0.976,-0.488,1
4.318419,0.763,0.614,-0.124,2.807,-0.915,-0.244,1
4.32601,0.764,0.613,-0.117,2.258,-0.244,-0.122,1
4.33533,0.763,0.616,-0.113,2.502,0.244,0.061,1
4.341594,0.755,0.618,-0.108,3.112,0.854,0.61,1
4.349762,0.752,0.621,-0.108,3.662,1.159,0.793,1
4.357304,0.757,0.622,-0.1,4.089,1.77,0.732,1
4.364654,0.762,0.623,-0.1,4.089,2.197,0.854,1
4.372982,0.76,0.621,-0.097,3.967,2.746,0.976,1
4.380575,0.759,0.622,-0.097,3.845,3.479,1.159,1
4.387955,0.755,0.625,-0.096,4.028,4.028,1.037,1
4.397338,0.752,0.628,-0.098,4.211,4.455,1.22,1
4.403772,0.757,0.63,-0.096,4.15,5.065,1.281,1
4.410698,0.754,0.639,-0.101,3.54,5.676,1.342,1
4.419832,0.752,0.64,-0.105,3.417,6.286,1.342,1
4.428594,0.758,0.647,-0.108,3.356,6.896,1.22,1
4.434692,0.759,0.649,-0.11,3.784,7.141,1.098,1
4.44347,0.765,0.649,-0.106,4.028,7.568,1.22,1
4.451433,0.764,0.647,-0.104,3.845,8.422,1.037,1
4.458026,0.762,0.651,-0.109,4.333,9.094,0.976,1
4.465612,0.755,0.657,-0.111,4.882,9.216,0.793,1
4.474671,0.755,0.657,-0.109,5.004,10.07,0.671,1
4.481536,0.753,0.657,-0.112,4.211,10.498,0.549,1
4.488974,0.746,0.662,-0.122,4.516,10.986,0.854,1
4.498014,0.749,0.665,-0.126,5.31,11.352,0.488,1
4.50559,0.75,0.667,-0.127,6.958,11.718,0.366,1
4.513215,0.75,0.663,-0.133,8.544,11.718,0.183,1
4.520576,0.753,0.661,-0.135,9.582,11.901,0.183,1
4.528083,0.758,0.665,-0.14,9.704,12.268,0.183,1
4.535996,0.756,0.667,-0.148,9.399,12.39,-0.183,1
4.545183,0.75,0.676,-0.152,10.742,12.634,-0.305,1
4.551918,0.753,0.674,-0.153,12.023,12.512,-0.488,1
4.560277,0.758,0.676,-0.154,11.535,12.878,-0.61,1
4.569588,0.756,0.665,-0.153,10.559,13.305,-0.854,1
4.575656,0.765,0.667,-0.155,10.498,13.427,-0.915,1
4.583535,0.762,0.67,-0.154,10.925,13.732,-1.037,1
4.591467,0.758,0.666,-0.148,10.62,13.488,-0.976,1
4.599429,0.757,0.662,-0.148,9.155,14.282,-1.159,1
4.607283,0.757,0.657,-0.156,6.103,14.892,-1.22,1
4.616347,0.75,0.663,-0.165,3.295,15.624,-1.22,1
4.623614,0.742,0.663,-0.176,1.22,15.624,-1.525,1
4.631424,0.734,0.662,-0.186,-1.098,16.296,-1.586,1
4.639198,0.718,0.668,-0.195,-3.295,16.479,-1.77,1
4.64872,0.728,0.672,-0.211,-5.371,16.784,-2.136,1
4.656892,0.72,0.682,-0.223,-3.845,16.479,-2.38,1
4.66394,0.729,0.676,-0.198,10.253,14.221,-2.685,1
4.671286,0.767,0.684,-0.246,15.014,16.479,-2.807,1
4.680014,0.72,0.663,-0.244,4.089,15.136,-2.929,1
4.687979,0.751,0.665,-0.247,2.38,16.662,-3.173,1
4.698373,0.743,0.667,-0.26,5.92,15.136,-3.479,1
4.705304,0.751,0.647,-0.262,12.207,14.587,-3.601,1
4.714516,0.773,0.624,-0.27,11.474,14.343,-3.54,1
4.722022,0.765,0.61,-0.268,6.652,14.221,-3.295,1
4.731218,0.754,0.61,-0.264,4.943,14.587,-2.807,1
4.738354,0.757,0.604,-0.263,5.859,14.282,-2.685,1
4.746984,0.761,0.594,-0.252,6.591,14.099,-2.258,1
4.753987,0.752,0.595,-0.254,5.798,14.282,-1.708,1
4.762903,0.75,0.592,-0.253,5.126,14.404,-1.098,1
4.770864,0.745,0.591,-0.253,6.652,14.343,-0.732,1
4.77726,0.729,0.603,-0.265,8.85,13.916,-0.366,1
4.785796,0.731,0.603,-0.258,10.437,13.732,-0.183,1
4.792314,0.728,0.6,-0.266,10.925,13.305,0.122,1
4.800135,0.729,0.6,-0.267,11.108,13.061,0.488,1
4.809068,0.728,0.6,-0.276,10.314,12.817,0.793,1
4.816357,0.712,0.599,-0.274,9.704,12.512,1.098,1
4.824149,0.706,0.604,-0.291,8.239,12.512,1.281,1
4.831619,0.708,0.607,-0.295,6.896,12.145,1.22,1
4.838456,0.719,0.614,-0.294,6.835,11.901,1.586,1
4.846232,0.724,0.615,-0.298,6.896,10.986,1.831,1
4.854914,0.722,0.617,-0.294,6.958,10.681,1.77,1
4.862337,0.72,0.62,-0.292,8.117,10.375,1.831,1
4.870069,0.717,0.613,-0.291,8.85,9.948,2.136,1
4.877905,0.718,0.612,-0.292,8.361,10.009,2.563,1
4.885487,0.723,0.606,-0.28,7.019,10.131,2.746,1
4.892866,0.715,0.605,-0.291,4.638,9.521,2.99,1
4.900587,0.709,0.607,-0.297,3.234,9.643,3.662,1
4.909043,0.707,0.618,-0.309,2.746,9.338,3.967,1
4.916382,0.711,0.628,-0.315,2.99,8.789,4.394,1
4.924489,0.705,0.638,-0.329,3.112,8.117,4.577,1
4.932574,0.709,0.649,-0.335,3.051,7.629,4.821,1
4.939542,0.719,0.645,-0.334,2.746,7.019,4.699,1
4.948703,0.725,0.652,-0.345,0.915,6.469,4.76,1
4.955601,0.729,0.66,-0.359,-1.22,5.798,4.76,1
4.963999,0.719,0.675,-0.364,-1.708,4.699,4.821,1
4.973109,0.724,0.689,-0.371,-1.281,3.967,4.272,1
4.980366,0.729,0.687,-0.366,-0.915,2.746,4.028,1
4.987911,0.738,0.693,-0.362,-1.159,1.892,3.784,1
4.997136,0.744,0.701,-0.358,-0.915,0.732,3.479,1
5.004924,0.747,0.712,-0.355,-0.244,-0.366,2.99,1
5.012566,0.748,0.721,-0.339,0.427,-0.671,2.807,1
5.020153,0.751,0.724,-0.33,0.305,-1.586,2.319,1
5.028859,0.757,0.729,-0.315,-1.159,-1.953,1.77,1
5.036071,0.752,0.735,-0.307,-2.624,-2.38,1.464,1
5.043886,0.749,0.743,-0.29,-2.624,-2.746,0.671,1
5.051821,0.748,0.749,-0.281,-1.77,-3.051,0.0,1
5.060249,0.746,0.748,-0.258,-0.61,-3.295,-0.915,1
5.06958,0.746,0.741,-0.246,-0.793,-3.356,-1.281,1
5.076576,0.75,0.738,-0.225,-1.159,-3.295,-2.197,1
5.084633,0.749,0.724,-0.208,-0.366,-3.234,-2.746,1
5.093207,0.752,0.722,-0.186,0.793,-2.929,-3.173,1
5.100925,0.757,0.707,-0.167,1.22,-2.319,-3.54,1
5.109061,0.748,0.696,-0.153,1.098,-1.953,-4.028,1
5.116672,0.742,0.688,-0.137,0.854,-1.281,-4.333,1
5.124763,0.739,0.675,-0.115,-0.061,-0.427,-4.577,1
5.132315,0.74,0.667,-0.101,-0.915,0.366,-4.333,1
5.141356,0.742,0.656,-0.08,-2.624,1.647,-4.272,1
5.149954,0.737,0.649,-0.062,-5.249,3.112,-4.211,1
5.15697,0.724,0.641,-0.052,-8.178,4.455,-4.15,1
5.166267,0.734,0.635,-0.039,-14.892,6.164,-4.455,1
5.173808,0.75,0.631,-0.014,-14.526,7.995,-4.211,1
5.183064,0.737,0.637,-0.008,-10.314,9.338,-4.028,1
5.189715,0.737,0.641,0.003,-3.112,10.498,-3.356,1
5.197576,0.74,0.641,0.022,2.502,11.962,-3.051,1
5.204933,0.725,0.648,0.041,7.751,13.183,-2.807,1
5.212529,0.712,0.66,0.05,12.634,15.014,-2.563,1
5.221025,0.708,0.674,0.07,18.005,16.54,-2.807,1
5.228326,0.698,0.677,0.079,24.475,18.371,-2.929,1
5.235784,0.703,0.674,0.084,30.395,19.714,-3.356,1
5.244958,0.701,0.666,0.084,34.851,22.399,-3.173,1
5.252308,0.694,0.65,0.076,36.804,24.291,-3.051,1
5.259931,0.694,0.632,0.081,37.536,27.282,-2.685,1
5.267413,0.708,0.625,0.076,36.987,29.357,-2.258,1
5.275081,0.704,0.633,0.078,37.719,31.433,-1.708,1
5.282556,0.7,0.636,0.078,40.161,32.897,-1.22,1
5.290174,0.691,0.637,0.077,42.541,34.667,-0.549,1
5.298004,0.687,0.621,0.068,45.715,37.414,0.061,1
5.3056,0.655,0.6,0.026,41.259,39.123,1.22,1
5.313644,0.649,0.573,-0.001,32.775,41.442,1.708,1
5.322399,0.67,0.572,-0.02,28.259,42.968,2.197,1
5.329626,0.673,0.575,-0.07,29.846,44.189,3.112,1
5.33758,0.674,0.559,-0.098,31.921,44.25,3.54,1
5.346364,0.662,0.544,-0.125,32.104,45.166,4.333,1
5.351837,0.655,0.538,-0.169,26.062,46.264,5.249,1
5.361069,0.64,0.521,-0.208,16.784,46.936,6.225,1
5.367688,0.668,0.533,-0.266,10.437,47.485,7.141,1
5.375285,0.666,0.529,-0.306,9.521,46.874,8.239,1
5.382504,0.661,0.52,-0.351,13.305,46.508,9.399,1
5.390908,0.649,0.51,-0.426,16.784,45.227,10.559,1
5.398626,0.657,0.475,-0.49,18.737,44.006,11.718,1
5.405749,0.672,0.44,-0.581,16.906,41.992,13.488,1
5.414344,0.649,0.421,-0.654,10.437,40.222,15.014,1
5.421768,0.636,0.407,-0.734,-0.122,39.123,16.906,1
5.430907,0.586,0.451,-0.808,-4.882,36.804,18.981,1
5.437478,0.556,0.438,-0.892,-7.568,34.118,20.324,1
5.445855,0.628,0.418,-0.948,-13.671,30.944,22.033,1
5.455415,0.616,0.423,-1.037,-18.371,28.32,24.108,1
5.462707,0.539,0.429,-1.101,-19.165,23.559,26.855,1
5.471728,0.517,0.416,-1.202,-19.714,20.751,28.991,1
5.478123,0.439,0.385,-1.31,-21.911,15.563,31.249,1
5.487221,0.462,0.306,-1.446,-35.827,11.596,34.729,1
5.494416,0.394,0.261,-1.562,-60.241,6.835,38.452,1
5.502486,0.323,0.258,-1.69,-80.261,3.051,43.273,1
5.509883,0.236,0.266,-1.837,-94.543,-3.479,48.217,1
5.519747,0.145,0.287,-1.943,-104.003,-11.596,54.077,1
5.526424,0.076,0.283,-2.099,-114.013,-19.714,59.631,1
5.534011,0.039,0.297,-2.248,-123.413,-30.029,65.917,1
5.544385,-0.014,0.334,-2.383,-126.159,-40.222,71.228,1
5.551563,-0.108,0.381,-2.525,-123.474,-53.588,77.148,1
5.559713,-0.174,0.405,-2.645,-118.469,-66.711,81.665,1
5.568516,-0.243,0.405,-2.766,-116.638,-82.153,87.28,1
5.576842,-0.332,0.4,-2.857,-120.361,-95.642,92.407,1
5.582959,-0.399,0.402,-2.943,-130.676,-111.572,99.365,1
5.59301,-0.472,0.418,-3.034,-141.174,-125.671,105.468,1
5.600051,-0.591,0.459,-3.14,-148.803,-144.104,112.67,1
5.607779,-0.699,0.511,-3.213,-147.827,-162.292,119.201,1
5.615582,-0.859,0.553,-3.268,-145.263,-182.067,125.122,1
5.623794,-0.996,0.586,-3.251,-146.24,-201.232,131.774,1
5.6327,-1.171,0.623,-3.19,-155.883,-221.313,139.831,1
5.640259,-1.287,0.718,-3.089,-164.733,-236.267,147.033,1
5.648027,-1.392,0.831,-3.002,-169.86,-249.572,154.174,1
5.655202,-1.513,0.972,-2.921,-172.607,-262.634,160.461,1
5.663192,-1.601,1.167,-2.808,-178.1,-275.817,167.48,1
5.671264,-1.598,1.396,-2.75,-184.448,-286.682,172.668,1
5.680399,-1.763,1.735,-2.633,-186.523,-300.903,176.208,1
5.687205,-1.791,1.986,-2.446,-186.828,-313.903,177.795,1
5.695605,-1.868,2.297,-2.241,-194.03,-323.852,177.917,1
5.705131,-1.952,2.623,-1.988,-203.613,-333.251,175.598,1
5.712151,-1.983,2.997,-1.715,-200.683,-338.806,170.837,1
5.721636,-2.036,3.33,-1.473,-176.94,-346.252,160.522,1
5.727721,-2.053,3.509,-1.275,-155.639,-352.478,148.071,1
5.736418,-2.067,3.625,-1.04,-142.15,-358.337,134.094,1
5.744938,-2.12,3.697,-0.795,-126.525,-364.135,116.699,1
5.753183,-2.194,3.757,-0.409,-111.267,-368.652,101.379,1
5.759984,-2.211,3.777,-0.005,-86.059,-370.849,82.336,1
5.768484,-2.214,3.674,0.365,-68.908,-367.675,65.49,1
5.7775,-2.163,3.553,0.676,-68.298,-361.816,49.499,1
5.785302,-2.007,3.377,0.953,-81.848,-352.966,34.729,1
5.792388,-1.862,3.263,1.16,-98.083,-342.529,19.958,1
5.799954,-1.741,3.195,1.401,-88.073,-335.754,8.3,1
5.808713,-1.589,3.009,1.7,-64.025,-327.941,-4.089,1
5.818123,-1.435,2.805,1.937,-50.048,-315.917,-17.395,1
5.824728,-1.319,2.633,2.246,-36.01,-302.551,-30.09,1
5.83247,-1.172,2.41,2.476,-22.827,-286.865,-39.733,1
5.840169,-1.028,2.152,2.603,-20.446,-269.531,-48.706,1
5.849192,-0.886,1.912,2.681,-26.367,-251.647,-55.969,1
5.857833,-0.682,1.599,2.705,-36.682,-231.689,-60.913,1
5.864552,-0.518,1.338,2.63,-54.016,-208.801,-64.575,1
5.872611,-0.339,1.09,2.49,-71.411,-190.429,-64.88,1
5.880429,-0.146,0.92,2.298,-77.758,-175.292,-64.086,1
5.888599,-0.079,0.807,2.204,-53.71,-163.391,-62.316,1
5.897868,0.029,0.674,2.148,-26.611,-152.954,-60.424,1
5.905385,0.133,0.487,2.059,-11.413,-139.831,-57.617,1
5.913,0.259,0.317,1.952,-15.563,-126.281,-53.527,1
5.921556,0.334,0.226,1.857,-23.315,-115.234,-49.255,1
5.930237,0.399,0.162,1.741,-29.052,-105.224,-44.189,1
5.938137,0.452,0.09,1.591,-38.146,-95.458,-38.513,1
5.945271,0.5,0.047,1.388,-50.598,-87.28,-32.775,1
5.953407,0.524,0.063,1.23,-58.227,-80.505,-25.939,1
5.960042,0.517,0.135,1.145,-43.151,-78.369,-20.629,1
5.969145,0.472,0.184,1.138,-11.352,-76.904,-15.991,1
5.978092,0.475,0.172,1.156,14.648,-73.181,-11.291,1
5.984444,0.454,0.166,1.16,18.615,-67.565,-7.568,1
5.994242,0.437,0.187,1.146,14.892,-61.279,-3.906,1
5.999803,0.419,0.237,1.109,10.864,-54.077,0.122,1
6.008035,0.421,0.299,1.057,10.07,-49.072,2.197,1
6.016066,0.418,0.349,1.021,9.094,-43.334,4.333,1
6.024461,0.458,0.371,0.964,5.126,-37.597,5.798,1
6.031767,0.471,0.375,0.89,-2.258,-32.226,7.019,1
6.039593,0.509,0.386,0.805,-13.549,-26.916,8.605,1
6.048449,0.521,0.414,0.755,-19.226,-23.193,9.643,1
6.057535,0.547,0.445,0.712,-17.395,-20.507,11.047,1
6.064115,0.582,0.48,0.67,-12.817,-17.822,12.512,1
6.072063,0.62,0.511,0.643,-12.268,-15.563,14.099,1
6.080766,0.655,0.547,0.611,-11.84,-12.512,15.563,1
6.087683,0.681,0.579,0.584,-10.253,-10.07,16.845,1
6.096522,0.695,0.63,0.55,-5.065,-8.117,17.822,1
6.103995,0.705,0.679,0.515,2.624,-6.469,18.188,1
6.111278,0.73,0.714,0.481,9.948,-5.31,18.554,1
6.119826,0.756,0.734,0.419,12.573,-3.479,18.432,1
6.127808,0.754,0.747,0.358,7.08,-1.77,18.127,1
6.134912,0.764,0.773,0.301,-1.281,-0.244,17.578,1
6.142711,0.765,0.812,0.244,-8.178,0.61,16.601,1
6.151904,0.75,0.829,0.203,-9.887,0.305,15.197,1
6.158396,0.736,0.827,0.166,-9.155,-0.61,13.793,1
6.167534,0.738,0.831,0.158,-8.117,-2.136,12.695,1
6.174974,0.739,0.817,0.163,-6.53,-3.417,11.413,1
6.183453,0.741,0.799,0.18,-3.417,-4.577,10.62,1
6.19237,0.74,0.785,0.199,-1.892,-5.004,9.765,1
6.199999,0.739,0.772,0.222,-1.403,-5.065,10.009,1
6.208567,0.739,0.776,0.227,-1.647,-4.211,10.009,1
6.215383,0.714,0.787,0.216,-2.929,-3.54,9.887,1
6.223734,0.707,0.8,0.214,-1.831,-3.295,9.826,1
6.231886,0.711,0.802,0.206,0.183,-3.112,9.46,1
6.240184,0.718,0.806,0.191,1.647,-2.807,9.216,1
6.246896,0.719,0.802,0.179,2.014,-2.807,8.544,1
6.255743,0.714,0.806,0.17,1.281,-2.563,7.873,1
6.262507,0.699,0.809,0.146,-0.915,-2.319,7.385,1
6.272264,0.69,0.821,0.118,-6.469,-2.502,6.958,1
6.279548,0.684,0.845,0.114,-12.756,-2.929,6.408,1
6.287141,0.678,0.874,0.124,-14.831,-3.662,5.371,1
6.295458,0.686,0.886,0.132,-12.817,-4.638,4.15,1
6.302534,0.693,0.886,0.134,-9.948,-5.371,2.99,1
6.310761,0.692,0.872,0.136,-7.812,-6.042,1.586,1
6.318569,0.688,0.861,0.133,-7.69,-6.652,0.732,1
6.327143,0.685,0.851,0.133,-8.911,-6.713,-0.305,1
6.336365,0.692,0.847,0.116,-9.826,-6.652,-1.525,1
6.343294,0.686,0.837,0.101,-11.352,-7.507,-2.136,1
6.351413,0.68,0.824,0.093,-12.145,-8.422,-2.868,1
6.360032,0.683,0.81,0.104,-10.803,-9.521,-3.662,1
6.368423,0.688,0.779,0.113,-8.85,-10.559,-3.784,1
6.374638,0.692,0.756,0.128,-7.507,-11.535,-4.028,1
6.382635,0.698,0.733,0.142,-6.286,-11.962,-3.784,1
6.391047,0.701,0.726,0.151,-5.249,-12.023,-3.54,1
6.39918,0.689,0.722,0.155,-4.577,-12.268,-3.112,1
6.406243,0.684,0.716,0.163,-3.784,-12.451,-2.685,1
6.414178,0.689,0.711,0.169,-2.807,-12.329,-2.624,1
6.422661,0.678,0.707,0.179,-2.38,-12.451,-2.136,1
6.431507,0.661,0.706,0.184,-2.563,-12.084,-2.136,1
6.438436,0.649,0.708,0.204,-2.807,-12.268,-1.953,1
6.447465,0.64,0.714,0.23,-2.807,-12.084,-1.708,1
6.455245,0.65,0.72,0.259,-2.441,-11.718,-1.708,1
6.462847,0.661,0.72,0.282,-1.892,-11.047,-1.831,1
6.471632,0.669,0.715,0.294,-0.976,-10.375,-1.831,1
6.478468,0.672,0.711,0.298,-0.244,-9.46,-1.953,1
6.487239,0.681,0.704,0.29,-0.61,-8.605,-2.075,1
6.494788,0.687,0.695,0.282,-1.464,-7.568,-1.953,1
6.504081,0.69,0.69,0.266,-3.54,-6.53,-1.708,1
6.511509,0.699,0.687,0.242,-4.333,-6.103,-1.586,1
6.518907,0.705,0.688,0.222,-4.516,-5.615,-1.525,1
6.526929,0.708,0.699,0.19,-5.126,-5.554,-1.159,1
6.535389,0.698,0.714,0.172,-5.432,-5.981,-1.159,1
6.544683,0.705,0.719,0.167,-4.028,-6.896,-1.037,1
6.552425,0.709,0.712,0.164,-2.197,-7.385,-1.22,1
6.560872,0.703,0.701,0.172,-2.258,-8.117,-0.976,1
6.568445,0.702,0.691,0.19,-3.356,-8.422,-0.793,1
6.57611,0.694,0.692,0.212,-4.028,-8.422,-0.61,1
6.583797,0.696,0.683,0.236,-3.173,-8.605,-0.61,1
6.591969,0.693,0.674,0.249,-2.197,-8.422,-0.183,1
6.599558,0.69,0.674,0.257,-1.892,-7.995,0.183,1
6.607305,0.678,0.68,0.265,-1.77,-8.056,0.732,1
6.61483,0.68,0.687,0.27,-1.098,-7.324,0.854,1
6.622254,0.683,0.705,0.269,-0.366,-6.713,1.342,1
6.631864,0.688,0.713,0.26,-0.732,-6.225,1.586,1
6.638424,0.682,0.723,0.25,-0.854,-5.676,1.464,1
6.647224,0.675,0.735,0.239,-0.183,-5.676,1.098,1
6.654991,0.67,0.74,0.238,1.22,-5.798,0.732,1
6.662852,0.666,0.739,0.242,2.685,-5.92,0.244,1
6.671007,0.667,0.732,0.244,3.723,-5.92,0.0,1
6.679184,0.664,0.726,0.257,3.051,-6.042,-0.244,1
6.686614,0.665,0.719,0.271,1.159,-5.432,-0.183,1
6.693397,0.653,0.713,0.285,0.915,-5.126,0.061,1
6.702792,0.652,0.711,0.294,0.671,-4.272,-0.183,1
6.709848,0.645,0.706,0.299,0.976,-3.54,0.122,1
6.71721,0.646,0.698,0.298,0.183,-2.685,0.427,1
6.725805,0.646,0.696,0.293,-0.854,-1.77,0.671,1
6.733492,0.648,0.697,0.275,-2.075,-1.159,1.342,1
6.741417,0.641,0.707,0.254,-3.356,-0.244,1.281,1
6.749231,0.648,0.709,0.231,-3.662,0.122,1.586,1
6.757436,0.652,0.709,0.215,-2.746,0.061,1.831,1
6.764891,0.66,0.712,0.202,-1.708,0.0,1.892,1
6.773179,0.656,0.712,0.194,-1.098,-0.122,1.892,1
6.782004,0.648,0.712,0.197,-0.244,-0.366,2.258,1
6.788936,0.654,0.707,0.199,0.366,-0.427,2.441,1
6.796212,0.644,0.694,0.207,0.671,-0.366,2.624,1
6.80387,0.642,0.69,0.209,0.122,-0.122,2.624,1
6.812791,0.64,0.693,0.212,-0.854,0.122,3.295,1
6.820487,0.636,0.693,0.215,-2.014,0.61,3.845,1
6.828574,0.641,0.692,0.208,-2.563,0.854,4.333,1
6.836609,0.639,0.701,0.201,-2.502,0.854,4.882,1
6.844419,0.632,0.707,0.183,-2.624,1.159,5.432,1
6.851626,0.636,0.717,0.173,-2.868,0.976,5.981,1
6.859306,0.635,0.728,0.165,-2.746,0.732,6.286,1
6.868561,0.644,0.734,0.152,-3.234,0.793,6.347,1
6.87487,0.644,0.743,0.158,-3.051,0.061,6.652,1
6.882493,0.645,0.743,0.156,-1.77,-0.549,6.591,1
6.892181,0.644,0.75,0.154,-1.525,-0.61,6.774,1
6.899954,0.644,0.751,0.156,-1.098,-1.159,6.53,1
6.907665,0.646,0.749,0.158,-0.671,-1.708,6.408,1
6.915024,0.645,0.747,0.169,0.366,-2.136,6.225,1
6.922442,0.65,0.753,0.179,1.342,-2.319,6.164,1
6.931352,0.65,0.753,0.189,1.464,-2.258,6.042,1
6.937537,0.653,0.752,0.191,1.281,-2.319,5.92,1
6.945073,0.656,0.751,0.186,0.854,-2.075,5.859,1
6.954939,0.662,0.752,0.176,-0.366,-2.075,5.615,1
6.961739,0.668,0.759,0.167,-1.159,-2.075,5.432,1
6.969309,0.675,0.761,0.162,-1.647,-2.258,5.432,1
6.976887,0.674,0.767,0.153,-1.708,-2.624,5.554,1
6.986147,0.683,0.771,0.154,-1.525,-3.417,5.371,1
6.992518,0.688,0.782,0.161,-0.427,-4.211,5.004,1
7.001809,0.686,0.783,0.177,1.342,-4.882,5.004,1
7.010052,0.691,0.782,0.188,2.258,-5.249,4.76,1
7.01686,0.688,0.784,0.207,2.014,-5.493,4.394,1
7.025358,0.684,0.782,0.218,1.77,-5.737,3.967,1
7.032368,0.675,0.791,0.222,1.831,-5.187,3.906,1
7.041343,0.67,0.804,0.223,2.319,-5.249,3.54,1
7.050095,0.667,0.812,0.229,2.197,-5.004,3.112,1
7.057156,0.663,0.82,0.229,2.38,-5.187,2.624,1
7.064908,0.662,0.822,0.234,2.929,-5.065,1.953,1
7.073974,0.655,0.822,0.231,3.295,-5.065,1.159,1
7.082038,0.659,0.827,0.236,3.112,-4.76,0.549,1
7.089631,0.653,0.815,0.238,3.112,-4.821,-0.183,1
7.09699,0.66,0.811,0.244,3.784,-5.126,-0.488,1
7.105986,0.661,0.803,0.26,4.882,-4.943,-0.732,1
7.114269,0.66,0.791,0.275,5.249,-4.76,-1.525,1
7.121788,0.662,0.779,0.283,4.821,-4.089,-2.075,1
7.130221,0.663,0.77,0.284,3.54,-3.417,-2.136,1
7.138253,0.653,0.766,0.286,2.197,-2.868,-2.38,1
7.145964,0.658,0.761,0.283,1.77,-2.258,-2.441,1
7.153904,0.656,0.759,0.277,1.953,-1.892,-2.624,1
7.161732,0.659,0.753,0.27,2.014,-1.586,-2.563,1
7.168782,0.651,0.755,0.254,1.525,-1.464,-2.746,1
7.175917,0.654,0.754,0.244,1.342,-1.464,-2.746,1
7.183299,0.661,0.752,0.239,1.525,-1.281,-2.929,1
7.191758,0.659,0.748,0.235,2.075,-1.403,-2.99,1
7.200154,0.666,0.739,0.237,2.197,-1.342,-3.051,1
7.207597,0.664,0.73,0.239,1.708,-1.403,-3.051,1
7.215718,0.655,0.726,0.241,1.586,-1.22,-2.807,1
7.223499,0.652,0.723,0.241,1.77,-0.915,-2.929,1
7.232656,0.654,0.715,0.237,1.525,-0.732,-2.746,1
7.239617,0.65,0.711,0.23,0.854,-0.488,-2.319,1
7.248686,0.647,0.713,0.222,-0.061,-0.488,-2.075,1
7.255821,0.65,0.716,0.213,-0.305,-0.244,-1.892,1
7.265287,0.646,0.712,0.196,-0.305,-0.305,-1.647,1
7.27233,0.643,0.714,0.196,0.061,-0.671,-1.342,1
7.281303,0.642,0.719,0.189,1.037,-0.854,-1.159,1
7.28885,0.644,0.717,0.202,2.38,-1.22,-0.915,1
7.296267,0.644,0.711,0.208,3.173,-1.464,-0.793,1
7.304889,0.647,0.709,0.216,2.563,-1.403,-0.427,1
7.311948,0.646,0.707,0.222,1.77,-1.22,-0.366,1
7.32079,0.648,0.708,0.219,0.671,-1.037,-0.183,1
7.327669,0.65,0.714,0.222,0.549,-1.098,-0.122,1
7.334955,0.649,0.71,0.217,0.427,-1.098,0.183,1
7.344236,0.644,0.719,0.204,0.061,-0.732,0.183,1
7.35085,0.648,0.717,0.194,-0.366,-0.854,0.244,1
7.358597,0.645,0.718,0.179,-0.976,-1.159,0.671,1
7.367214,0.642,0.72,0.175,-1.037,-1.342,0.61,1
7.374752,0.649,0.722,0.166,-1.098,-1.831,0.793,1
7.383392,0.647,0.729,0.161,-0.854,-2.38,1.22,1
7.390938,0.646,0.731,0.166,0.183,-2.746,1.037,1
7.399091,0.646,0.734,0.174,1.525,-3.601,1.098,1
7.406222,0.652,0.73,0.18,1.953,-3.54,1.342,1
7.415572,0.649,0.732,0.183,1.647,-3.967,1.098,1
7.421601,0.649,0.736,0.194,1.403,-4.15,1.342,1
7.429323,0.648,0.734,0.188,0.549,-4.211,1.525,1
7.438012,0.647,0.74,0.19,-0.366,-4.333,1.281,1
7.445106,0.648,0.739,0.191,-0.427,-4.333,1.464,1
7.453707,0.652,0.739,0.187,0.061,-4.638,1.464,1
7.461048,0.65,0.741,0.188,0.244,-5.187,1.586,1
7.469403,0.643,0.737,0.184,0.183,-5.187,1.525,1
7.477624,0.645,0.738,0.178,0.366,-5.432,1.403,1
7.483991,0.641,0.734,0.182,0.549,-6.103,1.77,1
7.492779,0.64,0.738,0.183,0.488,-6.347,1.586,1
7.499788,0.644,0.73,0.187,0.854,-6.713,1.77,1
7.508497,0.642,0.733,0.193,1.403,-7.141,1.953,1
7.515203,0.643,0.731,0.198,2.136,-7.141,2.075,1
7.523839,0.642,0.732,0.199,2.685,-7.446,2.014,1
7.530942,0.637,0.728,0.201,2.624,-7.934,2.258,1
7.538249,0.635,0.729,0.209,2.624,-7.934,2.38,1
7.546471,0.631,0.731,0.218,2.807,-8.178,2.319,1
7.554888,0.632,0.731,0.22,2.38,-8.117,2.441,1
7.562537,0.634,0.731,0.223,1.77,-8.117,2.624,1
7.570439,0.637,0.732,0.227,1.831,-8.3,2.685,1
7.577855,0.642,0.73,0.235,1.647,-8.239,2.868,1
7.586278,0.647,0.728,0.244,2.38,-8.422,2.99,1
7.593367,0.648,0.728,0.248,2.807,-8.422,2.807,1
7.601338,0.653,0.729,0.254,4.028,-8.666,2.685,1
7.610077,0.648,0.731,0.261,5.554,-8.544,2.99,1
7.616445,0.642,0.729,0.267,6.408,-8.605,3.234,1
7.625313,0.636,0.734,0.272,6.347,-8.666,3.234,1
7.632558,0.633,0.74,0.276,5.249,-8.361,3.356,1
7.640167,0.629,0.744,0.284,3.173,-7.873,3.417,1
7.64796,0.631,0.75,0.293,1.831,-7.751,3.234,1
7.656198,0.631,0.751,0.292,1.708,-7.141,3.295,1
7.66473,0.632,0.756,0.297,1.708,-6.774,3.234,1
7.671516,0.629,0.754,0.301,1.953,-6.408,3.051,1
7.679599,0.632,0.754,0.298,2.136,-6.103,2.929,1
7.686711,0.631,0.748,0.3,2.319,-5.981,2.868,1
7.695709,0.637,0.755,0.301,2.319,-5.371,2.868,1
7.703014,0.643,0.751,0.301,1.892,-5.371,2.563,1
7.71064,0.644,0.751,0.302,1.403,-4.76,2.624,1
7.718243,0.647,0.754,0.297,1.403,-4.516,2.685,1
7.725651,0.637,0.755,0.295,0.671,-4.333,2.319,1
7.733472,0.634,0.757,0.297,0.549,-4.028,2.563,1
7.740875,0.637,0.765,0.295,1.098,-3.906,2.441,1
7.749726,0.639,0.768,0.29,1.281,-3.784,2.319,1
7.758032,0.639,0.772,0.282,0.488,-3.234,2.258,1
7.765157,0.64,0.776,0.275,-0.366,-3.051,2.075,1
7.774475,0.637,0.788,0.265,-1.708,-2.868,1.831,1
7.782113,0.641,0.795,0.254,-1.831,-2.929,1.708,1
7.790028,0.641,0.799,0.249,-1.464,-2.685,1.037,1
7.797472,0.642,0.807,0.242,-1.037,-2.99,0.854,1
7.804732,0.635,0.81,0.232,-1.037,-3.173,0.549,1
7.813439,0.635,0.812,0.233,-1.281,-3.295,-0.122,1
7.822397,0.641,0.809,0.224,-2.014,-3.356,-0.488,1
7.829496,0.644,0.806,0.225,-2.319,-3.601,-0.915,1
7.838458,0.641,0.805,0.223,-2.075,-3.906,-1.281,1
7.846747,0.645,0.798,0.219,-1.647,-4.15,-1.77,1
7.85437,0.647,0.793,0.217,-1.525,-4.516,-2.319,1
7.863479,0.642,0.785,0.214,-1.708,-4.821,-2.807,1
7.871438,0.649,0.781,0.21,-1.77,-5.004,-2.929,1
7.877854,0.643,0.772,0.207,-2.075,-5.371,-3.173,1
7.886837,0.642,0.767,0.211,-2.197,-5.859,-3.54,1
7.894474,0.65,0.757,0.219,-2.746,-6.164,-3.662,1
7.90281,0.651,0.752,0.219,-2.929,-6.652,-3.601,1
7.910935,0.658,0.745,0.23,-2.075,-7.08,-3.784,1
7.91893,0.662,0.739,0.236,-1.159,-7.263,-3.845,1
7.926438,0.667,0.737,0.236,-1.22,-7.324,-3.54,1
7.935354,0.671,0.727,0.23,-2.563,-7.324,-3.417,1
7.942837,0.668,0.729,0.221,-4.394,-7.385,-3.173,1
7.951131,0.661,0.729,0.218,-4.821,-7.873,-3.112,1
7.959299,0.658,0.736,0.215,-3.784,-8.422,-2.746,1
7.966009,0.656,0.737,0.219,-2.319,-8.911,-2.685,1
7.973569,0.643,0.74,0.212,-0.732,-9.216,-2.197,1
7.981622,0.637,0.745,0.213,0.915,-10.07,-2.258,1
7.988661,0.617,0.743,0.214,2.441,-10.681,-2.075,1
7.997597,0.6,0.738,0.223,3.356,-10.925,-2.197,1
8.006539,0.592,0.734,0.234,2.868,-11.23,-2.319,1
8.01424,0.587,0.734,0.246,1.159,-11.413,-2.075,1
8.021063,0.576,0.735,0.265,-0.183,-11.108,-1.953,1
8.029472,0.565,0.737,0.279,-0.671,-10.864,-2.014,1
8.036247,0.554,0.735,0.296,0.183,-10.62,-1.892,1
8.045762,0.561,0.731,0.311,0.488,-10.253,-2.136,1
8.053274,0.565,0.72,0.319,0.732,-9.887,-1.953,1
8.060343,0.571,0.71,0.33,1.037,-9.338,-2.014,1
8.067841,0.579,0.705,0.333,1.953,-8.972,-1.77,1
8.075568,0.584,0.693,0.34,2.563,-8.361,-1.647,1
8.085001,0.595,0.685,0.342,3.662,-8.3,-0.915,1
8.09257,0.597,0.677,0.354,3.906,-7.873,-0.671,1
8.099024,0.607,0.669,0.365,4.15,-7.629,-0.122,1
8.108285,0.608,0.664,0.374,3.967,-7.202,0.183,1
8.115437,0.615,0.66,0.382,3.784,-6.713,1.037,1
8.124685,0.62,0.655,0.397,4.272,-5.798,1.525,1
8.13262,0.614,0.649,0.406,4.882,-5.493,2.136,1
8.140128,0.612,0.643,0.417,5.31,-5.065,2.868,1
8.148739,0.613,0.633,0.434,5.371,-4.333,3.417,1
8.155881,0.611,0.627,0.443,5.31,-3.784,4.394,1
8.163134,0.605,0.615,0.451,4.821,-2.746,5.065,1
8.170761,0.602,0.612,0.459,5.493,-2.075,5.92,1
8.179095,0.592,0.615,0.476,5.371,-1.525,6.652,1
8.186926,0.587,0.614,0.501,7.446,-1.586,7.69,1
8.195166,0.577,0.611,0.54,12.939,-1.586,7.995,1
8.202092,0.565,0.607,0.574,19.348,-1.892,8.544,1
8.209243,0.552,0.605,0.629,27.465,-3.173,8.728,1
8.218181,0.524,0.599,0.728,37.475,-3.417,9.399,1
8.224803,0.507,0.576,0.839,47.119,-4.333,9.521,1
8.232144,0.422,0.578,0.979,57.678,-3.906,9.948,1
8.240187,0.401,0.584,1.156,68.847,-4.089,10.437,1
8.248921,0.354,0.561,1.361,81.665,-2.075,11.23,1
8.2575,0.301,0.525,1.615,92.285,2.014,12.084,1
8.264518,0.243,0.544,1.853,101.684,6.103,13.305,1
8.272984,0.212,0.513,2.11,116.577,10.864,14.587,1
8.279681,0.154,0.458,2.462,132.751,20.202,16.601,1
8.287442,0.041,0.42,2.791,144.531,32.043,19.409,1
8.294669,0.007,0.358,3.077,158.874,44.494,22.338,1
8.302326,-0.072,0.251,3.377,163.269,58.837,26.977,1
8.311231,-0.13,0.14,3.607,154.113,79.345,34.24,1
8.319396,-0.215,0.079,3.794,129.272,107.727,44.372,1
8.326878,-0.274,0.045,3.942,104.064,132.995,54.016,1
8.335507,-0.317,0.059,4.034,79.345,160.583,64.086,1
8.342888,-0.402,0.206,4.049,59.814,192.199,74.768,1
8.351523,-0.508,0.375,3.956,57.434,217.834,82.58,1
8.358783,-0.636,0.561,3.782,59.753,241.516,88.134,1
8.365426,-0.782,0.748,3.553,58.288,263.732,92.163,1
8.373206,-0.938,0.978,3.245,55.053,284.179,94.177,1
8.380919,-1.101,1.175,2.972,57.739,304.626,94.97,1
8.390255,-1.281,1.362,2.707,64.514,319.458,94.055,1
8.397743,-1.457,1.548,2.469,73.303,333.374,92.346,1
8.405862,-1.688,1.725,2.2,84.594,345.275,90.087,1
8.412765,-1.842,1.831,1.996,94.177,356.872,87.646,1
8.421771,-2.051,1.965,1.677,98.937,368.53,84.411,1
8.429162,-2.229,2.108,1.387,96.374,377.136,81.42,1
8.436544,-2.379,2.264,1.11,93.261,383.056,76.538,1
8.444384,-2.5,2.414,0.845,99.67,387.573,70.251,1
8.453008,-2.562,2.511,0.625,111.999,389.77,64.636,1
8.46107,-2.639,2.568,0.385,123.352,390.197,59.143,1
8.467794,-2.689,2.585,0.157,127.624,389.709,53.833,1
8.475821,-2.693,2.613,-0.106,125.427,387.817,47.973,1
8.483486,-2.677,2.625,-0.309,122.863,385.192,41.625,1
8.491945,-2.63,2.609,-0.517,122.009,381.652,36.254,1
8.498573,-2.59,2.575,-0.701,118.53,376.281,31.555,1
8.506375,-2.516,2.548,-0.881,113.098,371.52,26.672,1
8.514516,-2.456,2.458,-1.075,112.243,364.318,22.277,1
8.521468,-2.317,2.428,-1.272,116.577,356.445,17.272,1
8.530558,-2.196,2.367,-1.487,119.75,345.764,12.573,1
8.537104,-2.071,2.293,-1.677,123.962,333.679,7.812,1
8.544936,-1.891,2.237,-1.856,127.685,320.312,3.356,1
8.553731,-1.697,2.134,-2.071,126.953,306.64,-1.281,1
8.56186,-1.526,2.049,-2.225,119.812,292.175,-6.164,1
8.569818,-1.305,1.958,-2.385,105.102,275.268,-11.413,1
8.578759,-1.073,1.862,-2.534,90.209,259.582,-16.723,1
8.58655,-0.886,1.775,-2.642,73.12,241.088,-23.193,1
8.593187,-0.641,1.678,-2.693,65.307,225.036,-28.198,1
8.601379,-0.426,1.561,-2.749,66.04,208.496,-32.165,1
8.609212,-0.267,1.454,-2.769,67.26,189.575,-35.583,1
8.61761,-0.141,1.334,-2.774,62.255,174.804,-37.597,1
8.625817,-0.002,1.218,-2.729,50.109,158.203,-39.489,1
8.633889,0.043,1.148,-2.655,48.828,144.958,-40.405,1
8.64278,0.125,1.067,-2.557,55.053,131.408,-40.466,1
8.649672,0.156,0.976,-2.445,59.814,119.14,-39.916,1
8.656112,0.157,0.909,-2.337,60.607,106.201,-38.757,1
8.664357,0.147,0.846,-2.24,55.847,96.74,-37.719,1
8.673091,0.147,0.798,-2.144,50.537,89.416,-36.926,1
8.679861,0.152,0.753,-2.055,45.349,78.918,-35.522,1
8.687952,0.16,0.723,-1.966,44.128,70.434,-34.301,1
8.697205,0.174,0.69,-1.877,44.25,59.448,-33.02,1
8.703499,0.179,0.655,-1.793,43.762,50.476,-31.738,1
8.711098,0.199,0.607,-1.694,42.053,41.748,-29.602,1
8.719733,0.236,0.56,-1.598,38.94,33.203,-26.794,1
8.727151,0.263,0.526,-1.483,37.353,25.756,-23.498,1
8.735582,0.314,0.491,-1.356,37.353,17.272,-19.287,1
8.743048,0.36,0.489,-1.262,33.752,11.291,-15.991,1
8.751314,0.401,0.497,-1.17,26.55,6.103,-12.878,1
8.759774,0.447,0.523,-1.067,16.479,0.671,-9.826,1
8.768653,0.496,0.555,-0.985,10.437,-3.54,-7.507,1
8.77553,0.519,0.59,-0.901,6.652,-7.507,-5.798,1
8.782453,0.536,0.619,-0.802,4.15,-10.864,-4.516,1
8.790271,0.557,0.65,-0.694,1.22,-13.427,-3.356,1
8.798344,0.558,0.673,-0.613,-3.051,-15.075,-2.624,1
8.807498,0.557,0.697,-0.542,-5.92,-15.869,-2.197,1
8.816302,0.577,0.735,-0.475,-6.225,-16.235,-2.197,1
8.823029,0.577,0.767,-0.436,-3.234,-17.578,-2.136,1
8.830569,0.577,0.794,-0.406,0.0,-18.615,-2.38,1
8.839068,0.569,0.813,-0.356,2.502,-19.226,-3.112,1
8.8477,0.57,0.829,-0.331,4.577,-19.592,-3.173,1
8.85701,0.571,0.832,-0.309,5.737,-19.836,-3.784,1
8.863941,0.584,0.83,-0.282,3.662,-19.836,-4.333,1
8.87301,0.584,0.831,-0.269,0.854,-19.531,-4.455,1
8.880688,0.597,0.834,-0.254,-1.708,-19.531,-4.821,1
8.889517,0.602,0.841,-0.239,-1.953,-19.836,-4.943,1
8.898874,0.602,0.846,-0.226,-1.159,-20.629,-5.126,1
8.906019,0.596,0.853,-0.199,0.854,-20.69,-5.371,1
8.913558,0.583,0.852,-0.2,1.77,-21.423,-5.737,1
8.923108,0.579,0.851,-0.201,1.525,-21.545,-6.347,1
8.930822,0.568,0.845,-0.189,0.976,-21.728,-6.53,1
8.93823,0.572,0.845,-0.187,1.037,-21.972,-7.019,1
8.947137,0.567,0.843,-0.194,1.159,-22.033,-7.507,1
8.955576,0.575,0.842,-0.185,1.77,-23.01,-7.812,1
8.962918,0.574,0.838,-0.171,3.234,-23.376,-8.178,1
8.97091,0.588,0.827,-0.147,3.784,-23.62,-8.361,1
8.978725,0.599,0.814,-0.112,4.333,-23.193,-8.483,1
8.987421,0.603,0.815,-0.096,5.371,-22.949,-8.483,1
8.995418,0.616,0.809,-0.075,5.004,-22.094,-8.544,1
9.003276,0.622,0.809,-0.057,3.417,-20.935,-8.789,1
9.010877,0.626,0.813,-0.044,1.953,-19.348,-8.85,1
9.018924,0.626,0.812,-0.045,0.793,-17.944,-9.094,1
9.027796,0.62,0.816,-0.049,-0.427,-16.784,-9.033,1
9.036656,0.62,0.812,-0.041,-1.77,-15.686,-8.85,1
9.045531,0.621,0.806,-0.029,-2.258,-14.404,-8.911,1
9.052331,0.617,0.8,-0.021,-1.892,-13.488,-8.789,1
9.060661,0.602,0.787,0.002,-0.061,-12.268,-8.728,1
9.069101,0.614,0.777,0.019,1.464,-10.925,-8.605,1
9.075914,0.622,0.778,0.035,2.929,-9.277,-8.178,1
9.082945,0.618,0.769,0.044,3.723,-7.629,-8.3,1
9.092574,0.614,0.763,0.049,3.051,-5.493,-8.178,1
9.100381,0.612,0.763,0.041,0.61,-3.173,-8.117,1
9.108396,0.615,0.758,0.02,-1.586,-1.342,-8.361,1
9.116257,0.622,0.759,0.002,-2.624,0.427,-8.483,1
9.125306,0.633,0.762,-0.008,-2.136,1.708,-8.85,1
9.132777,0.636,0.762,-0.025,-1.281,2.807,-9.338,1
9.139729,0.645,0.764,-0.053,-0.732,3.54,-9.521,1
9.147869,0.645,0.761,-0.081,-1.525,4.028,-9.704,1
9.155552,0.651,0.766,-0.092,-2.685,4.15,-10.253,1
9.164853,0.662,0.768,-0.104,-4.211,4.821,-10.742,1
9.172006,0.665,0.759,-0.117,-4.821,5.004,-11.474,1
9.180128,0.675,0.754,-0.132,-4.15,5.187,-11.352,1
9.188597,0.681,0.749,-0.148,-4.15,5.187,-11.84,1
9.196113,0.678,0.75,-0.162,-3.906,5.126,-11.779,1
9.204488,0.678,0.745,-0.169,-3.723,4.76,-11.718,1
9.212924,0.671,0.744,-0.17,-2.441,4.089,-11.657,1
9.221041,0.674,0.742,-0.169,-1.098,3.723,-11.291,1
9.228381,0.672,0.733,-0.177,-0.183,3.54,-11.474,1
9.236863,0.666,0.719,-0.17,0.366,3.051,-10.986,1
9.24469,0.664,0.701,-0.167,-0.183,3.234,-10.742,1
9.253229,0.669,0.683,-0.156,-0.061,3.112,-10.437,1
9.261048,0.669,0.666,-0.143,0.0,3.112,-10.009,1
9.26977,0.675,0.649,-0.123,0.061,3.112,-9.033,1
9.277048,0.666,0.631,-0.111,0.122,3.723,-8.239,1
9.284696,0.654,0.619,-0.099,0.0,4.15,-7.141,1
9.294048,0.648,0.612,-0.101,-0.122,4.76,-5.981,1
9.302385,0.637,0.611,-0.099,-0.61,5.187,-5.004,1
9.309819,0.63,0.614,-0.104,-0.793,5.615,-4.089,1
9.316982,0.618,0.622,-0.113,-1.098,6.164,-2.807,1
9.325269,0.615,0.626,-0.13,-1.403,6.469,-2.197,1
9.33457,0.614,0.642,-0.149,-1.403,6.53,-1.525,1
9.342187,0.629,0.646,-0.167,-0.854,6.469,-1.281,1
9.351077,0.64,0.644,-0.181,-1.037,6.469,-0.793,1
9.357717,0.651,0.65,-0.191,-1.586,5.859,-0.488,1
9.365999,0.666,0.645,-0.199,-2.441,5.432,-0.061,1
9.372616,0.676,0.639,-0.206,-3.601,5.31,0.366,1
9.382814,0.684,0.64,-0.209,-4.638,4.638,0.854,1
9.390087,0.684,0.648,-0.215,-5.249,4.577,1.403,1
9.397077,0.685,0.652,-0.216,-5.798,4.272,2.075,1
9.404641,0.681,0.667,-0.218,-6.408,4.333,2.685,1
9.414067,0.671,0.679,-0.233,-6.408,4.089,3.295,1
9.420504,0.671,0.692,-0.242,-6.591,3.54,3.662,1
9.430005,0.655,0.713,-0.242,-5.798,3.356,3.967,1
9.436086,0.655,0.719,-0.259,-4.028,2.746,4.028,1
9.44387,0.663,0.73,-0.267,-2.929,2.014,4.089,1
9.451784,0.655,0.741,-0.273,-2.807,1.708,4.15,1
9.459835,0.647,0.747,-0.285,-2.38,1.098,4.211,1
9.467614,0.684,0.735,-0.301,-3.295,0.122,3.906,1
9.47636,0.635,0.755,-0.303,-3.051,-0.122,3.845,1
9.484735,0.648,0.758,-0.32,-1.525,-1.647,3.906,1
9.492203,0.67,0.755,-0.318,-0.671,-2.99,3.662,1
9.500329,0.666,0.75,-0.31,-0.671,-4.211,3.784,1
9.508606,0.653,0.751,-0.296,-0.732,-4.943,3.784,1
9.517322,0.645,0.751,-0.286,-1.708,-5.737,3.845,1
9.524086,0.646,0.757,-0.273,-2.746,-6.225,3.845,1
9.532762,0.637,0.76,-0.255,-2.441,-6.835,4.15,1
9.540619,0.637,0.759,-0.244,-2.075,-7.263,3.845,1
9.547944,0.63,0.763,-0.225,-1.22,-7.263,3.723,1
9.555877,0.637,0.762,-0.215,-1.037,-7.385,3.723,1
9.564109,0.638,0.763,-0.204,-0.915,-7.202,3.723,1
9.572341,0.635,0.767,-0.189,-1.281,-7.141,3.54,1
9.580203,0.634,0.768,-0.176,-1.77,-6.408,3.234,1
9.587242,0.674,0.753,-0.174,-4.516,-6.774,3.234,1
9.596451,0.614,0.763,-0.163,-6.042,-5.249,3.173,1
9.604796,0.617,0.77,-0.178,-4.15,-5.31,2.929,1
9.612065,0.638,0.761,-0.173,-2.197,-5.493,3.051,1
9.619448,0.642,0.762,-0.167,-2.136,-5.126,2.807,1
9.628854,0.635,0.764,-0.168,-2.075,-4.882,3.051,1
9.637398,0.634,0.769,-0.164,-1.159,-4.821,2.807,1
9.644033,0.633,0.772,-0.161,-0.854,-4.516,2.807,1
9.653626,0.631,0.771,-0.159,-0.793,-4.394,2.868,1
9.661716,0.627,0.774,-0.164,-2.136,-3.784,2.685,1
9.668873,0.62,0.777,-0.171,-4.15,-3.601,2.563,1
9.677401,0.618,0.787,-0.178,-5.187,-3.234,2.258,1
9.685758,0.623,0.789,-0.187,-4.882,-3.173,2.014,1
9.693011,0.618,0.793,-0.192,-3.662,-3.173,1.708,1
9.701759,0.625,0.79,-0.203,-2.563,-3.479,1.586,1
9.70912,0.633,0.781,-0.207,-2.014,-3.662,1.159,1
9.716992,0.638,0.778,-0.214,-2.746,-3.784,0.976,1
9.726076,0.636,0.775,-0.215,-3.601,-4.089,0.793,1
9.732675,0.637,0.771,-0.22,-3.54,-4.272,0.732,1
9.740504,0.639,0.771,-0.22,-2.685,-4.577,0.488,1
9.748177,0.646,0.77,-0.23,-2.563,-4.638,0.427,1
9.756879,0.651,0.775,-0.233,-2.868,-5.249,0.244,1
9.764737,0.659,0.778,-0.235,-2.99,-5.493,0.305,1
9.774194,0.666,0.78,-0.231,-3.356,-6.042,0.122,1
9.780868,0.671,0.78,-0.222,-3.051,-6.347,-0.183,1
9.789349,0.669,0.779,-0.215,-2.685,-6.591,-0.244,1
9.797886,0.664,0.779,-0.204,-2.563,-6.958,-0.244,1
9.807093,0.666,0.777,-0.196,-2.685,-6.591,-0.427,1
9.815498,0.657,0.776,-0.195,-2.99,-6.652,-0.549,1
9.822584,0.656,0.774,-0.191,-3.417,-6.591,-0.976,1
9.831685,0.649,0.771,-0.185,-3.295,-6.591,-1.098,1
9.840335,0.655,0.768,-0.175,-2.502,-7.324,-1.22,1
9.848437,0.65,0.76,-0.16,-1.098,-7.385,-1.281,1
9.856747,0.65,0.751,-0.144,0.061,-7.141,-1.464,1
9.865279,0.644,0.743,-0.132,-0.183,-6.652,-1.281,1
9.872602,0.648,0.738,-0.125,-0.61,-6.286,-1.281,1
9.881653,0.647,0.74,-0.121,-0.61,-5.981,-0.915,1
9.88981,0.643,0.741,-0.111,-0.122,-5.432,-1.159,1
9.897514,0.647,0.74,-0.113,0.244,-5.004,-0.915,1
9.90653,0.648,0.743,-0.116,-0.061,-4.821,-0.793,1
9.914336,0.648,0.736,-0.111,-0.305,-4.333,-0.915,1
9.921838,0.653,0.735,-0.106,0.122,-3.906,-0.854,1
9.929592,0.653,0.729,-0.103,-0.183,-3.417,-0.61,1
9.938651,0.648,0.727,-0.104,-0.732,-2.807,-0.427,1
9.945864,0.641,0.731,-0.104,-1.342,-2.502,-0.427,1
9.954185,0.642,0.732,-0.107,-1.281,-2.014,-0.366,1
9.96316,0.645,0.734,-0.11,-0.61,-1.281,-0.244,1
9.971938,0.641,0.734,-0.117,0.061,-0.732,-0.305,1
9.97937,0.639,0.739,-0.12,1.037,-0.671,0.0,1
9.98689,0.643,0.741,-0.125,2.014,-0.549,0.0,1
9.994461,0.648,0.736,-0.123,2.136,-0.366,-0.122,1
