timestamp_s,ax,ay,az,gx,gy,gz,label
0.00461,0.872,0.503,0.117,0.183,-0.122,-0.427,1
0.012951,0.874,0.5,0.114,0.061,0.183,-0.305,1
0.020425,0.88,0.5,0.116,-0.061,-0.061,-0.366,1
0.028862,0.877,0.5,0.115,0.183,-0.122,-0.549,1
0.035888,0.877,0.506,0.114,0.671,0.061,-0.244,1
0.043681,0.877,0.505,0.114,0.366,-0.061,-0.183,1
0.051834,0.875,0.506,0.112,-0.183,0.0,-0.427,1
0.058314,0.876,0.503,0.114,-0.488,0.061,0.0,1
0.0675,0.874,0.505,0.105,-0.366,0.305,-0.366,1
0.07503,0.881,0.507,0.109,0.244,0.061,-0.122,1
0.081661,0.878,0.507,0.104,0.549,-0.122,-0.122,1
0.089754,0.875,0.506,0.108,0.549,-0.244,-0.244,1
0.098074,0.874,0.501,0.11,0.366,-0.183,-0.183,1
0.106481,0.874,0.499,0.11,0.305,-0.061,-0.549,1
0.114557,0.872,0.496,0.112,0.244,-0.061,-0.305,1
0.123143,0.873,0.489,0.115,0.427,0.0,-0.183,1
0.129581,0.874,0.493,0.111,0.671,0.122,-0.183,1
0.138627,0.875,0.494,0.11,0.305,0.0,-0.122,1
0.145434,0.878,0.494,0.112,-0.244,0.0,0.061,1
0.153643,0.878,0.499,0.108,-0.427,0.0,0.061,1
0.162488,0.876,0.499,0.104,-0.488,0.122,0.305,1
0.169633,0.878,0.506,0.101,-0.732,-0.122,0.122,1
0.178291,0.878,0.507,0.106,-0.488,-0.427,0.244,1
0.185603,0.882,0.508,0.109,0.0,-0.366,0.244,1
0.193876,0.878,0.506,0.111,0.488,-0.366,0.122,1
0.200957,0.88,0.51,0.114,0.183,-0.305,-0.061,1
0.20939,0.879,0.509,0.12,0.183,-0.244,-0.122,1
0.217993,0.876,0.505,0.122,0.183,-0.244,-0.305,1
0.224353,0.879,0.504,0.13,0.488,0.0,-0.305,1
0.232587,0.878,0.503,0.126,0.732,0.183,-0.183,1
0.239452,0.877,0.503,0.126,0.671,0.183,-0.244,1
0.247751,0.873,0.505,0.125,0.183,0.427,-0.061,1
0.255255,0.872,0.508,0.121,0.244,0.427,-0.183,1
0.262443,0.875,0.501,0.124,0.549,0.549,-0.305,1
0.270219,0.872,0.501,0.121,0.976,0.366,0.244,1
0.279243,0.868,0.499,0.123,1.037,0.366,0.122,1
0.286486,0.872,0.494,0.12,0.732,0.61,0.061,1
0.293083,0.872,0.498,0.12,0.671,0.549,0.244,1
0.300215,0.875,0.5,0.118,0.305,0.793,0.366,1
0.309245,0.875,0.502,0.123,0.305,0.732,0.366,1
0.316454,0.874,0.505,0.119,0.549,0.915,0.244,1
0.324049,0.874,0.502,0.12,0.915,0.732,0.122,1
0.331455,0.875,0.502,0.117,0.671,0.854,0.183,1
0.340274,0.873,0.5,0.111,0.122,0.976,0.366,1
0.347335,0.875,0.501,0.104,-0.183,0.976,0.427,1
0.356111,0.877,0.505,0.11,-0.305,0.854,0.305,1
0.363297,0.875,0.501,0.108,0.061,0.732,0.305,1
0.370408,0.881,0.498,0.11,0.305,0.854,0.183,1
0.377911,0.879,0.503,0.105,0.549,0.793,0.305,1
0.387098,0.877,0.5,0.107,0.305,0.671,0.488,1
0.393342,0.876,0.504,0.11,0.366,0.671,0.366,1
0.402109,0.879,0.501,0.109,0.305,0.549,0.549,1
0.410213,0.878,0.499,0.106,0.549,0.793,0.366,1
0.418066,0.871,0.5,0.11,0.61,0.732,0.549,1
0.425078,0.874,0.504,0.109,-0.183,0.732,0.366,1
0.433056,0.872,0.502,0.108,-0.122,0.915,0.366,1
0.440602,0.874,0.503,0.105,0.122,0.854,0.427,1
0.449764,0.872,0.503,0.104,0.183,0.793,0.427,1
0.457236,0.872,0.506,0.103,0.0,0.549,0.549,1
0.464412,0.874,0.505,0.103,-0.061,0.671,0.61,1
0.471989,0.875,0.511,0.099,0.244,0.366,0.732,1
0.479605,0.876,0.51,0.098,0.305,0.427,0.366,1
0.48706,0.871,0.509,0.1,0.366,0.366,0.427,1
0.496021,0.876,0.508,0.101,0.61,0.305,0.427,1
0.503387,0.872,0.509,0.104,0.427,0.122,0.488,1
0.510045,0.873,0.507,0.108,0.366,0.183,0.427,1
0.517387,0.875,0.51,0.107,0.183,0.244,0.488,1
0.52647,0.873,0.506,0.107,0.0,0.244,0.305,1
0.534099,0.875,0.506,0.108,-0.183,0.305,0.671,1
0.540686,0.875,0.505,0.104,0.061,0.0,0.549,1
0.548768,0.877,0.511,0.103,0.0,0.244,0.488,1
0.555524,0.879,0.509,0.104,0.0,0.061,0.61,1
0.563518,0.879,0.509,0.104,0.0,0.061,0.427,1
0.570294,0.874,0.51,0.101,0.122,0.0,0.488,1
0.577632,0.876,0.508,0.096,0.122,-0.122,0.549,1
0.586049,0.873,0.51,0.102,0.061,-0.061,0.488,1
0.593951,0.875,0.51,0.107,0.122,-0.061,0.488,1
0.601823,0.876,0.506,0.103,0.671,-0.061,0.305,1
0.607973,0.873,0.508,0.104,0.549,-0.122,0.427,1
0.615497,0.874,0.505,0.106,0.488,0.061,0.366,1
0.622009,0.875,0.504,0.108,0.122,-0.305,0.366,1
0.628888,0.874,0.504,0.109,0.0,-0.305,0.427,1
0.636666,0.877,0.506,0.109,0.122,-0.122,0.488,1
0.644907,0.876,0.511,0.108,0.183,-0.244,0.366,1
0.651365,0.874,0.51,0.109,0.122,0.0,0.488,1
0.658742,0.876,0.509,0.109,0.122,-0.244,0.366,1
0.666836,0.878,0.51,0.105,0.061,-0.122,0.488,1
0.673147,0.879,0.512,0.108,-0.183,0.0,0.305,1
0.681695,0.873,0.514,0.109,-0.061,-0.122,0.366,1
0.690026,0.874,0.515,0.104,0.061,-0.183,0.122,1
0.697189,0.871,0.513,0.102,0.305,-0.366,0.122,1
0.703576,0.873,0.513,0.11,0.549,-0.244,0.061,1
0.711781,0.871,0.511,0.113,0.793,-0.305,0.183,1
0.720537,0.872,0.508,0.111,0.976,-0.305,0.183,1
0.726924,0.875,0.505,0.114,0.732,0.061,0.0,1
0.735006,0.874,0.505,0.113,0.122,0.061,0.0,1
0.743348,0.876,0.512,0.112,-0.244,0.0,0.183,1
0.750549,0.875,0.507,0.112,-0.305,0.061,0.183,1
0.758668,0.876,0.513,0.107,-0.488,0.244,0.183,1
0.766163,0.875,0.514,0.109,-0.183,-0.122,0.488,1
0.773309,0.874,0.514,0.104,-0.305,0.122,0.244,1
0.781001,0.877,0.513,0.106,-0.366,-0.061,0.061,1
0.789974,0.879,0.515,0.108,-0.122,-0.122,0.0,1
0.797645,0.881,0.514,0.106,0.122,-0.061,0.122,1
0.805205,0.877,0.517,0.111,0.0,-0.366,0.244,1
0.81314,0.881,0.517,0.112,0.122,0.122,-0.122,1
0.819772,0.879,0.52,0.113,0.244,-0.122,-0.244,1
0.827876,0.878,0.514,0.12,0.427,-0.122,-0.061,1
0.836244,0.875,0.518,0.119,0.427,-0.061,-0.488,1
0.845306,0.879,0.515,0.115,0.671,0.122,-0.366,1
0.852346,0.872,0.507,0.123,0.427,0.244,-0.305,1
0.859542,0.872,0.507,0.122,0.549,0.244,-0.549,1
0.868845,0.873,0.503,0.117,0.732,0.305,-0.488,1
0.875699,0.872,0.501,0.119,0.915,0.427,-0.488,1
0.883144,0.871,0.499,0.123,1.037,0.427,0.122,1
0.890443,0.871,0.499,0.114,0.488,0.671,-0.061,1
0.89972,0.869,0.502,0.11,-0.122,0.854,-0.061,1
0.907103,0.867,0.506,0.113,0.0,0.854,-0.061,1
0.915636,0.87,0.504,0.106,-0.427,0.61,0.061,1
0.921302,0.869,0.507,0.106,0.122,0.732,0.061,1
0.928883,0.874,0.509,0.105,0.061,0.732,0.061,1
0.936427,0.875,0.507,0.105,0.183,0.61,0.183,1
0.945827,0.875,0.502,0.107,0.183,0.488,0.0,1
0.953093,0.879,0.504,0.109,0.122,0.427,0.0,1
0.960025,0.875,0.498,0.114,0.183,0.549,-0.183,1
0.96888,0.877,0.5,0.112,0.061,0.793,0.061,1
0.976327,0.874,0.498,0.114,-0.183,0.854,0.122,1
0.983195,0.874,0.495,0.112,-0.305,0.915,0.244,1
0.992105,0.874,0.5,0.107,-0.122,0.793,0.305,1
0.998843,0.872,0.5,0.102,-0.305,0.854,0.427,1
1.008002,0.871,0.501,0.1,-0.305,0.793,0.244,1
1.014407,0.874,0.503,0.098,0.0,0.671,0.488,1
1.022968,0.875,0.505,0.098,-0.061,0.549,0.549,1
1.029298,0.876,0.503,0.096,-0.122,0.427,0.305,1
1.037692,0.872,0.504,0.095,0.122,0.427,0.183,1
1.044183,0.875,0.5,0.098,0.244,0.244,0.549,1
1.052701,0.872,0.497,0.102,0.305,0.183,0.305,1
1.061258,0.87,0.496,0.103,0.366,0.122,0.488,1
1.06802,0.869,0.5,0.107,0.671,0.0,0.671,1
1.074846,0.874,0.493,0.107,0.305,0.366,0.61,1
1.083372,0.868,0.493,0.11,0.305,0.122,0.793,1
1.091522,0.876,0.501,0.112,0.305,0.488,0.976,1
1.098492,0.871,0.5,0.113,0.0,0.122,0.915,1
1.105461,0.873,0.502,0.106,0.061,0.366,0.915,1
1.112377,0.871,0.506,0.109,0.183,0.549,0.793,1
1.119901,0.871,0.506,0.109,0.244,0.427,1.037,1
1.129277,0.87,0.506,0.111,0.244,0.549,1.159,1
1.136993,0.874,0.501,0.103,0.061,0.305,1.159,1
1.144948,0.871,0.507,0.107,0.305,0.549,1.037,1
1.152611,0.869,0.509,0.107,0.366,0.244,1.159,1
1.159736,0.875,0.505,0.112,0.305,0.305,1.159,1
1.167152,0.872,0.508,0.109,0.183,0.305,1.037,1
1.173339,0.871,0.51,0.111,0.244,0.244,1.281,1
1.181041,0.87,0.506,0.107,0.305,0.305,1.281,1
1.18861,0.872,0.508,0.111,0.122,0.732,1.037,1
1.197063,0.873,0.507,0.112,0.305,0.427,1.22,1
1.204027,0.874,0.509,0.112,0.366,0.244,1.281,1
1.211147,0.872,0.505,0.112,0.366,0.488,1.159,1
1.218943,0.871,0.509,0.109,0.305,0.549,1.22,1
1.227031,0.874,0.512,0.112,0.427,0.549,1.22,1
1.234462,0.875,0.508,0.111,0.305,0.732,1.281,1
1.242354,0.873,0.509,0.109,-0.122,0.671,1.342,1
1.249496,0.87,0.514,0.106,-0.488,0.793,1.342,1
1.25729,0.872,0.515,0.104,-0.732,0.671,1.342,1
1.265788,0.868,0.518,0.103,-0.183,0.61,1.525,1
1.271421,0.87,0.518,0.105,0.0,0.61,1.159,1
1.281869,0.871,0.515,0.107,0.0,0.61,1.342,1
1.288872,0.869,0.516,0.103,0.244,0.671,1.22,1
1.295836,0.87,0.517,0.107,0.305,0.61,1.22,1
1.304114,0.872,0.52,0.107,0.061,0.488,1.098,1
1.312484,0.872,0.513,0.111,0.0,0.732,1.098,1
1.32063,0.872,0.52,0.104,-0.061,0.854,1.22,1
1.327043,0.873,0.52,0.112,-0.244,0.915,1.098,1
1.335531,0.869,0.52,0.107,0.0,0.854,1.098,1
1.343455,0.87,0.516,0.106,-0.183,0.976,0.854,1
1.352031,0.875,0.516,0.106,0.122,0.732,1.281,1
1.359388,0.873,0.516,0.109,0.122,1.037,0.976,1
1.366148,0.874,0.516,0.106,-0.549,0.976,0.854,1
1.374306,0.873,0.512,0.107,-0.793,0.915,1.098,1
1.381668,0.871,0.517,0.107,-1.22,0.915,0.976,1
1.390121,0.871,0.517,0.108,-1.159,1.037,1.159,1
1.397424,0.872,0.521,0.107,-1.342,0.976,1.281,1
1.406329,0.877,0.525,0.108,-1.281,1.037,1.037,1
1.4133,0.874,0.529,0.106,-0.671,0.915,0.915,1
1.420592,0.872,0.528,0.107,-0.366,0.854,0.854,1
1.429438,0.875,0.529,0.113,-0.854,0.793,0.671,1
1.436366,0.877,0.525,0.118,-0.732,1.037,0.366,1
1.444818,0.874,0.524,0.121,-0.671,1.037,0.427,1
1.452799,0.874,0.519,0.12,-0.366,1.342,0.244,1
1.459466,0.872,0.515,0.119,-0.122,1.342,0.305,1
1.467884,0.875,0.508,0.119,0.122,1.525,0.244,1
1.474677,0.86,0.511,0.119,-0.183,1.77,0.549,1
1.482642,0.862,0.514,0.111,-0.915,1.953,0.732,1
1.491057,0.858,0.513,0.104,-1.647,2.075,0.671,1
1.498094,0.86,0.524,0.099,-1.037,1.953,0.732,1
1.507337,0.859,0.523,0.093,0.0,1.586,1.037,1
1.51449,0.865,0.524,0.094,0.244,1.525,0.671,1
1.520871,0.867,0.523,0.09,0.0,1.708,0.671,1
1.529365,0.865,0.522,0.088,-0.305,1.586,0.549,1
1.536847,0.87,0.522,0.092,-1.037,1.281,0.366,1
1.543886,0.876,0.52,0.091,-1.22,1.342,0.549,1
1.551163,0.873,0.52,0.094,-1.708,1.464,0.244,1
1.558893,0.879,0.522,0.092,-0.915,1.22,0.488,1
1.565375,0.881,0.523,0.089,0.427,1.098,0.427,1
1.574154,0.878,0.525,0.087,0.854,1.037,0.61,1
1.581098,0.872,0.537,0.091,0.0,0.793,0.488,1
1.58796,0.873,0.54,0.092,0.549,0.976,0.427,1
1.595198,0.868,0.541,0.09,1.586,0.61,0.122,1
1.603772,0.869,0.538,0.09,2.136,0.732,0.0,1
1.610691,0.868,0.543,0.087,1.647,0.915,-0.244,1
1.619529,0.866,0.539,0.087,0.915,0.976,-0.366,1
1.626079,0.866,0.534,0.083,0.427,0.976,-0.244,1
1.633175,0.868,0.534,0.083,0.305,0.976,-0.61,1
1.641368,0.869,0.532,0.085,1.098,0.488,-0.549,1
1.648532,0.872,0.531,0.081,2.197,0.427,-0.854,1
1.657224,0.87,0.528,0.083,2.258,0.244,-0.976,1
1.663926,0.873,0.526,0.085,1.647,0.244,-1.037,1
1.673027,0.874,0.522,0.083,2.075,-0.183,-1.098,1
1.680913,0.877,0.524,0.086,2.563,-0.122,-1.037,1
1.688491,0.876,0.521,0.089,2.807,-0.183,-1.037,1
1.697563,0.875,0.522,0.096,2.99,-0.061,-1.159,1
1.704494,0.872,0.518,0.099,2.746,-0.122,-1.159,1
1.713158,0.87,0.523,0.096,1.953,0.0,-1.037,1
1.71938,0.871,0.522,0.09,1.281,0.061,-1.037,1
1.727152,0.869,0.518,0.093,0.549,0.0,-1.159,1
1.735696,0.867,0.523,0.092,0.366,0.183,-1.22,1
1.743357,0.869,0.517,0.088,0.854,-0.244,-1.281,1
1.751644,0.864,0.513,0.088,0.244,-0.305,-1.403,1
1.758565,0.871,0.508,0.09,0.122,-0.061,-1.281,1
1.767494,0.868,0.513,0.094,-0.427,-0.122,-1.098,1
1.774186,0.87,0.51,0.091,-1.22,-0.305,-1.159,1
1.782773,0.873,0.507,0.095,-1.77,-0.305,-1.586,1
1.789785,0.873,0.5,0.099,-1.77,-0.61,-1.159,1
1.798044,0.873,0.495,0.104,-1.708,-0.793,-1.281,1
1.805527,0.876,0.487,0.116,-1.403,-0.61,-0.854,1
1.813945,0.88,0.484,0.127,-1.281,-0.305,-0.732,1
1.821334,0.868,0.481,0.132,-1.403,0.305,-0.427,1
1.830249,0.874,0.484,0.132,-2.441,0.427,-0.183,1
1.837454,0.865,0.492,0.135,-2.502,0.854,0.122,1
1.84565,0.859,0.495,0.132,-2.075,1.22,0.0,1
1.853666,0.867,0.49,0.125,-1.464,1.159,0.244,1
1.861751,0.869,0.489,0.125,-1.037,1.159,0.244,1
1.869701,0.873,0.492,0.122,-0.671,1.464,0.549,1
1.876282,0.874,0.488,0.12,-0.488,1.586,0.61,1
1.885382,0.878,0.493,0.125,-0.793,1.831,0.915,1
1.892405,0.872,0.498,0.123,-1.586,1.953,0.976,1
1.900442,0.874,0.494,0.132,-2.136,2.075,1.037,1
1.907292,0.873,0.496,0.136,-1.77,2.197,0.976,1
1.916338,0.874,0.497,0.143,-0.61,2.136,1.159,1
1.922312,0.871,0.492,0.146,0.122,2.441,1.342,1
1.930066,0.869,0.488,0.149,0.305,2.746,1.403,1
1.937641,0.861,0.492,0.155,-0.183,3.112,1.77,1
1.947099,0.864,0.493,0.158,-0.854,3.417,1.831,1
1.95365,0.868,0.49,0.162,-1.708,3.723,2.075,1
1.960673,0.872,0.492,0.168,-2.075,4.272,2.319,1
1.969719,0.872,0.496,0.175,-2.441,4.76,2.258,1
1.977705,0.87,0.499,0.181,-2.685,5.31,2.624,1
1.984703,0.869,0.501,0.186,-3.051,5.676,2.502,1
1.99331,0.872,0.501,0.2,-2.868,6.042,2.685,1
2.000231,0.875,0.493,0.21,-2.624,6.896,2.563,1
2.009057,0.87,0.485,0.222,-2.502,7.629,2.563,1
2.015753,0.871,0.48,0.239,-3.051,8.544,2.624,1
2.0246,0.873,0.471,0.25,-3.479,9.704,2.868,1
2.031712,0.873,0.464,0.252,-3.601,10.314,3.112,1
2.039032,0.873,0.459,0.262,-3.295,11.23,3.356,1
2.046533,0.869,0.458,0.271,-2.075,11.84,3.967,1
2.055229,0.865,0.456,0.276,-1.464,13.122,4.394,1
2.063228,0.864,0.452,0.273,-0.671,14.221,4.76,1
2.070909,0.858,0.454,0.272,-0.183,15.38,4.943,1
2.078079,0.858,0.452,0.279,0.671,16.235,5.554,1
2.085304,0.849,0.455,0.286,2.197,17.456,5.432,1
2.092614,0.847,0.444,0.297,3.234,18.859,5.554,1
2.10182,0.846,0.44,0.307,2.868,20.446,5.859,1
2.108382,0.853,0.432,0.319,1.708,22.521,5.798,1
2.117123,0.849,0.434,0.333,0.0,24.597,6.042,1
2.124567,0.846,0.43,0.343,-1.464,26.733,6.469,1
2.132915,0.846,0.427,0.356,-2.197,29.113,6.591,1
2.140803,0.845,0.428,0.362,-2.807,31.616,6.774,1
2.146136,0.848,0.422,0.362,-3.662,34.24,7.629,1
2.1554,0.855,0.421,0.358,-4.211,36.132,7.934,1
2.162731,0.857,0.416,0.342,-5.004,38.513,8.483,1
2.17005,0.85,0.415,0.331,-5.126,41.259,9.094,1
2.177642,0.842,0.407,0.306,-5.249,43.762,9.826,1
2.186477,0.829,0.389,0.267,-6.347,46.447,10.681,1
2.193458,0.817,0.37,0.219,-8.728,49.133,11.596,1
2.201281,0.794,0.342,0.158,-11.901,51.879,12.512,1
2.208853,0.78,0.323,0.094,-14.892,54.626,14.221,1
2.215587,0.761,0.301,0.037,-16.601,56.64,15.563,1
2.224891,0.722,0.27,-0.065,-17.211,58.593,17.822,1
2.231464,0.693,0.25,-0.209,-15.808,60.241,20.69,1
2.240918,0.666,0.229,-0.367,-11.108,60.729,22.888,1
2.248598,0.646,0.214,-0.542,-1.892,60.668,25.329,1
2.256801,0.605,0.221,-0.793,11.474,59.692,28.137,1
2.264185,0.599,0.21,-1.083,20.263,57.312,31.799,1
2.271946,0.583,0.191,-1.403,12.939,54.199,35.156,1
2.278676,0.585,0.191,-1.736,-7.629,49.804,39.184,1
2.286886,0.569,0.199,-2.085,-39.489,42.907,43.518,1
2.29591,0.545,0.243,-2.503,-75.073,34.851,47.79,1
2.303166,0.544,0.309,-2.845,-107.666,19.592,52.734,1
2.311485,0.533,0.379,-3.147,-119.873,3.051,56.213,1
2.321218,0.53,0.494,-3.532,-110.046,-24.353,59.936,1
2.329454,0.505,0.596,-3.83,-91.674,-53.405,62.988,1
2.33618,0.496,0.707,-4.041,-87.463,-80.566,65.063,1
2.345338,0.452,0.898,-4.211,-94.665,-108.215,66.589,1
2.351407,0.343,1.128,-4.231,-108.093,-141.479,66.833,1
2.360777,0.235,1.373,-4.141,-112.548,-169.25,65.368,1
2.368429,0.067,1.627,-3.988,-113.342,-197.204,62.133,1
2.374879,-0.091,1.864,-3.716,-112.854,-223.327,57.067,1
2.382622,-0.299,2.068,-3.411,-111.999,-247.131,50.842,1
2.391827,-0.48,2.271,-3.034,-112.243,-267.822,44.006,1
2.398392,-0.728,2.479,-2.592,-112.426,-286.743,36.132,1
2.407098,-0.915,2.663,-2.15,-116.21,-304.748,26.367,1
2.41628,-1.122,2.843,-1.606,-122.497,-317.26,16.906,1
2.423311,-1.284,2.948,-1.142,-128.601,-326.416,5.371,1
2.432089,-1.394,3.028,-0.642,-135.07,-331.848,-4.394,1
2.440166,-1.476,3.099,-0.198,-138.305,-336.242,-16.357,1
2.449058,-1.571,3.123,0.335,-136.535,-336.853,-28.259,1
2.456177,-1.605,3.11,0.805,-128.967,-335.571,-38.757,1
2.465096,-1.587,3.048,1.297,-110.595,-331.237,-49.255,1
2.473559,-1.538,2.92,1.64,-89.721,-322.692,-62.194,1
2.482056,-1.411,2.751,1.908,-83.007,-313.964,-72.814,1
2.489094,-1.256,2.558,2.219,-81.298,-301.391,-84.167,1
2.497746,-1.11,2.299,2.498,-79.101,-288.33,-92.834,1
2.506692,-0.945,2.047,2.671,-78.186,-270.69,-101.257,1
2.515059,-0.77,1.785,2.812,-77.148,-255.187,-107.116,1
2.521987,-0.617,1.494,2.981,-77.514,-234.497,-112.182,1
2.530417,-0.487,1.23,3.055,-82.641,-215.698,-114.624,1
2.539919,-0.38,1.045,3.106,-86.791,-193.176,-116.577,1
2.547459,-0.219,0.825,3.049,-86.12,-174.56,-116.821,1
2.554644,-0.101,0.636,2.959,-84.655,-153.442,-116.271,1
2.563127,0.058,0.419,2.77,-84.899,-136.962,-114.746,1
2.571576,0.158,0.255,2.585,-88.378,-119.873,-111.572,1
2.580744,0.266,0.104,2.376,-86.914,-107.666,-108.154,1
2.588003,0.346,0.021,2.234,-75.134,-96.557,-103.149,1
2.595406,0.36,-0.013,2.155,-56.64,-88.439,-98.632,1
2.604825,0.337,-0.078,2.063,-45.837,-77.636,-92.834,1
2.61361,0.395,-0.128,1.999,-46.508,-67.932,-87.951,1
2.62076,0.373,-0.142,1.908,-48.95,-56.64,-81.481,1
2.629959,0.388,-0.153,1.796,-48.767,-47.424,-75.317,1
2.637904,0.387,-0.175,1.685,-47.119,-39.855,-69.946,1
2.645706,0.408,-0.203,1.538,-47.241,-32.714,-63.476,1
2.653597,0.426,-0.227,1.398,-48.583,-27.099,-57.739,1
2.662216,0.471,-0.236,1.257,-49.987,-23.376,-51.818,1
2.671295,0.505,-0.225,1.159,-46.325,-20.263,-44.921,1
2.678846,0.518,-0.211,1.094,-37.597,-17.883,-39.184,1
2.686525,0.526,-0.193,1.049,-30.09,-15.075,-32.226,1
2.695218,0.543,-0.17,1.007,-28.137,-12.695,-26.672,1
2.70236,0.556,-0.11,0.973,-27.587,-9.643,-20.751,1
2.711002,0.567,-0.059,0.951,-26.0,-6.835,-15.93,1
2.718852,0.595,-0.016,0.921,-24.597,-3.784,-11.901,1
2.727771,0.604,0.026,0.86,-24.23,0.244,-7.446,1
2.735625,0.624,0.078,0.782,-25.085,2.441,-4.577,1
2.74335,0.656,0.134,0.703,-24.78,4.272,-1.647,1
2.750937,0.679,0.182,0.622,-24.597,5.371,0.183,1
2.760097,0.699,0.211,0.551,-24.291,5.981,2.38,1
2.766607,0.724,0.249,0.504,-24.475,5.371,3.906,1
2.776038,0.741,0.296,0.48,-22.766,4.638,5.187,1
2.783443,0.738,0.34,0.457,-19.165,4.333,6.53,1
2.790549,0.738,0.393,0.441,-15.38,3.112,7.751,1
2.799794,0.727,0.431,0.431,-14.282,2.136,8.544,1
2.807236,0.719,0.487,0.434,-14.16,1.586,9.46,1
2.814422,0.712,0.537,0.437,-14.892,1.037,9.46,1
2.823344,0.708,0.58,0.432,-17.089,0.915,9.521,1
2.831013,0.705,0.616,0.417,-17.456,0.976,9.155,1
2.838248,0.707,0.647,0.404,-16.784,0.732,8.666,1
2.846124,0.709,0.668,0.383,-16.174,0.427,7.385,1
2.853582,0.714,0.67,0.364,-15.563,-0.366,6.103,1
2.862456,0.736,0.671,0.354,-14.038,-1.586,4.394,1
2.869525,0.759,0.668,0.363,-10.742,-2.38,3.112,1
2.877216,0.756,0.665,0.371,-7.507,-3.54,2.197,1
2.886164,0.772,0.664,0.371,-6.286,-4.455,1.037,1
2.893811,0.789,0.664,0.376,-6.591,-5.371,-0.183,1
2.901311,0.796,0.673,0.391,-6.469,-6.103,-1.281,1
2.91014,0.812,0.671,0.414,-6.347,-6.469,-2.502,1
2.917664,0.833,0.666,0.419,-7.812,-6.591,-3.479,1
2.926748,0.84,0.666,0.416,-8.728,-6.286,-4.516,1
2.933896,0.85,0.666,0.409,-7.019,-6.713,-5.981,1
2.941809,0.859,0.655,0.393,-5.249,-7.019,-7.141,1
2.950589,0.855,0.634,0.391,-4.15,-7.446,-8.117,1
2.957736,0.852,0.615,0.38,-3.662,-7.934,-9.094,1
2.966694,0.838,0.592,0.372,-3.784,-8.239,-10.192,1
2.97403,0.835,0.564,0.362,-3.784,-9.155,-10.559,1
2.982482,0.82,0.544,0.362,-3.723,-9.948,-10.925,1
2.991619,0.802,0.521,0.373,-3.906,-10.864,-10.925,1
2.998726,0.793,0.504,0.391,-4.15,-11.474,-10.925,1
3.006413,0.771,0.496,0.414,-3.356,-11.901,-10.803,1
3.01416,0.75,0.487,0.446,-2.441,-11.962,-10.437,1
3.022216,0.74,0.478,0.461,-2.624,-11.779,-9.826,1
3.03134,0.732,0.469,0.478,-2.929,-11.23,-9.582,1
3.040055,0.729,0.462,0.488,-2.502,-10.437,-8.972,1
3.047287,0.724,0.458,0.493,-1.953,-9.704,-8.666,1
3.05623,0.726,0.44,0.496,-1.586,-8.911,-8.117,1
3.063434,0.731,0.434,0.488,-1.403,-8.178,-7.751,1
3.071773,0.734,0.426,0.487,-0.427,-7.568,-7.141,1
3.079393,0.74,0.417,0.479,0.854,-7.385,-6.591,1
3.08796,0.729,0.407,0.475,1.464,-7.019,-5.92,1
3.095635,0.749,0.394,0.457,-1.159,-7.019,-5.493,1
3.10334,0.749,0.394,0.465,-4.394,-6.103,-4.455,1
3.112369,0.761,0.394,0.473,-5.981,-5.92,-3.723,1
3.120683,0.766,0.407,0.479,-5.004,-5.737,-2.929,1
3.128185,0.764,0.41,0.477,-2.807,-5.737,-2.319,1
3.135035,0.767,0.413,0.47,-1.831,-5.432,-1.77,1
3.143465,0.773,0.415,0.474,-1.281,-5.432,-1.22,1
3.150392,0.77,0.418,0.472,0.061,-5.126,-0.732,1
3.158231,0.767,0.415,0.463,0.671,-4.943,-0.305,1
3.16625,0.767,0.418,0.456,0.549,-4.577,0.366,1
3.174745,0.766,0.417,0.45,1.098,-4.577,0.61,1
3.18011,0.772,0.416,0.442,1.831,-4.394,1.098,1
3.188065,0.771,0.417,0.437,1.586,-4.211,2.014,1
3.195625,0.764,0.422,0.436,0.244,-4.272,2.502,1
3.20357,0.773,0.429,0.437,-1.892,-4.089,3.417,1
3.211433,0.778,0.444,0.451,-2.075,-3.906,3.906,1
3.218562,0.769,0.455,0.454,-1.159,-3.906,4.272,1
3.226899,0.774,0.462,0.46,-0.061,-4.15,4.699,1
3.23416,0.763,0.474,0.455,0.366,-3.906,5.187,1
3.243241,0.763,0.489,0.471,1.037,-4.272,5.31,1
3.250277,0.761,0.5,0.477,2.319,-4.028,5.371,1
3.258741,0.763,0.506,0.48,3.112,-3.723,5.187,1
3.266763,0.753,0.516,0.478,2.746,-3.417,5.187,1
3.274632,0.76,0.516,0.478,1.831,-2.929,4.943,1
3.282381,0.758,0.518,0.477,1.159,-2.746,4.943,1
3.290039,0.762,0.528,0.477,0.732,-2.563,4.943,1
3.298436,0.778,0.532,0.471,0.488,-2.38,4.943,1
3.305174,0.774,0.541,0.465,0.976,-2.075,4.516,1
3.311953,0.781,0.551,0.468,1.647,-2.197,4.455,1
3.320931,0.773,0.554,0.463,3.173,-2.319,4.089,1
3.327844,0.776,0.561,0.459,3.906,-2.197,3.845,1
3.33661,0.767,0.563,0.462,3.967,-2.075,3.417,1
3.344897,0.766,0.569,0.461,3.234,-2.136,2.929,1
3.352258,0.764,0.573,0.461,2.746,-2.014,2.441,1
3.360001,0.762,0.576,0.448,2.563,-1.892,2.197,1
3.367708,0.759,0.576,0.451,1.77,-1.892,1.77,1
3.376952,0.76,0.577,0.441,0.61,-1.708,1.403,1
3.384292,0.76,0.574,0.434,-0.732,-1.525,1.159,1
3.391368,0.755,0.573,0.431,-1.342,-1.464,0.488,1
3.399748,0.76,0.573,0.42,-1.22,-1.831,0.061,1
3.409396,0.758,0.57,0.416,-0.427,-2.075,-0.305,1
3.416817,0.756,0.567,0.422,0.488,-2.868,-0.305,1
3.42415,0.759,0.567,0.424,1.464,-2.99,-0.732,1
3.431482,0.754,0.564,0.435,2.746,-3.54,-0.915,1
3.440764,0.75,0.554,0.441,3.173,-3.662,-1.281,1
3.449368,0.746,0.552,0.447,3.295,-3.784,-1.586,1
3.457261,0.749,0.544,0.454,3.723,-3.906,-1.647,1
3.464443,0.742,0.538,0.455,4.028,-4.028,-2.075,1
3.472167,0.741,0.535,0.467,3.784,-3.845,-2.075,1
3.481597,0.746,0.527,0.472,3.479,-3.723,-2.258,1
3.48911,0.742,0.517,0.478,2.868,-3.54,-2.258,1
3.496376,0.747,0.512,0.479,1.708,-3.295,-2.258,1
3.505292,0.75,0.505,0.48,1.22,-3.051,-2.258,1
3.51232,0.751,0.5,0.482,1.403,-3.051,-2.258,1
3.519976,0.758,0.502,0.48,2.136,-2.99,-1.953,1
3.529106,0.756,0.496,0.481,2.624,-2.746,-1.77,1
3.536195,0.759,0.489,0.49,2.563,-2.868,-1.586,1
3.544306,0.76,0.49,0.491,2.807,-2.441,-1.586,1
3.551999,0.755,0.494,0.499,3.784,-2.38,-1.22,1
3.559535,0.753,0.496,0.497,5.065,-2.136,-1.098,1
3.568102,0.753,0.493,0.497,5.187,-2.075,-1.159,1
3.575416,0.75,0.489,0.498,4.394,-1.464,-0.793,1
3.582466,0.752,0.493,0.498,3.051,-1.159,-0.671,1
3.591585,0.745,0.491,0.496,2.319,-0.976,-0.671,1
3.599179,0.749,0.491,0.484,1.525,-0.671,-0.305,1
3.606652,0.752,0.486,0.484,1.22,-0.061,-0.061,1
3.615481,0.751,0.497,0.481,0.915,-0.183,0.122,1
3.622699,0.752,0.502,0.482,1.159,-0.183,-0.122,1
3.630323,0.751,0.501,0.482,1.22,0.061,0.183,1
3.639236,0.749,0.508,0.481,1.586,0.244,0.366,1
3.647256,0.752,0.511,0.487,2.014,0.366,0.549,1
3.655239,0.754,0.509,0.483,2.075,0.671,0.427,1
3.663258,0.752,0.52,0.482,2.502,0.549,0.61,1
3.670336,0.754,0.525,0.478,2.563,0.854,0.183,1
3.678145,0.753,0.529,0.47,2.685,1.037,0.122,1
3.684361,0.757,0.524,0.468,2.868,0.854,0.0,1
3.693142,0.756,0.524,0.464,2.38,0.976,-0.061,1
3.70133,0.755,0.523,0.458,2.258,1.159,-0.183,1
3.708076,0.759,0.522,0.456,2.014,0.793,-0.305,1
3.716869,0.759,0.516,0.454,1.525,0.915,-0.305,1
3.724682,0.763,0.516,0.454,0.488,0.854,-0.305,1
3.731826,0.761,0.518,0.45,0.122,0.854,-0.549,1
3.740713,0.752,0.52,0.456,-0.061,0.976,-0.427,1
3.748456,0.757,0.52,0.451,-0.305,0.793,-0.61,1
3.756551,0.76,0.524,0.448,-0.183,0.671,-0.61,1
3.763797,0.755,0.527,0.444,0.061,0.61,-0.732,1
3.772712,0.757,0.527,0.449,0.488,0.549,-1.037,1
3.779748,0.751,0.532,0.45,0.61,0.366,-1.037,1
3.786611,0.755,0.522,0.449,0.671,0.366,-1.22,1
3.794878,0.758,0.526,0.446,0.61,0.488,-1.281,1
3.801528,0.758,0.526,0.442,0.732,0.305,-1.281,1
3.809446,0.76,0.525,0.437,0.61,0.183,-1.403,1
3.818329,0.763,0.523,0.432,0.427,0.183,-1.464,1
3.825377,0.759,0.522,0.432,0.366,-0.244,-1.708,1
3.834739,0.757,0.52,0.427,0.549,-0.488,-1.831,1
3.841948,0.753,0.513,0.429,0.488,-0.488,-2.075,1
3.850777,0.755,0.501,0.432,0.061,-0.976,-1.953,1
3.857756,0.754,0.502,0.438,-0.183,-1.098,-1.953,1
3.866876,0.754,0.497,0.449,0.305,-1.098,-2.197,1
3.873841,0.755,0.496,0.454,0.122,-1.525,-1.831,1
3.88261,0.755,0.5,0.46,0.061,-1.159,-1.77,1
3.890696,0.755,0.498,0.464,0.122,-1.22,-1.525,1
3.897614,0.75,0.498,0.464,0.183,-1.464,-1.647,1
3.906434,0.753,0.501,0.468,0.061,-1.22,-1.464,1
3.913007,0.755,0.5,0.464,0.366,-1.098,-1.22,1
3.922095,0.761,0.49,0.458,0.305,-1.098,-1.403,1
3.929025,0.76,0.489,0.457,0.366,-1.22,-1.525,1
3.936885,0.762,0.485,0.456,0.061,-1.159,-1.403,1
3.94469,0.757,0.481,0.457,0.244,-1.342,-1.281,1
3.952647,0.758,0.486,0.456,0.793,-1.464,-1.159,1
3.961442,0.756,0.475,0.461,0.976,-1.403,-0.976,1
3.968552,0.751,0.477,0.459,0.61,-1.342,-0.732,1
3.976176,0.748,0.469,0.463,0.244,-1.525,-0.732,1
3.98509,0.743,0.474,0.462,-0.305,-1.22,-0.305,1
3.992543,0.745,0.471,0.463,-0.366,-1.281,0.0,1
3.999932,0.744,0.473,0.464,0.244,-1.22,0.061,1
4.007829,0.744,0.473,0.466,0.061,-0.976,0.427,1
4.016601,0.733,0.475,0.447,-1.098,-1.037,0.427,1
4.023831,0.744,0.479,0.453,-1.586,-1.281,0.732,1
4.03272,0.745,0.48,0.463,-0.793,-1.403,1.037,1
4.040665,0.75,0.483,0.459,-0.122,-1.77,1.159,1
4.048666,0.752,0.477,0.458,0.183,-1.525,1.22,1
4.056822,0.751,0.477,0.464,-0.305,-1.525,1.464,1
4.064579,0.756,0.481,0.464,-1.647,-1.403,1.464,1
4.071613,0.752,0.486,0.466,-1.586,-1.342,1.464,1
4.080887,0.752,0.493,0.465,-1.098,-1.647,1.647,1
4.087572,0.754,0.496,0.47,-0.183,-1.525,1.77,1
4.096383,0.748,0.504,0.47,0.732,-1.281,2.075,1
4.103166,0.75,0.504,0.475,1.159,-1.22,1.953,1
4.112002,0.751,0.505,0.477,0.793,-1.342,2.075,1
4.11913,0.752,0.506,0.473,0.488,-1.281,1.831,1
4.125924,0.759,0.508,0.472,0.061,-1.037,1.892,1
4.134282,0.761,0.512,0.468,-0.061,-1.037,1.831,1
4.141674,0.763,0.511,0.467,0.0,-1.037,1.647,1
4.15003,0.761,0.515,0.463,-0.488,-0.976,1.708,1
4.159065,0.757,0.518,0.474,-0.854,-1.098,1.708,1
4.165819,0.757,0.519,0.475,-0.61,-1.159,1.77,1
4.173201,0.756,0.524,0.477,-0.366,-1.037,1.586,1
4.181295,0.757,0.53,0.478,0.061,-0.854,1.342,1
4.188283,0.758,0.528,0.473,0.122,-0.854,1.342,1
4.197075,0.759,0.53,0.469,-0.549,-0.671,1.342,1
4.203322,0.755,0.538,0.469,-0.915,-0.61,1.342,1
4.211758,0.755,0.541,0.468,-0.61,-0.854,0.976,1
4.218652,0.752,0.538,0.46,-0.366,-0.854,0.793,1
4.227311,0.751,0.538,0.464,0.305,-0.915,0.366,1
4.234076,0.754,0.537,0.461,0.244,-1.159,0.305,1
4.243268,0.754,0.535,0.465,0.122,-1.22,-0.061,1
4.250976,0.751,0.53,0.473,0.0,-0.854,0.0,1
4.259181,0.751,0.532,0.475,-0.732,-0.976,-0.244,1
4.267522,0.75,0.526,0.48,-0.671,-0.732,-0.427,1
4.274661,0.752,0.524,0.479,-0.183,-0.366,-0.488,1
4.282149,0.751,0.52,0.479,0.0,-0.732,-0.427,1
4.291185,0.754,0.518,0.479,-0.488,-0.366,-0.671,1
4.298776,0.754,0.517,0.474,-0.549,-0.061,-0.732,1
4.306775,0.754,0.517,0.465,-0.61,-0.427,-0.427,1
4.31456,0.752,0.515,0.467,-0.549,-0.122,-0.793,1
4.322835,0.749,0.513,0.46,0.122,-0.366,-0.61,1
4.330144,0.75,0.508,0.457,0.0,-0.488,-0.854,1
4.338885,0.75,0.507,0.458,-0.854,-0.671,-0.61,1
4.346293,0.75,0.508,0.457,-1.586,-0.366,-0.61,1
4.354109,0.753,0.509,0.461,-1.281,-0.488,-0.61,1
4.362818,0.752,0.505,0.46,-1.159,-0.488,-0.671,1
4.370586,0.75,0.504,0.458,-1.403,-0.366,-0.793,1
4.37925,0.747,0.504,0.459,-1.342,-0.671,-0.549,1
4.388144,0.743,0.504,0.465,-1.22,-0.61,-0.244,1
4.3961,0.747,0.499,0.463,-1.037,-0.671,-0.488,1
4.404879,0.746,0.499,0.461,-1.037,-0.61,-0.183,1
4.41171,0.743,0.495,0.462,-0.854,-0.549,-0.305,1
4.420662,0.749,0.496,0.458,-0.244,-0.732,0.0,1
4.428271,0.746,0.495,0.456,0.122,-0.854,0.0,1
4.436166,0.749,0.494,0.45,0.488,-0.854,-0.061,1
4.443787,0.75,0.495,0.451,0.122,-0.976,0.122,1
4.45233,0.748,0.495,0.45,0.0,-1.281,0.427,1
4.459999,0.746,0.495,0.449,0.122,-1.281,0.305,1
4.467253,0.749,0.493,0.455,0.122,-1.281,0.671,1
4.475442,0.745,0.501,0.457,-0.061,-1.342,0.671,1
4.48404,0.743,0.501,0.469,-0.305,-1.647,0.61,1
4.491574,0.739,0.499,0.466,-0.671,-1.647,0.854,1
4.4998,0.739,0.504,0.473,-1.159,-1.525,0.732,1
4.507227,0.742,0.506,0.47,-0.915,-1.464,0.915,1
4.514722,0.748,0.517,0.472,-0.244,-1.342,1.098,1
4.522233,0.748,0.516,0.474,0.061,-1.464,0.854,1
4.531287,0.749,0.517,0.468,0.549,-1.403,0.854,1
4.538675,0.753,0.523,0.466,0.793,-1.342,0.671,1
4.546151,0.753,0.524,0.468,0.61,-1.464,0.61,1
4.554085,0.758,0.522,0.465,0.366,-1.281,0.671,1
4.563118,0.759,0.52,0.464,0.122,-1.342,0.366,1
4.569826,0.754,0.523,0.463,-0.183,-1.281,0.305,1
4.577623,0.751,0.525,0.464,-0.244,-1.464,0.061,1
4.58691,0.752,0.523,0.464,-0.122,-1.708,0.061,1
4.593814,0.746,0.518,0.467,0.244,-1.647,0.122,1
4.602743,0.746,0.524,0.467,0.549,-1.831,0.0,1
4.610245,0.741,0.523,0.472,0.793,-1.77,0.183,1
4.617748,0.742,0.522,0.469,0.427,-1.647,-0.122,1
4.626422,0.745,0.522,0.471,0.427,-1.464,0.0,1
4.633624,0.746,0.524,0.464,0.549,-1.464,-0.061,1
4.641113,0.745,0.526,0.469,0.732,-1.708,-0.244,1
4.64987,0.744,0.524,0.468,0.671,-1.403,-0.305,1
4.656876,0.746,0.521,0.47,0.305,-1.647,-0.183,1
4.664453,0.749,0.519,0.473,0.244,-1.647,-0.488,1
4.672001,0.748,0.518,0.478,0.732,-1.586,-0.549,1
4.681015,0.746,0.514,0.476,1.098,-1.586,-0.793,1
4.688316,0.749,0.507,0.479,1.464,-1.586,-0.549,1
4.696006,0.746,0.504,0.478,1.647,-1.586,-0.488,1
4.705003,0.749,0.504,0.479,2.014,-1.464,-0.427,1
4.711595,0.747,0.499,0.475,2.136,-1.342,-0.305,1
4.72037,0.745,0.5,0.476,2.563,-1.403,-0.183,1
4.726715,0.743,0.505,0.473,2.624,-1.586,0.0,1
4.735278,0.739,0.5,0.476,2.319,-1.403,-0.061,1
4.741628,0.742,0.503,0.477,1.586,-1.281,0.0,1
4.750865,0.746,0.502,0.476,1.403,-1.22,-0.061,1
4.759377,0.747,0.499,0.475,1.403,-1.159,0.061,1
4.766028,0.749,0.499,0.475,1.403,-1.22,0.061,1
4.773778,0.75,0.498,0.477,1.037,-1.159,0.061,1
4.782215,0.75,0.499,0.474,0.427,-1.037,0.122,1
4.790656,0.748,0.506,0.479,0.366,-1.098,0.122,1
4.797428,0.75,0.508,0.473,1.098,-1.037,0.183,1
4.804932,0.748,0.513,0.474,1.708,-1.342,0.427,1
4.813226,0.746,0.507,0.474,1.586,-1.281,0.0,1
4.82064,0.745,0.505,0.476,0.854,-1.098,0.244,1
4.828423,0.742,0.507,0.472,0.183,-0.976,0.122,1
4.835924,0.743,0.512,0.471,-0.183,-0.976,0.305,1
4.844971,0.747,0.515,0.471,0.244,-1.159,0.305,1
4.851947,0.74,0.513,0.472,0.793,-1.098,0.488,1
4.861318,0.738,0.512,0.477,-0.183,-1.281,0.0,1
4.868813,0.741,0.516,0.479,-0.854,-0.976,0.122,1
4.876504,0.746,0.515,0.478,-1.037,-0.915,0.427,1
4.885346,0.745,0.514,0.481,-0.854,-0.732,0.305,1
4.893138,0.746,0.515,0.481,-0.732,-0.61,0.122,1
4.901348,0.744,0.513,0.474,-0.61,-0.732,0.305,1
4.908423,0.743,0.516,0.468,0.061,-0.793,0.0,1
4.917339,0.744,0.515,0.472,0.305,-1.159,0.122,1
4.925057,0.741,0.518,0.476,0.183,-0.793,0.0,1
4.93212,0.742,0.514,0.473,0.061,-0.976,0.122,1
4.940136,0.742,0.518,0.468,-0.122,-1.037,0.0,1
4.947494,0.743,0.517,0.472,-0.549,-1.098,0.0,1
4.955952,0.743,0.515,0.472,-0.732,-0.793,-0.061,1
4.964572,0.747,0.515,0.476,-0.305,-1.037,-0.122,1
4.971438,0.74,0.513,0.472,0.122,-1.098,-0.244,1
4.980661,0.738,0.509,0.472,0.244,-1.159,-0.244,1
4.988498,0.739,0.507,0.466,0.549,-1.098,-0.366,1
4.996997,0.743,0.507,0.466,0.732,-1.22,0.061,1
5.004723,0.75,0.503,0.458,0.976,-1.037,-0.061,1
5.012071,0.747,0.505,0.454,0.671,-1.586,-0.061,1
5.019244,0.747,0.5,0.456,0.427,-1.525,-0.122,1
5.0287,0.745,0.501,0.456,0.793,-1.892,0.183,1
5.035227,0.745,0.501,0.455,1.647,-2.075,0.244,1
5.043128,0.741,0.5,0.454,2.38,-2.319,0.183,1
5.050949,0.741,0.499,0.453,1.22,-2.502,0.183,1
5.06014,0.735,0.5,0.457,1.281,-2.38,0.244,1
5.067115,0.733,0.499,0.455,1.464,-2.502,0.671,1
5.074905,0.736,0.495,0.45,0.915,-2.624,0.549,1
5.084143,0.737,0.493,0.447,0.793,-2.807,0.61,1
5.091382,0.743,0.488,0.437,1.586,-2.807,0.549,1
5.100012,0.742,0.487,0.429,2.624,-3.234,0.732,1
5.108257,0.749,0.479,0.419,3.601,-3.601,0.854,1
5.115015,0.747,0.473,0.411,3.784,-4.028,1.037,1
5.124248,0.749,0.469,0.404,3.662,-4.577,1.098,1
5.131692,0.745,0.464,0.389,3.784,-5.065,1.403,1
5.138778,0.747,0.461,0.385,4.028,-5.493,1.708,1
5.145673,0.745,0.455,0.377,4.577,-6.286,1.831,1
5.153676,0.748,0.45,0.369,3.601,-6.591,2.075,1
5.161842,0.748,0.448,0.364,2.197,-6.835,2.38,1
5.170306,0.756,0.441,0.369,0.61,-7.019,2.685,1
5.177239,0.766,0.437,0.354,-1.464,-7.751,3.112,1
5.185701,0.76,0.435,0.344,-2.197,-8.483,3.234,1
5.194569,0.757,0.434,0.337,-1.464,-9.155,3.784,1
5.202212,0.752,0.435,0.332,1.403,-10.498,4.15,1
5.209075,0.745,0.433,0.327,2.929,-11.657,4.577,1
5.21623,0.742,0.434,0.321,2.624,-12.634,5.371,1
5.224132,0.728,0.439,0.315,1.403,-13.671,5.859,1
5.23216,0.717,0.438,0.312,0.488,-15.441,6.347,1
5.239945,0.71,0.44,0.307,-0.122,-16.662,6.652,1
5.248645,0.704,0.436,0.308,0.671,-18.432,6.958,1
5.255503,0.687,0.428,0.321,1.159,-19.958,6.896,1
5.264016,0.678,0.421,0.33,0.915,-21.728,7.263,1
5.271889,0.665,0.416,0.347,0.488,-23.254,7.629,1
5.279897,0.657,0.406,0.369,-0.183,-24.414,8.3,1
5.288539,0.648,0.404,0.405,-1.464,-25.695,9.155,1
5.29737,0.636,0.404,0.423,-3.479,-26.184,9.643,1
5.304668,0.629,0.393,0.461,-4.333,-27.282,10.192,1
5.313301,0.62,0.383,0.479,-4.821,-27.587,10.62,1
5.320656,0.617,0.36,0.504,-5.859,-28.198,11.535,1
5.328761,0.613,0.341,0.526,-6.408,-28.808,12.207,1
5.335872,0.61,0.318,0.544,-6.042,-29.052,13.244,1
5.344103,0.6,0.294,0.566,-4.882,-29.724,14.465,1
5.35244,0.591,0.267,0.608,-3.662,-30.456,15.869,1
5.359526,0.585,0.24,0.661,-3.54,-30.273,17.456,1
5.368449,0.567,0.215,0.721,-4.638,-29.602,19.714,1
5.375574,0.532,0.199,0.777,-6.408,-28.442,21.545,1
5.384585,0.493,0.166,0.854,-8.972,-26.855,24.047,1
5.391778,0.481,0.118,0.918,-14.831,-24.414,27.343,1
5.399546,0.497,0.067,1.001,-19.226,-21.972,31.005,1
5.408971,0.479,0.025,1.114,-17.639,-19.165,34.545,1
5.416662,0.416,0.005,1.228,-8.483,-17.089,38.757,1
5.423715,0.378,-0.048,1.394,3.112,-15.258,42.907,1
5.431527,0.392,-0.113,1.577,16.174,-13.671,47.546,1
5.440382,0.344,-0.183,1.814,32.531,-8.972,53.649,1
5.447541,0.274,-0.243,2.074,44.738,-3.54,59.997,1
5.454539,0.202,-0.312,2.348,53.588,4.089,66.894,1
5.463844,0.153,-0.381,2.647,61.828,13.793,73.852,1
5.470896,0.105,-0.455,2.936,68.969,26.245,82.336,1
5.478687,-0.002,-0.554,3.252,68.664,42.541,93.017,1
5.487927,-0.062,-0.609,3.488,64.758,58.532,102.294,1
5.494483,-0.147,-0.635,3.711,66.345,75.805,112.487,1
5.503428,-0.24,-0.645,3.925,73.12,93.688,123.046,1
5.510646,-0.391,-0.639,4.069,78.002,115.783,135.803,1
5.518761,-0.55,-0.588,4.213,79.101,135.314,146.667,1
5.525916,-0.737,-0.51,4.31,83.251,156.372,157.531,1
5.534067,-0.958,-0.419,4.391,88.012,177.307,168.518,1
5.541683,-1.166,-0.296,4.463,89.599,203.674,180.725,1
5.549388,-1.404,-0.146,4.511,90.759,227.233,190.49,1
5.55722,-1.696,0.016,4.537,94.726,251.77,199.401,1
5.566044,-1.974,0.217,4.54,99.67,275.878,207.519,1
5.573165,-2.28,0.44,4.516,104.797,301.269,214.66,1
5.580891,-2.693,0.746,4.455,109.924,326.049,220.336,1
5.58919,-3.045,1.008,4.316,110.473,356.262,225.891,1
5.596,-3.414,1.333,4.125,113.098,381.103,229.858,1
5.604352,-3.78,1.709,3.809,119.873,403.076,232.849,1
5.61148,-4.104,2.099,3.476,118.469,421.752,232.849,1
5.620085,-4.36,2.49,3.115,116.821,438.781,230.224,1
5.627066,-4.557,2.822,2.715,114.074,452.392,224.731,1
5.634704,-4.666,3.061,2.31,108.581,464.294,217.224,1
5.642089,-4.731,3.243,1.915,99.426,474.609,208.923,1
5.651329,-4.79,3.458,1.393,89.416,482.482,197.998,1
5.658631,-4.724,3.559,0.947,78.674,488.708,182.739,1
5.666697,-4.666,3.656,0.529,74.951,492.004,169.616,1
5.674768,-4.623,3.713,0.065,76.538,490.722,155.09,1
5.68148,-4.541,3.885,-0.349,87.707,488.952,139.648,1
5.690679,-4.399,4.062,-0.915,98.205,482.604,123.046,1
5.697785,-4.238,4.145,-1.317,97.351,471.313,102.05,1
5.706791,-4.054,4.16,-1.646,91.247,460.754,83.984,1
5.713488,-3.758,4.163,-1.964,85.754,448.547,65.49,1
5.721057,-3.473,4.076,-2.178,72.448,430.969,43.762,1
5.729373,-3.244,3.899,-2.261,66.711,416.87,25.939,1
5.736819,-2.936,3.671,-2.362,63.659,403.564,12.145,1
5.74641,-2.733,3.511,-2.512,48.339,387.329,-2.99,1
5.753636,-2.51,3.313,-2.642,36.071,372.802,-17.456,1
5.761791,-2.22,3.072,-2.835,22.766,351.867,-33.691,1
5.769748,-2.028,2.843,-2.905,23.864,332.702,-46.142,1
5.778118,-1.794,2.526,-2.956,35.217,308.41,-58.227,1
5.785982,-1.562,2.222,-2.964,43.518,287.963,-65.002,1
5.793736,-1.3,1.885,-2.922,40.283,265.686,-70.434,1
5.802102,-1.149,1.662,-2.847,30.578,248.107,-73.425,1
5.810314,-0.958,1.449,-2.781,21.728,228.515,-75.988,1
5.818114,-0.785,1.272,-2.752,20.263,211.791,-77.575,1
5.82613,-0.643,1.118,-2.772,22.766,191.711,-78.186,1
5.834743,-0.521,0.976,-2.781,21.118,174.316,-78.125,1
5.84252,-0.422,0.855,-2.739,21.789,156.555,-77.514,1
5.850031,-0.317,0.727,-2.65,27.954,136.596,-75.744,1
5.859203,-0.221,0.618,-2.552,33.325,120.178,-73.73,1
5.866263,-0.122,0.518,-2.452,33.691,105.407,-71.166,1
5.875256,-0.039,0.437,-2.347,30.395,91.43,-68.359,1
5.882327,0.026,0.373,-2.208,27.343,76.232,-64.636,1
5.889906,0.079,0.323,-2.096,26.306,64.208,-61.401,1
5.89749,0.136,0.294,-1.957,27.709,52.795,-57.556,1
5.906731,0.184,0.281,-1.806,31.555,42.785,-53.588,1
5.913839,0.225,0.274,-1.71,30.456,32.043,-48.95,1
5.922636,0.246,0.288,-1.601,25.817,23.681,-44.86,1
5.93066,0.278,0.323,-1.468,23.437,16.052,-40.954,1
5.938651,0.302,0.353,-1.352,26.062,7.446,-36.865,1
5.947611,0.32,0.365,-1.248,29.785,0.915,-33.386,1
5.954967,0.344,0.39,-1.137,31.982,-5.798,-29.357,1
5.962216,0.365,0.417,-1.032,30.334,-10.864,-26.123,1
5.971102,0.384,0.457,-0.92,27.404,-14.831,-22.827,1
5.97791,0.396,0.52,-0.796,25.085,-18.676,-19.653,1
5.986138,0.401,0.571,-0.702,23.498,-20.446,-17.395,1
5.994738,0.427,0.608,-0.646,19.287,-21.545,-15.563,1
6.003142,0.453,0.665,-0.584,15.136,-22.766,-14.038,1
6.011699,0.467,0.706,-0.532,17.272,-24.047,-12.817,1
6.018533,0.496,0.725,-0.481,20.568,-25.146,-12.207,1
6.027315,0.526,0.733,-0.424,21.118,-25.39,-11.474,1
6.034542,0.559,0.737,-0.356,17.944,-24.536,-10.925,1
6.043814,0.587,0.744,-0.31,10.864,-22.888,-10.559,1
6.051792,0.604,0.758,-0.267,4.211,-20.996,-9.765,1
6.05942,0.622,0.788,-0.202,0.122,-18.798,-9.704,1
6.068802,0.638,0.82,-0.147,0.793,-16.967,-9.765,1
6.075717,0.648,0.829,-0.127,-0.305,-13.977,-9.887,1
6.085085,0.66,0.843,-0.122,-4.882,-11.108,-10.559,1
6.092623,0.66,0.856,-0.111,-9.521,-7.751,-11.108,1
6.100607,0.667,0.869,-0.115,-7.995,-5.554,-11.718,1
6.109553,0.664,0.863,-0.133,-4.455,-3.723,-12.451,1
6.118301,0.655,0.858,-0.142,-2.685,-2.075,-13.183,1
6.125154,0.655,0.855,-0.144,-1.708,-0.366,-13.916,1
6.132489,0.65,0.851,-0.148,-3.112,1.708,-14.587,1
6.142152,0.648,0.845,-0.161,-6.591,3.356,-15.563,1
6.148874,0.631,0.839,-0.176,-9.155,5.004,-16.479,1
6.157654,0.627,0.829,-0.198,-9.399,6.103,-17.456,1
6.164632,0.625,0.806,-0.228,-9.277,6.896,-18.371,1
6.173625,0.612,0.777,-0.268,-10.681,7.812,-19.287,1
6.180887,0.614,0.753,-0.305,-12.756,8.056,-19.775,1
6.18935,0.611,0.726,-0.341,-13.732,7.873,-20.141,1
6.198354,0.61,0.707,-0.364,-13.183,6.652,-20.202,1
6.204757,0.599,0.686,-0.385,-12.207,5.371,-19.714,1
6.213232,0.6,0.674,-0.395,-10.925,3.906,-19.409,1
6.220278,0.608,0.66,-0.392,-8.911,2.441,-19.042,1
6.228689,0.623,0.644,-0.382,-7.751,0.549,-18.31,1
6.237431,0.634,0.632,-0.371,-7.629,-0.671,-17.456,1
6.246088,0.646,0.618,-0.35,-8.239,-1.953,-16.54,1
6.252774,0.649,0.611,-0.335,-9.765,-2.807,-15.686,1
6.262523,0.659,0.6,-0.315,-10.62,-3.601,-15.014,1
6.270328,0.665,0.593,-0.302,-9.887,-4.333,-13.793,1
6.277701,0.664,0.584,-0.279,-8.728,-5.432,-12.695,1
6.287312,0.661,0.576,-0.258,-8.178,-5.432,-11.84,1
6.294942,0.655,0.565,-0.239,-8.3,-5.31,-11.108,1
6.302908,0.65,0.554,-0.222,-8.3,-5.065,-10.131,1
6.311107,0.647,0.544,-0.208,-7.812,-4.516,-9.338,1
6.317957,0.648,0.526,-0.189,-7.324,-4.211,-7.934,1
6.326043,0.653,0.513,-0.172,-6.713,-3.601,-6.652,1
6.334624,0.653,0.517,-0.16,-4.943,-2.99,-5.432,1
6.342575,0.658,0.518,-0.137,-3.723,-2.136,-3.906,1
6.351529,0.656,0.534,-0.136,-3.662,-0.732,-2.319,1
6.35756,0.658,0.546,-0.147,-6.103,0.305,-1.464,1
6.366427,0.651,0.568,-0.155,-7.751,1.342,-0.488,1
6.372797,0.652,0.585,-0.173,-7.69,1.953,0.122,1
6.38243,0.653,0.595,-0.183,-7.08,2.258,0.854,1
6.388897,0.652,0.591,-0.198,-7.263,2.502,1.586,1
6.397815,0.653,0.589,-0.206,-8.361,2.99,2.38,1
6.405262,0.652,0.587,-0.208,-8.666,3.417,3.112,1
6.414079,0.654,0.598,-0.198,-6.286,3.479,4.028,1
6.420828,0.662,0.606,-0.194,-2.868,3.417,5.249,1
6.429436,0.668,0.621,-0.193,0.122,3.479,5.981,1
6.436465,0.672,0.632,-0.194,0.061,4.333,6.835,1
6.44525,0.664,0.663,-0.2,-2.441,4.821,7.019,1
6.452905,0.66,0.685,-0.208,-5.798,5.737,7.324,1
6.459684,0.66,0.702,-0.223,-7.019,6.347,7.568,1
6.468927,0.653,0.715,-0.231,-7.507,6.896,7.141,1
6.476031,0.65,0.72,-0.25,-7.812,7.08,7.019,1
6.485264,0.649,0.72,-0.272,-8.728,7.08,6.774,1
6.492452,0.654,0.722,-0.288,-9.399,7.019,6.408,1
6.499987,0.653,0.735,-0.293,-7.08,6.713,5.798,1
6.509452,0.658,0.739,-0.297,-3.601,5.981,5.737,1
6.516743,0.668,0.729,-0.305,-1.77,5.798,5.676,1
6.525248,0.67,0.727,-0.308,-1.77,5.615,5.31,1
6.532343,0.67,0.729,-0.313,-3.173,5.798,5.371,1
6.540362,0.669,0.731,-0.317,-4.15,5.798,5.126,1
6.547645,0.668,0.738,-0.335,-5.371,5.615,5.065,1
6.555395,0.664,0.746,-0.341,-6.591,5.554,4.943,1
6.564654,0.657,0.752,-0.347,-7.812,5.432,5.065,1
6.571497,0.655,0.762,-0.354,-7.69,4.821,4.882,1
6.580343,0.65,0.775,-0.358,-8.3,4.272,4.577,1
6.588316,0.647,0.785,-0.364,-8.789,3.967,3.906,1
6.59569,0.639,0.792,-0.368,-9.277,3.723,3.601,1
6.604579,0.631,0.788,-0.376,-10.192,3.173,2.502,1
6.612028,0.624,0.795,-0.375,-10.131,2.38,2.319,1
6.6197,0.622,0.794,-0.378,-9.033,1.77,1.708,1
6.627881,0.627,0.791,-0.378,-7.019,1.22,1.22,1
6.63496,0.624,0.788,-0.39,-5.859,0.61,0.915,1
6.643792,0.626,0.781,-0.407,-6.225,0.183,0.061,1
6.650832,0.622,0.784,-0.416,-7.568,-0.366,-0.305,1
6.660186,0.627,0.788,-0.418,-8.544,-1.22,-0.488,1
6.667657,0.628,0.795,-0.405,-7.751,-2.502,-0.976,1
6.676746,0.629,0.795,-0.396,-7.629,-3.234,-1.708,1
6.68424,0.63,0.781,-0.394,-9.277,-3.784,-2.38,1
6.693855,0.626,0.781,-0.379,-10.803,-4.089,-2.868,1
6.700605,0.624,0.777,-0.375,-12.084,-4.272,-3.601,1
6.709599,0.63,0.77,-0.367,-12.512,-4.638,-3.967,1
6.716422,0.631,0.763,-0.371,-13.671,-4.699,-4.272,1
6.725695,0.631,0.764,-0.372,-14.526,-5.004,-4.455,1
6.732646,0.634,0.749,-0.364,-14.404,-5.493,-4.638,1
6.740996,0.64,0.744,-0.359,-13.793,-5.798,-4.943,1
6.749353,0.645,0.733,-0.346,-13.549,-6.225,-5.004,1
6.757998,0.648,0.729,-0.34,-14.953,-6.042,-5.31,1
6.76462,0.649,0.726,-0.333,-16.296,-6.347,-5.31,1
6.772608,0.647,0.727,-0.325,-17.028,-6.347,-5.615,1
6.782176,0.647,0.732,-0.315,-15.38,-6.469,-5.615,1
6.791132,0.647,0.734,-0.303,-13.977,-6.774,-5.859,1
6.798081,0.648,0.731,-0.287,-12.39,-6.774,-5.92,1
6.805935,0.649,0.732,-0.274,-11.169,-6.53,-6.164,1
6.813509,0.643,0.729,-0.261,-9.582,-6.164,-6.225,1
6.821973,0.655,0.718,-0.257,-8.422,-5.859,-6.469,1
6.830615,0.652,0.704,-0.241,-6.835,-5.371,-6.469,1
6.839736,0.657,0.689,-0.235,-6.958,-4.577,-6.53,1
6.847954,0.658,0.677,-0.236,-10.559,-3.662,-6.286,1
6.857243,0.659,0.676,-0.23,-13.244,-2.868,-6.225,1
6.864682,0.653,0.679,-0.229,-14.038,-2.258,-5.676,1
6.871992,0.659,0.679,-0.237,-13.549,-1.342,-5.432,1
6.879727,0.656,0.671,-0.244,-14.038,-1.037,-5.249,1
6.887539,0.654,0.67,-0.251,-14.465,-0.732,-5.31,1
6.896791,0.647,0.669,-0.254,-13.977,-0.305,-4.943,1
6.904517,0.642,0.664,-0.254,-12.451,0.061,-4.76,1
6.91332,0.653,0.647,-0.252,-9.826,0.244,-4.699,1
6.92078,0.652,0.633,-0.254,-7.202,0.244,-4.272,1
6.929999,0.657,0.635,-0.249,-2.929,0.427,-3.784,1
6.937562,0.655,0.63,-0.25,1.647,0.61,-3.417,1
6.945012,0.658,0.625,-0.261,5.859,1.037,-2.99,1
6.95368,0.662,0.618,-0.27,6.164,1.281,-2.624,1
6.961621,0.665,0.615,-0.28,2.685,2.38,-1.953,1
6.969412,0.665,0.611,-0.297,-2.258,3.112,-1.647,1
6.977044,0.659,0.61,-0.308,-6.835,3.417,-1.281,1
6.986319,0.666,0.614,-0.317,-8.972,3.54,-0.61,1
6.993672,0.671,0.615,-0.321,-9.46,3.723,-0.183,1
7.001641,0.668,0.618,-0.325,-8.85,3.54,0.183,1
7.009233,0.675,0.631,-0.334,-6.835,3.173,0.671,1
7.018194,0.685,0.64,-0.354,-3.784,2.685,1.098,1
7.025153,0.697,0.653,-0.364,-0.793,2.136,1.159,1
7.033336,0.703,0.657,-0.377,2.136,1.525,1.403,1
7.04075,0.701,0.661,-0.383,4.333,1.098,1.586,1
7.048322,0.699,0.668,-0.384,4.394,0.671,1.708,1
7.05793,0.697,0.673,-0.385,2.502,0.244,1.525,1
7.06489,0.693,0.681,-0.382,0.427,0.183,1.647,1
7.072497,0.688,0.694,-0.379,-0.671,0.244,1.281,1
7.081948,0.685,0.701,-0.389,-0.488,-0.427,1.342,1
7.089384,0.675,0.704,-0.387,0.061,-0.976,1.159,1
7.096432,0.68,0.708,-0.386,-0.61,-1.281,0.915,1
7.105526,0.671,0.723,-0.383,-0.061,-1.77,0.732,1
7.112022,0.666,0.728,-0.378,0.671,-2.258,0.366,1
7.120389,0.668,0.728,-0.376,0.549,-2.624,-0.183,1
7.129411,0.67,0.725,-0.371,0.183,-2.99,-0.488,1
7.136663,0.664,0.722,-0.359,0.732,-3.112,-0.854,1
7.145477,0.662,0.711,-0.347,2.319,-3.356,-1.159,1
7.153688,0.665,0.699,-0.337,2.746,-3.417,-1.403,1
7.160651,0.661,0.695,-0.33,2.99,-3.479,-1.22,1
7.170003,0.655,0.698,-0.324,3.173,-3.479,-1.403,1
7.177627,0.657,0.695,-0.325,2.99,-3.479,-1.22,1
7.185001,0.651,0.694,-0.322,2.258,-3.234,-1.586,1
7.192691,0.65,0.69,-0.33,1.708,-3.234,-1.586,1
7.20201,0.655,0.689,-0.322,1.342,-3.356,-1.708,1
7.208003,0.654,0.683,-0.309,0.671,-3.356,-1.464,1
7.216187,0.658,0.665,-0.299,-0.671,-2.929,-1.525,1
7.224729,0.661,0.654,-0.286,-1.892,-2.868,-1.22,1
7.233692,0.666,0.655,-0.276,-1.464,-2.624,-0.793,1
7.240292,0.664,0.655,-0.273,0.305,-2.319,-0.549,1
7.249007,0.664,0.651,-0.273,1.098,-2.014,-0.122,1
7.257499,0.657,0.648,-0.272,0.427,-1.403,0.061,1
7.26489,0.654,0.647,-0.283,-0.488,-0.976,0.549,1
7.2726,0.651,0.652,-0.286,-1.647,-0.61,0.732,1
7.282616,0.649,0.647,-0.289,-2.258,-0.244,0.854,1
7.289335,0.651,0.645,-0.291,-2.929,0.0,1.22,1
7.296915,0.652,0.65,-0.29,-2.502,0.122,1.586,1
7.304979,0.657,0.656,-0.295,-1.464,0.183,1.647,1
7.313108,0.657,0.658,-0.298,-0.305,0.183,1.892,1
7.320062,0.657,0.66,-0.303,0.732,0.305,2.197,1
7.329313,0.66,0.662,-0.297,1.22,0.61,2.075,1
7.335579,0.663,0.663,-0.303,1.525,0.549,2.502,1
7.344771,0.652,0.66,-0.303,1.037,0.854,2.685,1
7.35159,0.657,0.664,-0.303,0.366,0.915,2.807,1
7.360022,0.655,0.669,-0.298,0.122,1.159,3.173,1
7.366832,0.653,0.672,-0.301,0.61,1.403,3.234,1
7.376039,0.66,0.679,-0.309,0.793,1.708,3.662,1
7.382563,0.661,0.686,-0.313,0.427,2.014,3.601,1
7.389687,0.658,0.692,-0.322,0.0,1.831,3.662,1
7.397181,0.665,0.7,-0.328,-1.098,2.014,3.601,1
7.405699,0.664,0.707,-0.336,-1.892,1.831,3.479,1
7.412943,0.661,0.705,-0.337,-2.319,1.647,3.234,1
7.419357,0.666,0.708,-0.34,-2.075,1.586,2.929,1
7.427985,0.666,0.706,-0.341,-0.854,1.098,3.051,1
7.434896,0.663,0.712,-0.333,0.671,1.22,3.051,1
7.442082,0.658,0.716,-0.334,2.136,0.976,2.685,1
7.449064,0.662,0.722,-0.333,3.051,0.671,2.624,1
7.457753,0.66,0.728,-0.336,3.54,0.671,2.258,1
7.465187,0.654,0.735,-0.342,3.173,0.488,2.319,1
7.472984,0.659,0.737,-0.342,2.929,0.793,1.831,1
7.480769,0.659,0.737,-0.354,1.953,0.488,1.647,1
7.488436,0.664,0.73,-0.361,0.122,0.61,0.976,1
7.496075,0.66,0.732,-0.361,-1.159,0.122,0.671,1
7.505531,0.657,0.732,-0.354,-1.037,0.0,0.305,1
7.512386,0.659,0.736,-0.354,-0.061,-0.488,0.122,1
7.521859,0.656,0.735,-0.352,1.403,-0.61,-0.366,1
7.528482,0.653,0.737,-0.353,2.502,-0.915,-0.61,1
7.537793,0.655,0.732,-0.347,2.99,-0.793,-0.854,1
7.544898,0.657,0.73,-0.341,2.807,-1.281,-1.342,1
7.553927,0.663,0.722,-0.333,3.173,-1.037,-1.647,1
7.5609,0.663,0.713,-0.328,2.807,-1.22,-1.831,1
7.568647,0.665,0.703,-0.319,1.892,-1.159,-1.953,1
7.576551,0.665,0.701,-0.317,0.793,-0.793,-2.014,1
7.586128,0.665,0.696,-0.315,0.061,-0.671,-1.831,1
7.593768,0.666,0.693,-0.32,-0.976,-0.671,-1.77,1
7.602252,0.656,0.694,-0.324,-1.281,-0.427,-2.075,1
7.609966,0.656,0.695,-0.324,-1.525,-0.427,-1.953,1
7.61762,0.657,0.685,-0.323,-1.525,-0.671,-2.014,1
7.627148,0.655,0.678,-0.322,-1.403,-0.732,-1.892,1
7.634329,0.656,0.669,-0.314,-0.61,-0.793,-1.953,1
7.642722,0.654,0.666,-0.304,0.976,-0.671,-1.77,1
7.651741,0.66,0.664,-0.3,2.075,-0.61,-1.464,1
7.658706,0.659,0.661,-0.293,3.356,-0.549,-1.403,1
7.667952,0.657,0.654,-0.286,3.662,-0.366,-1.281,1
7.675058,0.658,0.652,-0.289,3.54,0.0,-1.037,1
7.68395,0.659,0.646,-0.285,1.953,0.305,-0.854,1
7.690987,0.655,0.642,-0.291,-0.305,0.488,-0.732,1
7.69999,0.651,0.631,-0.291,-3.051,0.732,-0.61,1
7.707261,0.655,0.625,-0.29,-3.784,0.915,-0.427,1
7.71647,0.645,0.625,-0.28,-2.197,0.854,0.366,1
7.723489,0.645,0.629,-0.274,0.366,0.61,0.854,1
7.732037,0.647,0.631,-0.274,3.356,1.037,1.098,1
7.739295,0.647,0.631,-0.277,6.469,1.464,1.525,1
7.747277,0.653,0.629,-0.277,8.361,2.014,1.892,1
7.754668,0.649,0.632,-0.29,8.728,2.319,2.38,1
7.763817,0.663,0.633,-0.307,7.934,2.807,2.929,1
7.770766,0.672,0.635,-0.318,6.286,3.112,3.356,1
7.778791,0.677,0.655,-0.329,5.126,3.051,4.028,1
7.787566,0.669,0.679,-0.338,5.92,2.807,4.516,1
7.793827,0.677,0.695,-0.335,6.835,2.563,4.394,1
7.80323,0.676,0.711,-0.336,6.53,2.014,4.394,1
7.810182,0.668,0.728,-0.337,5.126,2.075,4.272,1
7.817182,0.657,0.733,-0.339,3.112,1.708,4.15,1
7.825282,0.652,0.742,-0.339,1.159,2.258,3.601,1
7.832474,0.643,0.75,-0.342,0.488,1.77,3.173,1
7.841721,0.641,0.75,-0.334,0.488,1.831,2.563,1
7.848507,0.643,0.758,-0.336,1.77,1.647,2.258,1
7.856111,0.643,0.76,-0.333,3.479,1.525,1.831,1
7.863603,0.645,0.765,-0.327,5.187,1.281,1.22,1
7.872278,0.641,0.766,-0.323,6.286,1.098,0.854,1
7.879269,0.642,0.765,-0.328,6.286,1.464,0.305,1
7.886873,0.646,0.758,-0.327,5.249,1.464,0.122,1
7.89463,0.65,0.753,-0.325,4.333,1.647,-0.488,1
7.903512,0.654,0.754,-0.328,3.356,1.77,-0.976,1
7.910142,0.658,0.749,-0.323,2.746,1.708,-1.464,1
7.918225,0.659,0.742,-0.33,2.258,1.525,-1.708,1
7.926297,0.662,0.731,-0.333,1.525,1.708,-1.892,1
7.933054,0.664,0.732,-0.334,0.671,1.525,-2.258,1
7.941002,0.662,0.724,-0.337,0.549,1.586,-2.563,1
7.9482,0.66,0.717,-0.338,0.183,1.342,-2.563,1
7.957482,0.66,0.714,-0.343,0.488,1.037,-2.685,1
7.965709,0.659,0.704,-0.346,0.976,0.854,-2.868,1
7.971577,0.66,0.694,-0.343,1.892,0.488,-2.929,1
7.980477,0.662,0.684,-0.344,2.014,0.305,-2.929,1
7.988152,0.663,0.67,-0.346,1.77,0.244,-2.929,1
7.995644,0.661,0.657,-0.34,1.831,0.122,-2.563,1
8.004727,0.656,0.65,-0.331,1.647,0.0,-2.197,1
8.011816,0.657,0.649,-0.324,1.831,-0.305,-1.525,1
8.020933,0.651,0.655,-0.321,1.22,-0.305,-1.586,1
8.027995,0.643,0.651,-0.316,-0.122,-0.122,-1.098,1
8.037618,0.644,0.656,-0.312,-1.525,-0.061,-0.854,1
8.044825,0.643,0.65,-0.311,-1.77,-0.061,-0.61,1
8.052391,0.638,0.648,-0.302,-0.671,-0.061,-0.183,1
8.060003,0.639,0.646,-0.303,1.22,-0.061,0.244,1
8.068216,0.638,0.646,-0.298,3.051,-0.061,0.793,1
8.075922,0.641,0.651,-0.297,4.577,0.122,1.098,1
8.084772,0.645,0.654,-0.299,5.187,0.305,1.159,1
8.09207,0.648,0.655,-0.295,5.187,0.183,1.586,1
8.099823,0.653,0.647,-0.294,3.784,0.427,1.77,1
8.107529,0.654,0.649,-0.303,1.464,0.488,1.953,1
8.115362,0.653,0.645,-0.295,-0.183,0.305,2.014,1
8.123056,0.652,0.635,-0.291,-1.22,0.61,2.319,1
8.132242,0.66,0.632,-0.281,-1.159,0.854,2.929,1
8.139579,0.66,0.639,-0.275,-0.305,0.854,3.417,1
8.147356,0.664,0.642,-0.269,0.915,1.464,3.845,1
8.155085,0.668,0.643,-0.269,1.647,1.586,4.455,1
8.164497,0.667,0.646,-0.262,2.258,2.014,4.821,1
8.1713,0.658,0.655,-0.264,3.479,2.441,5.126,1
8.179125,0.654,0.662,-0.264,4.577,3.112,5.31,1
8.186603,0.648,0.664,-0.273,5.493,3.54,5.615,1
8.195803,0.648,0.675,-0.277,7.385,3.784,6.164,1
8.20255,0.648,0.683,-0.283,9.216,3.845,6.469,1
8.210041,0.653,0.69,-0.289,9.643,4.272,6.53,1
8.218446,0.651,0.702,-0.291,8.3,4.699,6.53,1
8.225064,0.643,0.71,-0.291,6.286,4.943,6.652,1
8.232891,0.643,0.716,-0.291,4.394,5.31,6.835,1
8.240835,0.638,0.722,-0.292,2.807,5.737,6.896,1
8.247936,0.64,0.733,-0.294,1.953,6.347,7.141,1
8.25556,0.64,0.751,-0.3,0.671,6.896,6.958,1
8.26433,0.63,0.773,-0.31,-0.671,7.69,7.202,1
8.273641,0.625,0.791,-0.329,-2.319,8.239,7.08,1
8.28103,0.62,0.801,-0.346,-3.784,8.789,6.713,1
8.288046,0.604,0.808,-0.367,-5.493,9.277,6.408,1
8.296294,0.593,0.814,-0.391,-7.324,9.704,5.615,1
8.303149,0.588,0.816,-0.424,-7.507,10.437,5.004,1
8.311145,0.579,0.816,-0.462,-6.164,10.192,4.455,1
8.319326,0.571,0.814,-0.495,-3.295,9.948,3.723,1
8.32709,0.556,0.802,-0.539,0.183,9.46,2.99,1
8.336626,0.535,0.793,-0.588,3.967,8.789,2.746,1
8.344199,0.505,0.765,-0.66,8.789,7.385,2.563,1
8.350939,0.494,0.736,-0.725,12.023,5.187,2.685,1
8.359708,0.489,0.707,-0.78,10.009,3.479,2.99,1
8.366883,0.483,0.68,-0.835,4.821,1.586,3.112,1
8.375923,0.492,0.653,-0.898,-3.662,-0.244,4.028,1
8.383466,0.493,0.638,-0.948,-15.075,-2.746,5.004,1
8.391773,0.486,0.631,-0.996,-23.742,-5.371,5.615,1
8.399959,0.48,0.622,-1.037,-31.005,-8.361,6.652,1
8.407267,0.475,0.609,-1.076,-35.583,-12.573,7.934,1
8.416202,0.468,0.596,-1.104,-36.376,-16.662,9.094,1
8.42359,0.464,0.579,-1.137,-32.775,-22.338,11.108,1
8.431189,0.465,0.563,-1.162,-29.357,-26.977,12.573,1
8.439612,0.453,0.563,-1.18,-25.207,-32.531,14.465,1
8.447478,0.453,0.554,-1.202,-24.047,-38.146,16.601,1
8.45535,0.448,0.565,-1.213,-26.916,-42.724,18.676,1
8.463139,0.434,0.574,-1.197,-31.311,-47.607,20.874,1
8.472017,0.429,0.577,-1.191,-39.55,-51.879,23.376,1
8.479905,0.418,0.583,-1.187,-49.682,-55.969,25.817,1
8.487079,0.401,0.591,-1.176,-60.241,-59.692,28.198,1
8.495184,0.38,0.599,-1.163,-67.138,-64.27,30.639,1
8.503916,0.349,0.604,-1.157,-68.786,-69.885,33.508,1
8.513353,0.311,0.621,-1.148,-65.368,-76.293,36.071,1
8.52036,0.291,0.635,-1.14,-56.884,-82.153,38.208,1
8.529135,0.274,0.629,-1.127,-49.072,-89.843,39.611,1
8.537745,0.259,0.618,-1.11,-47.729,-95.214,41.32,1
8.544389,0.238,0.608,-1.091,-52.429,-100.769,42.602,1
8.553591,0.217,0.597,-1.052,-60.485,-106.201,44.006,1
8.560448,0.189,0.578,-1.018,-67.016,-110.656,45.41,1
8.567966,0.172,0.574,-0.956,-71.838,-114.807,47.546,1
8.57789,0.145,0.588,-0.922,-72.326,-119.384,50.415,1
8.585382,0.12,0.604,-0.894,-69.458,-124.145,52.612,1
8.594515,0.096,0.605,-0.865,-65.124,-129.211,55.358,1
8.601958,0.074,0.605,-0.842,-62.499,-133.544,57.8,1
8.610083,0.041,0.604,-0.815,-61.828,-138.183,60.485,1
8.617416,0.022,0.611,-0.777,-62.255,-141.845,62.622,1
8.625974,0.015,0.636,-0.744,-62.866,-144.592,65.002,1
8.634702,-0.011,0.681,-0.721,-62.866,-148.62,67.871,1
8.641546,-0.012,0.73,-0.7,-63.598,-151.733,69.763,1
8.65007,-0.046,0.788,-0.671,-64.941,-155.151,71.96,1
8.658642,-0.058,0.832,-0.653,-64.88,-158.264,73.425,1
8.666062,-0.078,0.869,-0.619,-66.955,-161.56,74.523,1
8.675117,-0.103,0.913,-0.587,-70.739,-163.757,75.744,1
8.682731,-0.126,0.996,-0.537,-75.439,-166.015,76.599,1
8.69196,-0.139,1.062,-0.489,-76.293,-168.334,77.026,1
8.699634,-0.155,1.131,-0.447,-72.387,-170.654,76.538,1
8.708127,-0.125,1.197,-0.393,-65.429,-173.339,74.829,1
8.716262,-0.107,1.245,-0.324,-58.837,-174.682,72.509,1
8.725339,-0.097,1.3,-0.258,-53.466,-175.415,69.519,1
8.733356,-0.084,1.334,-0.182,-49.072,-175.476,65.734,1
8.74101,-0.062,1.394,-0.117,-46.447,-174.804,61.767,1
8.747978,-0.044,1.435,-0.079,-45.043,-174.072,57.617,1
8.756858,-0.033,1.494,-0.033,-45.654,-173.278,53.894,1
8.764773,-0.022,1.556,0.013,-48.767,-171.997,49.011,1
8.772453,0.02,1.592,0.05,-52.795,-170.471,44.494,1
8.78134,0.046,1.618,0.07,-58.044,-168.945,39.855,1
8.788707,0.061,1.62,0.093,-62.316,-167.358,35.339,1
8.796798,0.094,1.624,0.121,-62.988,-165.649,30.517,1
8.804391,0.116,1.621,0.149,-57.861,-164.489,26.0,1
8.8124,0.129,1.611,0.168,-48.583,-163.574,22.216,1
8.819462,0.122,1.591,0.187,-39.367,-162.658,18.005,1
8.828004,0.145,1.553,0.194,-33.874,-161.437,14.221,1
8.835654,0.148,1.532,0.223,-31.616,-160.217,10.192,1
8.843061,0.136,1.505,0.263,-31.188,-158.02,7.08,1
8.852073,0.131,1.481,0.277,-33.081,-155.7,3.845,1
8.858959,0.145,1.437,0.279,-39.062,-152.404,0.122,1
8.868433,0.147,1.402,0.275,-44.494,-150.024,-2.685,1
8.876092,0.155,1.368,0.281,-46.874,-148.132,-5.065,1
8.883516,0.152,1.328,0.273,-46.813,-145.629,-8.056,1
8.892229,0.155,1.281,0.276,-45.837,-144.836,-9.826,1
8.900714,0.164,1.241,0.297,-44.372,-143.31,-12.084,1
8.908837,0.159,1.229,0.33,-43.334,-142.333,-13.61,1
8.91715,0.139,1.232,0.386,-39.367,-140.869,-15.502,1
8.924761,0.146,1.224,0.428,-33.752,-139.099,-16.967,1
8.934037,0.152,1.199,0.454,-30.578,-137.023,-18.981,1
8.941471,0.175,1.176,0.477,-29.724,-134.277,-21.057,1
8.949345,0.197,1.145,0.485,-30.7,-131.469,-23.01,1
8.957735,0.224,1.12,0.494,-32.165,-129.089,-24.536,1
8.965636,0.257,1.094,0.51,-33.813,-126.953,-26.0,1
8.972928,0.281,1.072,0.53,-34.301,-124.511,-27.709,1
8.981749,0.3,1.045,0.552,-34.545,-122.009,-28.869,1
8.989004,0.314,1.015,0.58,-34.24,-119.445,-30.151,1
8.996927,0.336,0.982,0.605,-33.264,-116.638,-30.883,1
9.005827,0.338,0.958,0.618,-33.081,-113.83,-31.86,1
9.013022,0.324,0.942,0.65,-31.616,-110.961,-32.226,1
9.022074,0.334,0.914,0.678,-28.93,-107.849,-32.897,1
9.029505,0.343,0.891,0.697,-28.198,-104.37,-33.447,1
9.038952,0.362,0.863,0.722,-27.465,-100.402,-33.63,1
9.046023,0.385,0.835,0.735,-26.184,-97.229,-33.813,1
9.055004,0.421,0.806,0.757,-23.925,-93.749,-33.63,1
9.062068,0.439,0.779,0.76,-24.23,-89.538,-33.569,1
9.07013,0.449,0.756,0.768,-24.291,-86.242,-33.081,1
9.079011,0.47,0.736,0.784,-23.681,-82.275,-32.897,1
9.08733,0.487,0.698,0.785,-23.803,-78.125,-32.165,1
9.094328,0.511,0.667,0.785,-25.146,-74.096,-31.555,1
9.102939,0.514,0.655,0.787,-26.916,-70.007,-30.029,1
9.110089,0.524,0.639,0.799,-26.489,-66.528,-29.113,1
9.118914,0.538,0.623,0.803,-24.108,-63.415,-28.259,1
9.126022,0.552,0.598,0.821,-20.202,-59.997,-27.038,1
9.134336,0.557,0.572,0.816,-18.798,-55.541,-25.878,1
9.143591,0.563,0.554,0.814,-20.08,-51.391,-24.353,1
9.151031,0.574,0.538,0.805,-23.254,-46.874,-22.583,1
9.159054,0.59,0.524,0.8,-24.719,-43.029,-21.057,1
9.166552,0.607,0.505,0.785,-25.451,-38.818,-18.92,1
9.175904,0.612,0.491,0.768,-25.329,-35.156,-17.089,1
9.18304,0.631,0.484,0.751,-24.78,-31.799,-15.014,1
9.191092,0.638,0.478,0.717,-23.62,-27.954,-12.634,1
9.198531,0.634,0.484,0.677,-22.216,-25.146,-10.559,1
9.207787,0.637,0.496,0.64,-20.385,-22.766,-8.85,1
9.216376,0.632,0.511,0.592,-17.822,-20.202,-6.774,1
9.222947,0.635,0.515,0.56,-17.456,-18.371,-5.371,1
9.230968,0.636,0.522,0.527,-17.761,-16.662,-3.906,1
9.238801,0.641,0.53,0.509,-17.211,-14.465,-2.258,1
9.248302,0.641,0.534,0.494,-15.808,-13.183,-1.098,1
9.25612,0.64,0.54,0.477,-15.441,-11.23,0.549,1
9.264569,0.641,0.551,0.456,-17.272,-9.46,1.831,1
9.271899,0.642,0.563,0.427,-19.104,-8.056,3.112,1
9.28,0.641,0.571,0.413,-19.531,-6.53,3.967,1
9.287246,0.632,0.579,0.392,-18.127,-5.493,5.126,1
9.294895,0.634,0.605,0.369,-15.747,-4.455,6.286,1
9.30268,0.64,0.625,0.343,-13.305,-3.662,7.141,1
9.310618,0.641,0.646,0.314,-12.329,-2.38,8.056,1
9.319218,0.641,0.664,0.287,-12.145,-1.77,8.728,1
9.326277,0.642,0.681,0.267,-10.742,-1.281,9.033,1
9.333896,0.648,0.688,0.245,-8.117,-1.281,9.338,1
9.342261,0.646,0.69,0.232,-6.286,-1.281,9.704,1
9.349418,0.644,0.696,0.218,-6.347,-0.854,9.948,1
9.358649,0.651,0.712,0.208,-8.056,-0.671,10.559,1
9.366116,0.65,0.733,0.198,-8.972,-0.488,10.498,1
9.373287,0.652,0.747,0.197,-7.507,-0.671,10.314,1
9.382393,0.645,0.757,0.194,-5.126,-1.037,10.314,1
9.389068,0.642,0.753,0.185,-3.662,-0.793,10.131,1
9.396659,0.645,0.755,0.175,-3.906,-0.793,10.131,1
9.403868,0.653,0.759,0.165,-4.394,-0.793,9.826,1
9.412794,0.66,0.771,0.161,-4.638,-0.854,9.765,1
9.421356,0.665,0.778,0.16,-4.15,-1.22,9.582,1
9.428373,0.667,0.778,0.162,-3.356,-1.525,9.521,1
9.43703,0.66,0.804,0.171,-2.258,-1.525,9.216,1
9.445471,0.654,0.826,0.179,0.244,-1.586,8.85,1
9.452368,0.662,0.837,0.178,2.502,-1.647,8.239,1
9.460856,0.664,0.834,0.175,3.356,-1.342,7.507,1
9.467202,0.666,0.838,0.173,1.892,-1.22,7.263,1
9.475115,0.664,0.84,0.169,-1.098,-0.793,6.53,1
9.483028,0.661,0.839,0.168,-4.333,-0.305,5.92,1
9.490007,0.667,0.844,0.169,-5.249,-0.122,5.31,1
9.498136,0.667,0.848,0.166,-4.577,-0.183,4.638,1
9.505623,0.662,0.844,0.163,-3.051,0.0,4.15,1
9.512454,0.663,0.84,0.159,-2.075,0.0,3.417,1
9.520878,0.654,0.834,0.158,-0.915,-0.305,3.173,1
9.527788,0.651,0.826,0.151,-1.037,-0.366,3.295,1
9.536277,0.652,0.831,0.144,-1.403,-0.061,2.807,1
9.544851,0.653,0.832,0.143,-1.342,-0.244,2.197,1
9.551638,0.654,0.835,0.139,-0.732,-0.671,2.014,1
9.559123,0.652,0.838,0.129,-0.061,-1.037,1.586,1
9.5664,0.655,0.839,0.125,0.549,-1.281,1.22,1
9.573993,0.65,0.844,0.114,0.366,-1.77,0.793,1
9.582974,0.647,0.843,0.113,-0.305,-2.258,0.305,1
9.591095,0.647,0.845,0.116,-0.122,-2.685,-0.488,1
9.599302,0.638,0.835,0.121,0.976,-3.295,-0.61,1
9.606532,0.637,0.83,0.13,1.281,-3.723,-1.098,1
9.614397,0.64,0.82,0.141,1.647,-3.906,-1.647,1
9.622575,0.638,0.812,0.144,1.464,-3.845,-1.892,1
9.629805,0.641,0.807,0.151,1.159,-4.028,-2.075,1
9.637507,0.643,0.797,0.157,1.464,-3.845,-2.563,1
9.646873,0.643,0.789,0.161,1.892,-3.906,-2.746,1
9.655165,0.642,0.777,0.166,2.746,-4.15,-2.746,1
9.661969,0.648,0.772,0.168,4.211,-3.967,-2.99,1
9.671691,0.646,0.761,0.166,5.554,-4.211,-3.112,1
9.681546,0.643,0.75,0.161,6.103,-4.394,-3.051,1
9.688617,0.643,0.743,0.166,6.347,-4.333,-2.807,1
9.697699,0.635,0.746,0.168,6.591,-4.15,-2.441,1
9.704082,0.62,0.748,0.167,6.103,-3.967,-2.38,1
9.712395,0.612,0.754,0.166,5.065,-3.967,-2.136,1
9.721203,0.606,0.762,0.172,2.929,-4.028,-1.892,1
9.727817,0.602,0.776,0.167,-1.464,-3.295,-1.708,1
9.737457,0.614,0.793,0.171,-5.676,-2.746,-1.403,1
9.744651,0.632,0.805,0.173,-12.695,-2.502,-1.403,1
9.753909,0.661,0.824,0.202,-18.737,-1.892,-0.976,1
9.76048,0.717,0.831,0.221,-26.245,-0.976,-1.281,1
9.76763,0.702,0.842,0.251,-32.104,-0.61,-1.281,1
9.777118,0.625,0.88,0.283,-31.188,0.854,-1.831,1
9.784387,0.655,0.889,0.29,-19.531,0.976,-2.868,1
9.793531,0.71,0.894,0.27,-7.507,1.281,-4.15,1
9.800989,0.719,0.906,0.266,0.305,1.586,-4.699,1
9.808723,0.675,0.915,0.261,7.202,0.976,-6.103,1
9.816249,0.666,0.899,0.268,12.023,1.708,-7.873,1
9.823861,0.753,0.886,0.259,13.122,2.502,-9.216,1
9.831245,0.756,0.849,0.277,13.427,3.967,-10.192,1
9.838551,0.633,0.856,0.283,8.85,5.31,-10.864,1
9.847412,0.783,0.862,0.274,8.728,6.652,-10.62,1
9.854098,0.734,0.861,0.26,14.221,5.859,-11.657,1
9.862712,0.669,0.856,0.265,15.808,6.53,-11.84,1
9.869292,0.628,0.845,0.257,13.366,7.568,-12.268,1
9.876962,0.612,0.845,0.241,8.178,9.338,-12.695,1
9.884463,0.596,0.841,0.207,3.295,10.864,-13.061,1
9.893642,0.585,0.846,0.171,-0.732,11.657,-13.549,1
9.901751,0.577,0.839,0.14,-2.868,12.084,-14.343,1
9.909654,0.58,0.839,0.108,-2.014,11.779,-14.953,1
9.917912,0.587,0.824,0.081,0.732,10.864,-15.563,1
9.924506,0.601,0.805,0.057,2.685,9.765,-15.991,1
9.931959,0.607,0.791,0.043,3.295,8.605,-16.479,1
9.939444,0.617,0.778,0.04,2.624,7.446,-16.479,1
9.948677,0.622,0.77,0.033,2.624,6.53,-16.54,1
9.955271,0.628,0.764,0.038,2.624,5.31,-16.601,1
9.963215,0.631,0.753,0.038,2.136,4.211,-16.54,1
9.971664,0.639,0.75,0.054,1.708,3.417,-16.235,1
9.97905,0.64,0.739,0.062,1.403,2.868,-16.479,1
9.987771,0.645,0.728,0.073,1.159,2.197,-16.479,1
9.994988,0.651,0.713,0.079,1.098,1.647,-16.174,1
