timestamp_s,ax,ay,az,gx,gy,gz,label
0.006393,0.954,-0.286,0.502,-43.273,-29.357,-28.32,1
0.014662,0.983,-0.258,0.51,-41.809,-26.184,-26.794,1
0.02131,0.94,-0.233,0.511,-35.583,-23.376,-25.512,1
0.029181,0.969,-0.221,0.517,-20.385,-20.324,-24.597,1
0.03858,0.942,-0.213,0.512,-8.117,-17.517,-23.803,1
0.045446,0.916,-0.195,0.514,2.807,-15.075,-23.376,1
0.053357,0.931,-0.203,0.498,12.207,-11.84,-23.071,1
0.060007,0.934,-0.202,0.487,15.319,-9.277,-22.827,1
0.068181,0.927,-0.193,0.459,15.991,-6.53,-22.277,1
0.076663,0.921,-0.182,0.433,17.639,-4.76,-21.789,1
0.082451,0.933,-0.164,0.403,20.263,-3.234,-21.728,1
0.090759,0.953,-0.156,0.376,22.766,-2.685,-21.484,1
0.097509,0.973,-0.149,0.346,25.756,-2.014,-21.301,1
0.106074,0.999,-0.148,0.311,26.977,-1.098,-21.545,1
0.11428,1.016,-0.148,0.282,26.428,-0.366,-21.545,1
0.120934,1.028,-0.138,0.235,24.23,-0.122,-21.24,1
0.129853,1.042,-0.136,0.193,20.935,0.183,-21.301,1
0.136502,1.055,-0.148,0.151,14.465,0.488,-21.789,1
0.143445,1.065,-0.152,0.141,5.859,0.732,-22.094,1
0.15126,1.073,-0.153,0.107,-2.136,1.342,-22.094,1
0.158548,1.087,-0.133,0.078,-5.554,0.915,-22.399,1
0.166333,1.09,-0.104,0.055,-3.784,0.305,-22.705,1
0.17518,1.066,-0.082,0.043,2.38,-1.525,-22.888,1
0.181969,1.034,-0.069,0.025,11.169,-3.051,-23.132,1
0.189898,1.02,-0.061,0.016,21.301,-4.882,-23.559,1
0.198763,1.019,-0.06,-0.004,33.142,-6.652,-24.108,1
0.205806,1.012,-0.08,-0.035,36.743,-7.69,-24.78,1
0.213894,1.025,-0.113,-0.068,30.212,-8.239,-25.512,1
0.220354,1.039,-0.147,-0.096,12.207,-7.812,-25.451,1
0.228703,1.04,-0.158,-0.111,-11.657,-8.056,-25.329,1
0.237201,1.017,-0.134,-0.103,-32.043,-8.117,-25.268,1
0.245139,1.019,-0.092,-0.09,-42.48,-9.826,-25.939,1
0.252261,1.018,-0.06,-0.046,-36.132,-11.84,-26.428,1
0.260197,1.042,-0.045,-0.034,-20.019,-13.793,-26.428,1
0.268279,1.053,-0.035,-0.02,-2.99,-16.235,-26.184,1
0.276563,1.062,-0.035,-0.007,7.751,-17.517,-25.939,1
0.283439,1.041,-0.029,-0.03,4.15,-18.066,-26.367,1
0.293422,1.043,-0.029,-0.02,-8.178,-17.761,-26.855,1
0.300304,1.041,-0.017,-0.023,-26.55,-17.211,-27.648,1
0.30906,1.058,0.007,-0.007,-38.574,-17.15,-28.686,1
0.31605,1.064,0.023,0.002,-45.104,-17.944,-30.029,1
0.32426,1.055,0.031,0.034,-47.119,-19.165,-31.311,1
0.332379,1.064,0.046,0.074,-44.372,-19.836,-32.653,1
0.339279,1.066,0.041,0.113,-38.574,-21.179,-34.362,1
0.34719,1.054,0.039,0.154,-33.752,-21.301,-36.193,1
0.353869,1.07,0.03,0.189,-30.029,-21.911,-38.085,1
0.361899,1.073,0.029,0.239,-27.709,-21.484,-40.039,1
0.370528,1.096,0.014,0.271,-28.991,-21.118,-42.053,1
0.377617,1.113,-0.004,0.318,-33.508,-19.653,-43.64,1
0.385495,1.106,-0.016,0.346,-41.87,-18.127,-44.982,1
0.393799,1.071,-0.013,0.382,-53.527,-16.296,-46.447,1
0.400665,1.036,-0.014,0.436,-67.993,-14.099,-47.912,1
0.409011,1.014,-0.022,0.49,-78.308,-12.39,-49.133,1
0.417189,0.983,-0.025,0.562,-83.984,-10.681,-50.354,1
0.425609,0.976,-0.056,0.637,-86.669,-9.46,-51.879,1
0.433893,0.987,-0.091,0.72,-88.806,-7.507,-52.856,1
0.442312,0.992,-0.142,0.797,-87.951,-4.577,-52.978,1
0.449348,0.959,-0.171,0.853,-83.679,-1.586,-53.1,1
0.456006,0.941,-0.199,0.899,-76.904,1.22,-52.856,1
0.464732,0.955,-0.231,0.945,-69.396,2.868,-52.795,1
0.472969,0.956,-0.258,1.001,-56.579,6.591,-51.757,1
0.479476,0.924,-0.296,1.052,-48.339,10.192,-50.903,1
0.487991,0.895,-0.342,1.108,-42.663,14.282,-49.865,1
0.495866,0.889,-0.379,1.157,-39.123,19.042,-48.217,1
0.502668,0.898,-0.425,1.207,-36.193,23.254,-46.142,1
0.510647,0.896,-0.458,1.263,-30.212,28.076,-44.006,1
0.518658,0.91,-0.486,1.312,-21.301,32.714,-41.381,1
0.525235,0.939,-0.523,1.379,-11.047,37.902,-38.574,1
0.533073,0.974,-0.557,1.442,0.244,43.945,-35.705,1
0.539803,1.014,-0.584,1.504,12.451,50.231,-32.897,1
0.546773,1.041,-0.611,1.55,22.155,57.617,-29.968,1
0.556598,1.029,-0.615,1.571,27.099,64.514,-27.648,1
0.564807,1.029,-0.618,1.562,29.052,74.035,-25.146,1
0.573114,1.074,-0.621,1.541,27.893,84.228,-22.705,1
0.579799,1.102,-0.602,1.488,25.207,92.834,-21.301,1
0.586724,1.111,-0.573,1.418,20.996,100.952,-21.057,1
0.595017,1.116,-0.541,1.355,17.15,108.581,-20.507,1
0.60307,1.124,-0.479,1.253,15.075,115.539,-20.324,1
0.610112,1.11,-0.398,1.141,14.709,121.948,-20.568,1
0.618113,1.064,-0.288,0.972,13.916,127.502,-21.362,1
0.625946,1.041,-0.208,0.791,10.986,132.324,-22.888,1
0.632834,1.029,-0.133,0.598,5.798,135.192,-24.475,1
0.641231,1.012,-0.037,0.392,-1.647,137.451,-27.099,1
0.649477,0.979,0.054,0.165,-11.657,137.939,-31.127,1
0.6561,0.93,0.151,-0.049,-19.958,137.084,-35.278,1
0.66434,0.897,0.229,-0.273,-28.137,134.399,-40.283,1
0.671294,0.842,0.319,-0.468,-34.851,130.065,-45.166,1
0.679136,0.73,0.413,-0.633,-38.757,124.938,-50.048,1
0.687396,0.562,0.498,-0.814,-45.593,119.079,-55.114,1
0.69538,0.413,0.569,-1.0,-58.654,112.365,-60.913,1
0.703812,0.22,0.638,-1.216,-77.636,103.759,-66.528,1
0.711929,0.127,0.706,-1.378,-95.642,91.491,-73.852,1
0.719075,-0.006,0.749,-1.5,-104.309,79.65,-80.078,1
0.72609,-0.18,0.769,-1.684,-113.037,67.321,-85.937,1
0.733804,-0.282,0.748,-1.812,-123.779,51.33,-92.773,1
0.74213,-0.406,0.734,-1.878,-132.385,36.987,-99.548,1
0.751726,-0.521,0.657,-2.004,-139.526,15.869,-106.75,1
0.758891,-0.586,0.545,-2.029,-137.878,-3.662,-112.487,1
0.765518,-0.611,0.372,-2.011,-129.394,-23.254,-116.088,1
0.773359,-0.679,0.16,-1.975,-125.61,-42.907,-118.591,1
0.782169,-0.774,-0.057,-1.919,-133.911,-61.706,-119.262,1
0.788697,-0.856,-0.312,-1.829,-129.516,-79.895,-117.675,1
0.79835,-0.906,-0.546,-1.775,-116.271,-104.553,-113.647,1
0.80501,-1.028,-0.837,-1.679,-102.355,-127.563,-106.994,1
0.81387,-1.129,-1.032,-1.601,-81.726,-148.132,-99.121,1
0.822788,-1.252,-1.278,-1.52,-65.612,-166.809,-87.524,1
0.829599,-1.423,-1.55,-1.471,-74.34,-188.232,-72.692,1
0.838668,-1.499,-1.791,-1.382,-90.332,-204.223,-58.166,1
0.84743,-1.719,-1.959,-1.347,-95.764,-225.402,-38.085,1
0.856186,-1.983,-2.132,-1.157,-81.726,-247.863,-14.892,1
0.863959,-2.258,-2.27,-1.139,-52.978,-266.296,6.408,1
0.87226,-2.489,-2.358,-1.041,-29.174,-290.039,34.179,1
0.880739,-2.818,-2.607,-1.011,-0.549,-310.913,57.861,1
0.888724,-3.193,-2.792,-1.008,-30.273,-329.162,87.097,1
0.895853,-3.705,-2.932,-0.959,-75.866,-343.444,119.384,1
0.904163,-4.202,-3.071,-0.772,-126.831,-358.825,156.005,1
0.912974,-4.704,-3.27,-0.681,-189.819,-370.971,205.627,1
0.919773,-5.391,-3.25,-0.421,-231.506,-380.859,254.272,1
0.928572,-6.359,-3.238,-0.122,-257.751,-385.07,306.457,1
0.937256,-7.146,-3.231,0.173,-273.62,-388.366,371.093,1
0.945526,-8.093,-3.264,0.659,-264.16,-386.718,441.223,1
0.953985,-8.81,-3.334,1.098,-244.018,-376.403,505.31,1
0.960986,-9.995,-3.383,1.511,-267.883,-350.219,582.824,1
0.969405,-11.25,-3.312,1.925,-330.688,-313.476,652.038,1
0.976473,-12.493,-3.134,2.378,-389.343,-261.108,724.731,1
0.98461,-13.802,-2.947,2.772,-435.974,-193.908,798.644,1
0.992431,-15.344,-2.7,3.208,-483.886,-97.045,884.521,1
1.00083,-15.999,-2.296,3.398,-511.962,3.601,954.406,1
1.007479,-15.999,-1.722,3.419,-522.888,110.656,1016.662,1
1.015532,-15.999,-1.05,3.201,-531.738,228.454,1070.617,1
1.023964,-15.999,-0.27,2.79,-542.724,344.543,1110.778,1
1.030454,-15.999,0.547,2.357,-542.724,468.078,1137.39,1
1.038307,-15.999,1.366,1.685,-538.94,585.51,1147.338,1
1.04627,-15.999,2.267,1.083,-531.677,697.692,1140.625,1
1.05412,-15.999,3.187,0.321,-513.488,804.199,1118.286,1
1.062402,-15.999,3.802,-0.181,-489.318,895.08,1084.228,1
1.069544,-15.999,4.286,-0.126,-441.711,979.98,1041.626,1
1.077801,-15.999,4.135,-0.805,-453.552,1066.772,1003.845,1
1.08423,-15.999,4.134,-0.895,-548.4,1179.26,948.12,1
1.093055,-15.999,4.048,-1.666,-638.549,1266.296,898.986,1
1.101319,-15.999,4.069,-2.437,-829.65,1381.469,794.006,1
1.108254,-15.999,4.658,-2.752,-980.407,1466.125,660.278,1
1.116195,-15.999,4.518,-3.614,-1056.762,1526.672,493.225,1
1.124174,-15.999,4.322,-4.099,-1129.76,1545.288,262.939,1
1.131207,-15.999,4.445,-4.316,-1042.846,1526.672,65.368,1
1.139022,-15.999,3.866,-4.536,-952.453,1467.956,-117.553,1
1.147349,-15.999,3.303,-4.612,-878.417,1413.94,-274.658,1
1.154309,-15.999,2.773,-4.926,-845.458,1319.885,-407.836,1
1.16395,-15.999,1.994,-4.396,-751.647,1209.045,-517.395,1
1.170929,-15.999,1.525,-4.111,-585.632,1101.379,-589.782,1
1.178092,-15.999,0.873,-4.176,-460.937,982.238,-639.77,1
1.186015,-15.999,0.0,-3.997,-450.439,894.531,-666.137,1
1.194208,-15.999,-0.66,-3.912,-519.165,817.81,-687.805,1
1.202873,-15.999,-1.181,-3.84,-618.53,733.825,-710.693,1
1.211408,-15.999,-1.556,-3.418,-723.327,627.685,-736.572,1
1.220008,-14.764,-1.839,-3.016,-785.766,510.192,-751.342,1
1.226509,-13.1,-1.894,-2.565,-758.727,406.738,-750.244,1
1.235998,-11.598,-2.004,-2.311,-667.663,303.222,-732.36,1
1.243956,-10.282,-2.032,-1.993,-516.113,211.669,-703.796,1
1.250934,-9.375,-2.04,-1.869,-341.796,124.145,-658.935,1
1.259063,-8.629,-2.015,-1.668,-234.008,68.542,-620.544,1
1.266048,-7.832,-1.973,-1.505,-189.575,33.081,-582.702,1
1.275662,-7.214,-1.911,-1.408,-180.419,6.713,-545.898,1
1.282682,-6.692,-1.779,-1.333,-168.945,-24.719,-507.141,1
1.290964,-6.066,-1.719,-1.176,-150.756,-47.973,-475.524,1
1.299212,-5.533,-1.679,-1.073,-132.385,-70.19,-440.246,1
1.307434,-5.004,-1.659,-0.942,-120.422,-86.853,-411.132,1
1.316265,-4.447,-1.675,-0.78,-109.802,-100.891,-377.685,1
1.323513,-4.009,-1.624,-0.636,-94.97,-110.656,-350.707,1
1.330239,-3.677,-1.606,-0.542,-79.895,-116.699,-325.073,1
1.338958,-3.381,-1.545,-0.455,-62.988,-122.497,-301.33,1
1.34679,-3.119,-1.491,-0.361,-37.353,-124.816,-278.991,1
1.354101,-2.949,-1.487,-0.354,-11.962,-127.014,-255.31,1
1.362162,-2.728,-1.498,-0.332,0.183,-127.258,-236.328,1
1.370893,-2.496,-1.528,-0.315,5.554,-126.525,-218.2,1
1.379091,-2.192,-1.572,-0.269,5.615,-124.145,-200.561,1
1.386935,-1.967,-1.626,-0.235,-2.502,-120.117,-180.175,1
1.394885,-1.771,-1.663,-0.185,-19.409,-114.318,-160.095,1
1.401842,-1.569,-1.672,-0.142,-35.766,-109.436,-143.676,1
1.411304,-1.393,-1.652,-0.082,-44.555,-103.881,-127.502,1
1.417903,-1.233,-1.625,-0.054,-46.752,-99.548,-111.511,1
1.426182,-1.092,-1.572,-0.028,-41.564,-95.458,-96.435,1
1.43305,-0.968,-1.574,0.003,-25.878,-91.735,-79.895,1
1.442223,-0.846,-1.554,0.0,-17.089,-88.439,-69.396,1
1.449045,-0.797,-1.509,-0.001,-2.929,-84.167,-54.321,1
1.458044,-0.68,-1.502,-0.013,9.155,-81.115,-42.968,1
1.46642,-0.631,-1.477,-0.016,14.099,-76.843,-31.677,1
1.473043,-0.546,-1.439,-0.017,18.188,-71.716,-19.775,1
1.481122,-0.475,-1.477,-0.034,5.004,-67.016,-8.85,1
1.489203,-0.368,-1.501,-0.026,-11.169,-59.143,1.037,1
1.49714,-0.278,-1.45,-0.04,-27.404,-53.161,11.291,1
1.50489,-0.268,-1.409,-0.053,-43.151,-46.203,23.437,1
1.511981,-0.178,-1.398,-0.087,-53.649,-40.344,33.203,1
1.520255,-0.104,-1.327,-0.116,-61.523,-34.79,42.48,1
1.528127,-0.092,-1.258,-0.155,-70.556,-30.029,51.94,1
1.536821,-0.04,-1.217,-0.213,-81.848,-23.864,61.95,1
1.545544,-0.039,-1.117,-0.249,-87.707,-19.47,70.556,1
1.553459,-0.039,-1.024,-0.29,-81.848,-15.441,79.345,1
1.561504,-0.021,-0.978,-0.314,-74.584,-12.512,86.425,1
1.570139,0.008,-0.954,-0.345,-74.523,-7.69,94.726,1
1.576698,0.038,-0.916,-0.375,-81.237,-3.356,101.684,1
1.58524,0.076,-0.872,-0.416,-89.965,1.708,108.215,1
1.593051,0.139,-0.836,-0.462,-100.952,6.286,114.868,1
1.601468,0.216,-0.775,-0.516,-111.938,11.169,121.032,1
1.607812,0.207,-0.679,-0.559,-119.689,14.892,127.075,1
1.615893,0.314,-0.641,-0.612,-124.023,18.92,132.141,1
1.623788,0.311,-0.599,-0.663,-137.207,22.216,138.122,1
1.631851,0.323,-0.517,-0.682,-144.165,27.221,143.432,1
1.637869,0.362,-0.447,-0.749,-145.629,29.296,148.071,1
1.646351,0.385,-0.377,-0.769,-139.282,31.677,152.038,1
1.653144,0.409,-0.325,-0.816,-129.577,32.836,156.005,1
1.661465,0.445,-0.284,-0.852,-121.215,33.142,159.606,1
1.668083,0.517,-0.256,-0.898,-118.286,35.339,162.841,1
1.676633,0.514,-0.211,-0.958,-122.558,36.376,165.466,1
1.683664,0.506,-0.149,-1.006,-133.605,39.062,168.457,1
1.693033,0.386,-0.047,-1.077,-144.897,39.916,170.104,1
1.699802,0.412,0.001,-1.121,-152.221,40.161,170.349,1
1.706602,0.398,0.032,-1.146,-157.104,40.344,170.837,1
1.714709,0.389,0.062,-1.166,-157.653,40.1,171.508,1
1.722733,0.399,0.085,-1.177,-150.634,39.367,171.997,1
1.728999,0.46,0.126,-1.176,-132.507,38.024,172.851,1
1.737538,0.512,0.134,-1.175,-118.53,35.156,173.461,1
1.743847,0.551,0.183,-1.158,-102.844,32.531,174.56,1
1.752502,0.585,0.225,-1.158,-88.745,29.663,175.72,1
1.758808,0.6,0.275,-1.154,-77.148,26.367,176.269,1
1.767032,0.593,0.321,-1.145,-72.998,24.597,176.574,1
1.774752,0.577,0.388,-1.187,-78.369,22.338,176.94,1
1.783249,0.578,0.46,-1.204,-89.538,18.737,175.964,1
1.789995,0.539,0.544,-1.201,-92.041,15.869,175.231,1
1.798451,0.552,0.592,-1.199,-86.059,11.718,173.828,1
1.806446,0.537,0.625,-1.167,-77.697,6.896,172.363,1
1.814287,0.558,0.624,-1.148,-71.838,3.295,170.898,1
1.821261,0.466,0.648,-1.101,-75.439,0.671,169.799,1
1.829542,0.466,0.683,-1.089,-81.42,-0.061,168.395,1
1.836545,0.429,0.723,-1.095,-92.102,-1.464,166.503,1
1.84544,0.431,0.767,-1.067,-100.646,-2.441,164.123,1
1.853443,0.449,0.801,-1.041,-106.323,-3.784,161.621,1
1.861417,0.438,0.864,-1.018,-102.783,-5.859,158.264,1
1.870134,0.454,0.889,-0.989,-94.909,-8.544,155.456,1
1.878647,0.433,0.899,-0.924,-83.679,-12.084,152.099,1
1.885426,0.278,0.952,-0.874,-66.406,-14.221,149.353,1
1.893364,0.421,0.916,-0.767,-52.978,-18.859,146.423,1
1.902193,0.463,0.88,-0.768,-49.499,-18.554,143.92,1
1.908742,0.448,0.887,-0.756,-59.753,-18.859,141.052,1
1.917528,0.52,0.893,-0.716,-75.805,-17.456,138.0,1
1.924981,0.503,0.915,-0.725,-87.768,-17.517,135.314,1
1.933712,0.487,0.944,-0.682,-89.843,-17.028,132.812,1
1.94011,0.469,0.93,-0.65,-87.036,-19.714,130.737,1
1.948473,0.443,0.935,-0.627,-80.566,-18.615,128.234,1
1.955516,0.385,0.89,-0.59,-80.871,-21.301,124.694,1
1.964342,0.446,0.882,-0.56,-77.026,-20.446,123.962,1
1.971383,0.486,0.809,-0.556,-79.406,-22.583,121.276,1
1.979647,0.352,0.787,-0.495,-79.65,-21.24,119.628,1
1.988043,0.415,0.735,-0.468,-77.514,-21.606,118.652,1
1.996514,0.405,0.777,-0.485,-75.622,-19.714,116.943,1
2.003532,0.453,0.786,-0.483,-72.082,-20.08,114.99,1
2.012266,0.502,0.798,-0.484,-64.025,-19.165,113.586,1
2.018894,0.555,0.822,-0.536,-54.931,-18.554,112.121,1
2.02728,0.577,0.836,-0.558,-46.264,-19.775,110.168,1
2.0351,0.545,0.825,-0.562,-38.391,-20.141,108.581,1
2.041984,0.536,0.812,-0.573,-34.729,-21.972,106.872,1
2.051987,0.537,0.793,-0.547,-32.348,-22.644,105.041,1
2.059001,0.533,0.775,-0.525,-30.639,-23.132,103.332,1
2.066794,0.547,0.744,-0.501,-32.226,-23.254,101.623,1
2.073714,0.625,0.716,-0.498,-35.583,-23.437,99.731,1
2.082039,0.6,0.627,-0.463,-42.053,-22.277,99.609,1
2.090135,0.674,0.713,-0.525,-42.663,-19.104,98.083,1
2.098368,0.753,0.576,-0.447,-50.109,-23.071,95.703,1
2.105179,0.716,0.709,-0.44,-44.921,-13.549,96.862,1
2.113933,0.922,0.764,-0.54,-38.94,-21.545,94.665,1
2.121816,0.946,0.721,-0.438,-26.245,-18.554,93.994,1
2.128832,0.989,0.715,-0.499,-20.446,-18.859,93.566,1
2.136926,1.1,0.729,-0.488,-21.484,-18.981,92.651,1
2.144942,1.249,0.69,-0.47,-25.634,-17.761,92.346,1
2.153059,1.197,0.747,-0.544,-28.076,-14.221,91.674,1
2.161267,1.048,0.793,-0.596,-33.63,-18.432,89.782,1
2.167779,1.036,0.856,-0.553,-28.625,-17.456,87.951,1
2.176654,1.066,0.91,-0.594,-20.935,-20.629,85.693,1
2.184331,1.057,0.92,-0.594,-15.686,-23.559,82.397,1
2.191055,1.033,0.89,-0.596,-16.967,-24.78,79.04,1
2.197938,1.025,0.856,-0.61,-26.489,-25.451,75.439,1
2.206662,1.041,0.828,-0.617,-38.391,-25.878,72.082,1
2.21383,1.041,0.805,-0.61,-57.922,-24.291,68.115,1
2.22073,1.052,0.82,-0.615,-72.692,-23.986,64.392,1
2.229589,1.036,0.839,-0.611,-82.031,-23.498,60.485,1
2.236628,1.023,0.834,-0.625,-88.195,-23.376,57.067,1
2.244465,1.018,0.834,-0.62,-95.703,-23.437,53.466,1
2.251509,1.001,0.837,-0.606,-103.271,-23.925,49.194,1
2.260324,1.019,0.836,-0.585,-104.797,-24.841,45.715,1
2.267342,1.014,0.848,-0.549,-102.294,-26.794,42.785,1
2.274075,1.051,0.835,-0.542,-96.191,-28.869,40.161,1
2.282341,1.079,0.865,-0.529,-89.782,-30.395,37.719,1
2.288981,1.105,0.84,-0.556,-83.923,-32.653,35.095,1
2.297438,1.092,0.798,-0.58,-83.618,-34.545,31.616,1
2.305805,1.044,0.739,-0.626,-92.773,-35.766,28.32,1
2.31409,1.002,0.699,-0.66,-102.416,-36.376,24.841,1
2.320749,0.95,0.655,-0.666,-111.999,-37.78,21.728,1
2.329014,0.888,0.62,-0.689,-113.22,-39.306,19.287,1
2.337207,0.829,0.573,-0.678,-108.581,-42.541,16.479,1
2.344096,0.842,0.546,-0.653,-98.144,-44.128,13.916,1
2.352963,0.879,0.525,-0.644,-83.801,-47.302,11.657,1
2.361523,0.92,0.508,-0.641,-66.162,-50.903,9.643,1
2.368133,1.006,0.484,-0.605,-50.903,-55.358,8.117,1
2.377691,1.06,0.426,-0.591,-40.1,-57.617,7.507,1
2.384728,1.11,0.379,-0.559,-36.682,-59.204,7.568,1
2.393162,1.147,0.355,-0.556,-40.649,-60.363,7.568,1
2.400061,1.125,0.354,-0.535,-48.4,-60.729,7.263,1
2.408297,1.082,0.33,-0.525,-60.058,-60.729,7.202,1
2.415306,1.042,0.3,-0.508,-75.073,-59.936,7.385,1
2.423557,1.022,0.274,-0.493,-93.139,-58.471,7.507,1
2.430715,0.994,0.276,-0.489,-113.891,-55.847,7.934,1
2.438731,0.965,0.289,-0.493,-127.99,-54.504,8.056,1
2.445658,0.936,0.301,-0.479,-134.338,-53.283,7.873,1
2.452632,0.916,0.318,-0.476,-134.948,-52.612,7.69,1
2.461425,0.908,0.324,-0.475,-130.31,-52.734,7.446,1
2.468734,0.929,0.315,-0.468,-123.474,-52.978,7.019,1
2.47691,0.93,0.32,-0.457,-115.417,-53.649,7.446,1
2.484985,0.924,0.324,-0.449,-105.346,-53.894,8.178,1
2.493018,0.941,0.337,-0.455,-96.008,-53.71,8.544,1
2.500986,0.951,0.363,-0.475,-85.266,-54.87,8.666,1
2.509013,0.916,0.37,-0.479,-78.002,-55.48,8.605,1
2.517,0.872,0.377,-0.497,-77.209,-55.786,8.361,1
2.524278,0.848,0.377,-0.504,-80.749,-55.48,7.629,1
2.532158,0.831,0.381,-0.509,-85.937,-55.725,7.019,1
2.539159,0.809,0.38,-0.516,-90.698,-55.725,5.798,1
2.547,0.797,0.374,-0.514,-94.909,-55.725,4.76,1
2.55579,0.781,0.363,-0.502,-97.29,-56.518,3.356,1
2.564341,0.795,0.359,-0.484,-96.801,-57.312,1.892,1
2.571393,0.825,0.355,-0.452,-92.834,-57.861,1.098,1
2.578089,0.878,0.346,-0.429,-85.266,-58.288,0.244,1
2.58633,0.934,0.362,-0.42,-71.777,-59.204,0.0,1
2.5946,0.958,0.362,-0.41,-55.236,-60.058,0.122,1
2.603495,0.966,0.349,-0.398,-38.818,-61.096,0.0,1
2.61009,0.884,0.321,-0.383,-22.216,-60.852,0.976,1
2.61851,0.812,0.293,-0.353,-5.798,-58.898,3.112,1
2.625186,0.879,0.251,-0.401,-5.187,-58.166,3.601,1
2.632046,0.907,0.238,-0.372,-13.916,-56.457,3.479,1
2.640547,0.911,0.242,-0.365,-28.442,-54.26,3.356,1
2.648847,0.899,0.244,-0.343,-44.677,-52.612,3.417,1
2.656772,0.869,0.257,-0.336,-57.739,-49.987,3.356,1
2.663492,0.872,0.278,-0.315,-65.856,-48.767,2.929,1
2.671852,0.841,0.288,-0.306,-63.72,-47.729,2.685,1
2.679269,0.808,0.291,-0.281,-52.124,-47.973,1.953,1
2.686264,0.765,0.291,-0.258,-35.766,-47.119,1.342,1
2.694163,0.729,0.269,-0.248,-20.019,-46.63,1.22,1
2.700897,0.539,0.247,-0.239,-9.643,-44.738,1.464,1
2.709121,0.575,0.227,-0.225,-7.629,-44.555,2.38,1
2.7174,0.544,0.193,-0.242,-8.911,-39.428,3.356,1
2.725792,0.734,0.199,-0.268,-23.376,-40.222,4.028,1
2.732404,0.628,0.167,-0.265,-32.592,-32.409,6.652,1
2.741044,0.776,0.139,-0.359,-51.696,-37.17,8.605,1
2.74915,0.987,0.109,-0.302,-57.067,-31.188,13.122,1
2.755983,0.924,0.148,-0.343,-56.762,-34.24,14.648,1
2.764519,0.979,0.174,-0.299,-47.912,-30.334,15.747,1
2.771213,1.062,0.19,-0.364,-42.846,-34.24,15.869,1
2.780043,1.168,0.216,-0.329,-30.212,-34.362,15.441,1
2.786908,1.273,0.253,-0.393,-16.906,-40.344,12.756,1
2.794515,1.172,0.304,-0.344,2.807,-44.982,9.338,1
2.802757,1.024,0.306,-0.375,21.24,-50.415,5.737,1
2.809331,0.86,0.293,-0.333,32.897,-53.466,3.112,1
2.817615,0.762,0.25,-0.314,33.996,-52.612,2.319,1
2.825708,0.736,0.212,-0.302,16.54,-50.415,1.892,1
2.83353,0.718,0.21,-0.295,-11.718,-47.119,1.892,1
2.841507,0.724,0.232,-0.281,-38.94,-44.86,2.258,1
2.84857,0.735,0.261,-0.271,-57.312,-43.457,1.953,1
2.856345,0.736,0.287,-0.251,-62.622,-43.334,1.953,1
2.863074,0.764,0.307,-0.232,-58.227,-44.006,1.953,1
2.871332,0.801,0.306,-0.227,-49.865,-45.288,1.159,1
2.880092,0.826,0.286,-0.217,-41.259,-46.508,0.732,1
2.886767,0.834,0.267,-0.202,-35.827,-47.607,0.244,1
2.894796,0.83,0.246,-0.194,-35.278,-47.18,0.488,1
2.90307,0.854,0.225,-0.195,-39.062,-47.18,0.854,1
2.909734,0.878,0.201,-0.193,-47.79,-46.447,1.586,1
2.917725,0.903,0.182,-0.196,-62.438,-45.593,2.99,1
2.926593,0.907,0.177,-0.185,-74.34,-44.311,3.723,1
2.935097,0.909,0.181,-0.176,-82.397,-44.067,4.638,1
2.941605,0.92,0.193,-0.15,-85.388,-43.884,5.187,1
2.948498,0.867,0.215,-0.133,-83.251,-44.677,5.493,1
2.955754,0.792,0.225,-0.115,-75.195,-46.447,4.699,1
2.964865,0.682,0.218,-0.095,-59.448,-49.255,3.784,1
2.971953,0.57,0.194,-0.045,-30.639,-52.185,2.868,1
2.980301,0.569,0.142,-0.006,0.732,-54.626,2.075,1
2.987388,0.664,0.045,0.037,28.625,-56.518,1.77,1
2.994393,0.73,-0.006,0.073,55.48,-56.091,2.929,1
3.001921,0.906,-0.03,0.104,78.796,-54.565,4.455,1
3.008995,1.058,-0.073,0.141,88.195,-51.757,6.225,1
3.017456,1.07,-0.086,0.142,81.848,-46.203,7.995,1
3.025641,1.005,-0.116,0.122,51.635,-40.283,10.07,1
3.032395,0.985,-0.135,0.125,11.474,-34.423,11.718,1
3.041337,1.023,-0.139,0.115,-26.672,-30.7,13.244,1
3.047425,1.076,-0.1,0.121,-66.284,-25.756,16.357,1
3.055535,1.107,-0.039,0.113,-79.223,-23.559,19.226,1
3.062655,1.114,0.009,0.105,-77.331,-22.644,20.996,1
3.070988,1.125,0.033,0.087,-69.03,-22.216,23.437,1
3.079908,1.123,0.05,0.07,-66.406,-21.423,24.719,1
3.086511,1.092,0.076,0.039,-72.937,-19.653,26.367,1
3.094957,1.046,0.109,0.013,-86.486,-17.15,26.855,1
3.103187,1.008,0.16,-0.013,-103.393,-14.465,27.526,1
3.110148,0.985,0.198,-0.027,-120.544,-11.596,28.381,1
3.118418,0.975,0.239,-0.041,-126.159,-9.948,28.93,1
3.125635,0.844,0.285,-0.076,-120.422,-10.009,28.808,1
3.133661,0.953,0.321,-0.058,-101.257,-10.07,28.991,1
3.141463,0.914,0.316,-0.121,-78.125,-12.695,28.808,1
3.148066,0.889,0.316,-0.131,-54.321,-14.77,28.442,1
3.156501,1.066,0.248,-0.159,-36.254,-17.7,28.442,1
3.163265,1.049,0.258,-0.165,-20.507,-19.958,28.137,1
3.171385,1.207,0.26,-0.166,-10.559,-21.667,26.916,1
3.178162,1.039,0.279,-0.126,-10.375,-21.667,26.062,1
3.1866,1.061,0.272,-0.152,-21.057,-18.92,24.963,1
3.195152,1.369,0.256,-0.187,-33.691,-18.676,24.169,1
3.201723,1.247,0.341,-0.19,-37.597,-21.057,21.911,1
3.208461,1.162,0.389,-0.15,-28.198,-19.042,19.958,1
3.216468,1.028,0.43,-0.212,-22.338,-22.399,16.174,1
3.223377,0.803,0.394,-0.217,-13.122,-23.254,14.343,1
3.231701,0.21,0.215,-0.256,-5.554,-26.245,17.578,1
3.239819,0.201,0.153,-0.205,-10.253,-15.869,22.583,1
3.246257,0.767,0.123,-0.311,-41.809,-15.197,24.78,1
3.255251,1.043,0.289,-0.18,-65.307,-5.859,26.489,1
3.263463,1.273,0.501,-0.314,-63.11,-13.61,22.644,1
3.270521,1.471,0.571,-0.176,-23.193,-19.226,17.944,1
3.278756,1.512,0.536,-0.229,20.263,-25.146,13.366,1
3.285904,1.425,0.498,-0.182,36.621,-27.282,10.314,1
3.294143,1.331,0.458,-0.221,31.86,-27.221,7.751,1
3.301091,1.272,0.478,-0.202,18.005,-28.015,5.004,1
3.309962,1.231,0.512,-0.177,9.094,-26.55,2.624,1
3.316664,1.22,0.559,-0.162,6.225,-26.733,-0.549,1
3.325267,1.183,0.582,-0.135,7.08,-26.0,-4.211,1
3.333678,1.209,0.575,-0.125,6.469,-24.658,-8.178,1
3.34063,1.187,0.572,-0.111,6.347,-24.108,-11.657,1
3.349361,1.168,0.542,-0.096,3.417,-23.498,-14.648,1
3.357674,1.209,0.509,-0.07,-1.892,-22.033,-17.333,1
3.364749,1.161,0.491,-0.07,-3.417,-20.751,-19.226,1
3.373566,1.094,0.423,-0.051,-10.253,-19.714,-20.812,1
3.381997,1.09,0.421,-0.029,-15.869,-17.944,-22.766,1
3.390063,1.014,0.384,-0.031,-21.423,-17.7,-24.353,1
3.397203,1.028,0.344,-0.004,-33.63,-15.563,-25.085,1
3.405342,0.997,0.295,-0.026,-48.4,-13.488,-26.428,1
3.41358,0.972,0.277,-0.001,-66.101,-11.718,-27.465,1
3.420601,1.026,0.182,-0.022,-95.947,-8.544,-27.343,1
3.430186,1.126,0.193,0.0,-125.122,-4.455,-26.977,1
3.437876,1.141,0.175,-0.043,-150.329,-3.051,-26.672,1
3.44485,1.089,0.152,-0.014,-171.752,-0.671,-26.123,1
3.453503,1.062,0.154,-0.03,-185.791,0.305,-25.634,1
3.460122,1.021,0.164,-0.006,-192.871,0.732,-25.573,1
3.46891,0.895,0.172,-0.008,-192.138,0.0,-24.78,1
3.475565,0.699,0.197,0.021,-182.678,-2.197,-22.888,1
3.484496,0.564,0.246,0.037,-164.611,-3.601,-23.01,1
3.491525,0.415,0.306,0.084,-133.728,-8.056,-23.254,1
3.500441,0.524,0.325,0.115,-81.848,-11.657,-23.986,1
3.507134,0.796,0.287,0.123,-38.513,-14.831,-24.475,1
3.516069,0.865,0.267,0.113,-1.403,-16.052,-24.23,1
3.523044,0.945,0.194,0.067,17.211,-16.723,-26.0,1
3.530028,0.944,0.12,0.067,14.16,-16.174,-26.733,1
3.538346,0.933,0.068,0.053,-0.793,-12.451,-26.367,1
3.547007,1.001,0.047,0.053,-19.714,-9.704,-25.695,1
3.554047,1.057,0.042,0.044,-39.001,-5.31,-24.353,1
3.562433,1.07,0.044,0.038,-52.062,-2.99,-23.498,1
3.571275,1.042,0.049,0.025,-60.18,-0.61,-22.399,1
3.580844,1.016,0.057,0.016,-65.124,0.305,-20.812,1
3.587516,0.988,0.069,0.006,-62.683,0.122,-19.348,1
3.595626,0.996,0.079,0.014,-54.687,-0.61,-17.639,1
3.604094,1.002,0.079,0.009,-42.358,-1.342,-16.296,1
3.610642,0.979,0.085,0.02,-31.982,-2.014,-15.197,1
3.619027,0.968,0.084,0.02,-24.353,-1.953,-14.465,1
3.62735,0.948,0.078,0.024,-23.01,-1.403,-14.099,1
3.636115,0.934,0.061,0.02,-29.174,-0.122,-13.488,1
3.642295,0.925,0.044,0.022,-38.879,1.708,-12.451,1
3.650928,0.923,0.031,0.015,-51.574,3.479,-12.084,1
3.659295,0.897,0.032,0.006,-64.819,5.432,-11.413,1
3.667957,0.879,0.035,-0.008,-78.491,6.53,-10.437,1
3.676336,0.856,0.04,-0.011,-85.876,7.873,-9.948,1
3.682873,0.856,0.042,-0.024,-91.674,8.789,-9.765,1
3.691741,0.855,0.038,-0.033,-96.008,9.582,-10.131,1
3.698384,0.902,0.043,-0.053,-100.036,10.925,-10.009,1
3.707183,0.914,0.054,-0.068,-103.271,11.718,-10.864,1
3.714012,0.938,0.065,-0.079,-103.271,12.573,-11.657,1
3.722812,0.981,0.079,-0.089,-95.642,12.695,-11.718,1
3.729878,0.969,0.102,-0.083,-80.871,11.23,-12.329,1
3.736438,0.902,0.102,-0.079,-66.284,10.498,-13.061,1
3.745851,0.863,0.083,-0.083,-51.757,9.216,-13.61,1
3.752234,0.791,0.055,-0.066,-43.579,7.446,-14.465,1
3.760514,0.747,0.019,-0.052,-46.325,6.408,-14.77,1
3.769206,0.726,-0.012,-0.022,-58.593,6.164,-14.648,1
3.775598,0.722,-0.044,-0.007,-77.453,6.591,-13.916,1
3.784544,0.958,-0.04,0.025,-89.965,7.202,-12.023,1
3.791059,1.184,-0.035,-0.022,-89.965,4.638,-11.291,1
3.799953,1.117,-0.022,0.015,-82.153,4.516,-10.253,1
3.807244,1.145,-0.033,0.003,-76.11,2.319,-9.46,1
3.814281,1.106,-0.026,0.037,-69.335,5.126,-8.3,1
3.823012,1.067,-0.022,0.0,-67.993,3.784,-7.568,1
3.831062,1.078,-0.024,0.035,-68.298,5.859,-5.676,1
3.838112,1.123,-0.009,0.02,-69.702,6.713,-3.967,1
3.845996,1.125,0.014,0.045,-68.481,7.751,-2.075,1
3.852725,1.116,0.05,0.059,-60.119,8.605,-0.549,1
3.860942,1.102,0.098,0.077,-42.114,8.85,-0.488,1
3.869326,1.099,0.136,0.082,-18.615,8.85,-0.488,1
3.876312,1.073,0.167,0.074,2.929,8.361,-1.159,1
3.885009,1.039,0.173,0.049,15.991,8.605,-1.647,1
3.89176,1.033,0.167,0.022,19.104,10.253,-3.173,1
3.900423,1.045,0.159,-0.009,12.145,12.329,-4.699,1
3.907587,1.071,0.145,-0.053,-9.216,15.38,-6.408,1
3.916286,1.092,0.146,-0.07,-35.522,17.944,-8.239,1
3.924451,1.107,0.164,-0.078,-61.157,19.958,-9.887,1
3.931403,1.129,0.205,-0.087,-81.542,21.24,-11.413,1
3.940026,1.147,0.241,-0.084,-85.693,21.179,-12.878,1
3.948885,1.154,0.277,-0.083,-79.162,20.385,-15.136,1
3.956019,1.154,0.307,-0.086,-65.124,19.287,-17.7,1
3.964703,1.163,0.314,-0.101,-52.795,18.432,-20.446,1
3.971491,1.172,0.318,-0.116,-44.311,17.456,-22.888,1
3.980212,1.187,0.307,-0.134,-39.184,17.272,-25.39,1
3.988518,1.198,0.303,-0.148,-35.827,17.15,-27.954,1
3.995533,1.2,0.299,-0.173,-33.508,16.906,-30.029,1
4.004233,1.212,0.286,-0.191,-33.691,16.052,-31.738,1
4.011254,1.209,0.279,-0.207,-36.437,15.686,-33.813,1
4.020103,1.204,0.28,-0.227,-39.306,14.648,-36.193,1
4.02843,1.198,0.277,-0.232,-40.283,13.305,-38.208,1
4.035483,1.186,0.274,-0.234,-38.635,11.901,-40.1,1
4.04423,1.146,0.274,-0.236,-35.644,10.681,-42.48,1
4.050928,1.111,0.262,-0.237,-28.137,8.666,-45.41,1
4.059589,1.09,0.238,-0.238,-20.996,6.652,-47.79,1
4.066852,1.076,0.189,-0.221,-14.587,5.126,-49.987,1
4.074777,1.077,0.139,-0.199,-11.779,3.723,-51.513,1
4.082659,1.095,0.102,-0.17,-13.061,3.967,-52.551,1
4.091095,1.05,0.078,-0.139,-15.563,3.906,-53.222,1
4.097703,1.052,0.051,-0.113,-15.686,5.004,-54.321,1
4.105472,1.009,0.023,-0.113,-17.761,5.249,-54.687,1
4.112521,0.943,0.005,-0.125,-23.681,5.859,-54.87,1
4.12142,0.938,-0.028,-0.131,-36.682,6.042,-54.687,1
4.130148,0.944,-0.052,-0.15,-52.612,6.896,-54.565,1
4.138906,0.906,-0.078,-0.171,-64.636,6.469,-54.199,1
4.145628,0.917,-0.103,-0.187,-68.298,5.92,-53.771,1
4.154251,0.94,-0.141,-0.205,-65.795,4.394,-53.466,1
4.163042,0.938,-0.178,-0.219,-57.983,3.051,-52.307,1
4.170055,0.935,-0.22,-0.237,-50.964,0.854,-50.537,1
4.17839,0.929,-0.261,-0.222,-45.471,-1.159,-48.95,1
4.185416,0.919,-0.314,-0.217,-43.212,-2.197,-46.386,1
4.194262,0.945,-0.341,-0.196,-44.433,-3.845,-43.457,1
4.202574,0.958,-0.354,-0.166,-44.738,-4.272,-40.222,1
4.211013,1.0,-0.365,-0.146,-41.015,-5.615,-37.292,1
4.219321,1.082,-0.367,-0.098,-30.7,-6.408,-34.118,1
4.227111,1.13,-0.352,-0.078,-22.644,-6.774,-31.066,1
4.236108,1.127,-0.291,-0.064,-14.282,-6.896,-28.808,1
4.242255,1.137,-0.23,-0.071,-8.483,-6.958,-27.221,1
4.250988,1.177,-0.16,-0.056,-7.568,-6.042,-26.428,1
4.258716,1.23,-0.062,-0.064,-11.291,-4.516,-26.428,1
4.266938,1.271,0.054,-0.085,-19.165,-3.601,-28.015,1
4.275369,1.294,0.166,-0.108,-27.832,-2.624,-30.578,1
4.284141,1.343,0.268,-0.123,-39.733,-2.258,-34.118,1
4.292312,1.345,0.364,-0.129,-55.786,-1.281,-38.391,1
4.298905,1.322,0.465,-0.141,-69.213,-1.403,-43.029,1
4.306937,1.28,0.547,-0.146,-79.284,-1.953,-48.889,1
4.315397,1.235,0.615,-0.155,-82.336,-3.845,-56.213,1
4.325013,1.169,0.657,-0.158,-80.505,-5.432,-63.11,1
4.331612,1.099,0.668,-0.185,-77.453,-7.873,-71.044,1
4.340364,1.038,0.648,-0.201,-76.171,-9.155,-77.758,1
4.347631,0.967,0.616,-0.248,-79.895,-10.62,-84.289,1
4.356558,0.874,0.567,-0.279,-89.111,-12.39,-91.491,1
4.365414,0.792,0.527,-0.287,-94.787,-14.648,-97.045,1
4.371895,0.72,0.487,-0.289,-95.336,-17.883,-102.905,1
4.380554,0.638,0.415,-0.292,-96.252,-20.568,-107.543,1
4.388794,0.581,0.331,-0.308,-100.341,-23.803,-111.999,1
4.395445,0.549,0.274,-0.305,-100.463,-27.77,-115.6,1
4.404279,0.523,0.216,-0.289,-95.336,-31.677,-118.286,1
4.411263,0.488,0.156,-0.277,-89.233,-35.766,-120.666,1
4.419129,0.465,0.08,-0.27,-80.871,-39.978,-122.497,1
4.427836,0.418,0.018,-0.271,-69.946,-45.227,-123.84,1
4.436698,0.37,-0.039,-0.258,-61.95,-49.926,-124.572,1
4.444621,0.305,-0.099,-0.256,-58.166,-53.344,-124.877,1
4.452817,0.224,-0.156,-0.263,-60.607,-58.288,-124.389,1
4.461365,0.083,-0.2,-0.246,-62.561,-62.805,-124.511,1
4.469654,-0.038,-0.243,-0.233,-62.438,-68.176,-124.938,1
4.476862,-0.194,-0.311,-0.229,-62.988,-74.34,-125.427,1
4.485113,-0.361,-0.392,-0.222,-64.697,-79.467,-125.793,1
4.493294,-0.529,-0.475,-0.227,-66.772,-84.411,-125.732,1
4.501508,-0.711,-0.599,-0.238,-70.068,-91.064,-125.061,1
4.509795,-0.962,-0.759,-0.262,-80.566,-96.313,-123.535,1
4.518079,-1.125,-0.912,-0.287,-101.318,-102.844,-120.3,1
4.526011,-1.326,-1.074,-0.268,-113.403,-111.328,-115.173,1
4.535178,-1.52,-1.273,-0.239,-119.995,-116.455,-108.276,1
4.543259,-1.573,-1.547,-0.301,-134.521,-126.22,-95.642,1
4.550406,-1.6,-1.759,-0.266,-136.23,-133.544,-80.688,1
4.55839,-1.643,-2.077,-0.331,-131.042,-144.714,-62.255,1
4.566267,-1.743,-2.293,-0.312,-114.624,-157.836,-36.682,1
4.574136,-1.875,-2.551,-0.36,-88.928,-170.959,-12.023,1
4.582943,-1.991,-2.867,-0.413,-84.35,-184.265,16.235,1
4.589834,-2.265,-3.187,-0.465,-107.238,-195.678,47.912,1
4.598256,-2.621,-3.444,-0.458,-131.408,-208.679,84.228,1
4.605068,-2.984,-3.67,-0.434,-152.526,-223.449,131.591,1
4.612938,-3.371,-3.821,-0.368,-149.536,-239.196,177.368,1
4.620195,-3.909,-4.053,-0.268,-141.662,-254.455,225.952,1
4.629038,-4.461,-4.194,-0.086,-133.789,-268.615,278.564,1
4.636234,-5.121,-4.296,0.211,-126.098,-279.113,334.96,1
4.642994,-5.966,-4.377,0.494,-121.093,-284.301,394.287,1
4.650765,-6.918,-4.409,0.835,-129.333,-285.217,456.054,1
4.658001,-8.014,-4.34,1.209,-148.01,-276.855,522.033,1
4.66583,-9.209,-4.211,1.533,-182.189,-264.099,588.317,1
4.673786,-10.344,-3.86,2.058,-179.992,-247.07,647.888,1
4.680755,-11.599,-3.726,2.414,-176.33,-222.9,716.796,1
4.688787,-12.891,-3.38,2.833,-188.72,-176.696,801.33,1
4.695822,-14.347,-3.096,3.117,-216.979,-130.31,874.877,1
4.703341,-15.942,-2.771,3.514,-260.009,-76.904,936.767,1
4.711378,-15.997,-2.23,3.721,-316.223,5.31,1009.155,1
4.718361,-15.999,-1.64,3.814,-352.783,98.51,1075.5,1
4.726156,-15.999,-0.858,3.697,-367.553,202.575,1134.704,1
4.733545,-15.999,0.215,3.321,-365.6,308.471,1182.922,1
4.741465,-15.999,1.141,2.796,-351.44,415.893,1219.543,1
4.749809,-15.999,1.941,2.234,-333.19,516.845,1243.652,1
4.75736,-15.999,2.711,1.68,-337.585,621.337,1255.249,1
4.763964,-15.999,3.619,1.043,-342.163,719.909,1250.915,1
4.772243,-15.999,4.398,0.552,-336.12,816.65,1237.731,1
4.778911,-15.999,5.154,-0.178,-370.117,914.306,1214.66,1
4.78729,-15.999,5.396,-0.758,-462.036,1014.404,1175.842,1
4.795287,-15.999,5.81,-1.291,-537.658,1138.916,1109.619,1
4.8035,-15.999,5.943,-1.713,-552.246,1245.422,1043.701,1
4.811554,-15.999,5.961,-2.275,-611.572,1343.383,970.031,1
4.820661,-15.999,6.06,-3.175,-692.871,1445.251,877.014,1
4.827386,-15.999,6.417,-4.129,-807.373,1517.272,730.468,1
4.83559,-15.999,6.034,-4.576,-986.328,1580.444,561.889,1
4.842662,-15.999,4.93,-5.683,-1192.993,1626.586,351.806,1
4.851598,-15.999,4.527,-6.369,-1359.619,1608.703,54.138,1
4.858962,-15.999,3.466,-6.181,-1354.919,1553.161,-202.209,1
4.867258,-15.999,2.402,-5.74,-1280.212,1433.288,-426.269,1
4.874092,-15.999,1.935,-4.94,-1052.246,1296.691,-592.468,1
4.882421,-15.999,0.995,-4.417,-719.604,1111.816,-702.27,1
4.89087,-15.999,0.314,-3.838,-497.314,985.778,-743.102,1
4.899114,-15.999,-0.131,-3.922,-346.008,883.666,-755.31,1
4.907172,-15.999,-0.725,-3.924,-289.489,790.649,-755.248,1
4.913953,-15.999,-1.208,-3.835,-333.679,710.754,-747.497,1
4.922208,-15.999,-1.479,-3.696,-423.217,634.216,-744.567,1
4.930824,-15.982,-1.574,-3.232,-499.145,561.706,-742.98,1
4.939192,-13.947,-1.845,-2.913,-553.955,470.153,-739.562,1
4.946134,-12.496,-2.028,-2.587,-572.998,392.211,-728.21,1
4.954375,-11.046,-2.187,-2.44,-558.654,310.302,-709.411,1
4.961634,-9.865,-2.311,-2.053,-517.028,231.75,-684.143,1
4.970357,-8.705,-2.303,-1.882,-418.212,152.648,-642.578,1
4.977047,-7.883,-2.345,-1.698,-311.523,91.796,-603.454,1
4.987098,-7.062,-2.348,-1.591,-223.327,45.41,-562.744,1
4.995447,-6.299,-2.231,-1.444,-138.854,-1.647,-512.329,1
5.003704,-5.601,-2.184,-1.274,-104.736,-26.489,-476.867,1
5.011885,-5.013,-2.171,-1.13,-90.942,-48.522,-437.499,1
5.020322,-4.304,-2.118,-0.969,-78.674,-64.697,-399.108,1
5.029026,-3.814,-2.052,-0.829,-56.945,-76.782,-367.797,1
5.03712,-3.343,-2.035,-0.737,-40.466,-84.594,-337.097,1
5.045035,-3.065,-1.994,-0.675,-40.283,-90.759,-302.734,1
5.053386,-2.743,-1.922,-0.621,-41.809,-94.116,-274.536,1
5.061805,-2.479,-1.854,-0.564,-33.508,-99.243,-243.469,1
5.070159,-2.227,-1.8,-0.507,-19.592,-101.074,-218.444,1
5.07909,-1.963,-1.741,-0.476,-9.643,-102.416,-191.101,1
5.087111,-1.774,-1.657,-0.425,-7.629,-100.585,-166.137,1
5.095776,-1.631,-1.569,-0.402,-10.009,-98.51,-143.188,1
5.10443,-1.508,-1.487,-0.367,-8.605,-96.069,-125.122,1
5.111598,-1.395,-1.406,-0.361,-4.699,-93.566,-106.079,1
5.119978,-1.263,-1.358,-0.347,-2.563,-91.247,-90.698,1
5.129735,-1.143,-1.317,-0.348,-1.953,-88.073,-73.852,1
5.136793,-1.013,-1.261,-0.333,5.676,-85.632,-58.349,1
5.145314,-0.905,-1.24,-0.336,12.451,-83.251,-45.532,1
5.153785,-0.801,-1.203,-0.348,15.319,-80.444,-33.203,1
5.161741,-0.71,-1.134,-0.357,15.686,-77.392,-19.714,1
5.17049,-0.65,-1.063,-0.356,11.413,-74.157,-7.629,1
5.178369,-0.558,-0.994,-0.354,5.859,-70.678,1.464,1
5.187132,-0.496,-0.917,-0.351,0.976,-67.016,10.375,1
5.19385,-0.432,-0.852,-0.36,-7.019,-63.72,19.531,1
5.202001,-0.398,-0.779,-0.357,-15.808,-60.607,26.733,1
5.209328,-0.37,-0.704,-0.355,-24.963,-57.312,33.813,1
5.217583,-0.362,-0.649,-0.354,-31.677,-54.87,39.428,1
5.225923,-0.328,-0.609,-0.358,-37.109,-52.612,44.494,1
5.234466,-0.289,-0.592,-0.353,-42.541,-50.354,50.231,1
5.241113,-0.242,-0.583,-0.365,-45.349,-48.706,54.687,1
5.249751,-0.196,-0.563,-0.345,-46.752,-46.508,59.265,1
5.256448,-0.146,-0.537,-0.359,-44.982,-44.311,63.659,1
5.264694,-0.129,-0.517,-0.358,-44.433,-43.09,67.871,1
5.272556,-0.114,-0.528,-0.358,-48.339,-40.1,72.143,1
5.280857,-0.07,-0.529,-0.367,-58.959,-36.682,76.538,1
5.287464,-0.052,-0.5,-0.379,-71.899,-32.226,80.993,1
5.295369,-0.095,-0.448,-0.386,-87.829,-28.381,85.937,1
5.30367,0.0,-0.43,-0.414,-101.379,-23.132,89.66,1
5.310417,0.028,-0.402,-0.432,-115.966,-19.531,93.139,1
5.318811,0.048,-0.377,-0.44,-129.028,-14.831,96.191,1
5.325328,0.098,-0.351,-0.46,-136.901,-12.268,99.121,1
5.333134,0.14,-0.317,-0.458,-136.657,-8.85,102.539,1
5.34155,0.205,-0.338,-0.478,-137.573,-5.737,105.957,1
5.348533,0.282,-0.344,-0.483,-136.23,-2.014,109.924,1
5.356579,0.338,-0.349,-0.496,-133.544,1.586,113.708,1
5.363689,0.433,-0.37,-0.503,-129.577,6.53,117.675,1
5.371655,0.494,-0.378,-0.544,-136.413,11.779,122.253,1
5.378258,0.545,-0.349,-0.567,-146.24,18.005,126.831,1
5.385445,0.606,-0.308,-0.587,-151.916,23.315,131.408,1
5.39339,0.637,-0.259,-0.606,-156.188,28.198,135.253,1
5.401086,0.653,-0.208,-0.637,-160.583,32.958,138.671,1
5.408023,0.657,-0.159,-0.652,-165.588,37.109,142.211,1
5.416302,0.636,-0.102,-0.681,-168.64,40.771,145.507,1
5.423211,0.626,-0.043,-0.697,-167.053,43.64,148.132,1
5.431563,0.649,-0.012,-0.718,-165.222,46.997,150.451,1
5.438419,0.692,0.019,-0.772,-166.442,50.048,152.282,1
5.445457,0.708,0.061,-0.829,-170.471,52.49,153.869,1
5.453339,0.679,0.12,-0.869,-170.532,54.443,155.151,1
5.461304,0.708,0.183,-0.922,-171.936,54.321,156.494,1
5.467724,0.673,0.235,-0.982,-177.856,55.297,156.738,1
5.474843,0.62,0.296,-1.012,-182.617,55.114,157.104,1
5.482907,0.608,0.374,-1.024,-170.532,55.908,156.494,1
5.489846,0.685,0.394,-1.108,-161.743,54.016,156.25,1
5.496784,0.671,0.422,-1.14,-159.423,51.818,155.7,1
5.505041,0.679,0.459,-1.131,-156.372,50.292,156.005,1
5.511693,0.698,0.506,-1.163,-149.047,49.316,155.944,1
5.518624,0.723,0.549,-1.205,-141.479,45.227,155.334,1
5.52645,0.741,0.574,-1.211,-134.277,41.687,154.785,1
5.533291,0.75,0.589,-1.186,-121.276,36.193,154.296,1
5.541741,0.817,0.611,-1.147,-100.036,30.517,154.357,1
5.548157,0.854,0.599,-1.108,-77.392,23.742,155.09,1
5.5565,0.875,0.558,-1.077,-63.232,18.127,155.578,1
5.563095,0.895,0.509,-1.057,-63.598,13.977,156.799,1
5.571844,0.891,0.496,-1.069,-71.35,11.779,157.592,1
5.578857,0.859,0.49,-1.077,-85.083,9.704,159.057,1
5.585504,0.831,0.554,-1.088,-99.548,9.216,159.912,1
5.593491,0.764,0.611,-1.141,-111.206,6.103,159.362,1
5.600169,0.66,0.683,-1.139,-112.976,3.173,158.203,1
5.60716,0.604,0.759,-1.143,-102.783,-1.037,156.066,1
5.615463,0.572,0.803,-1.115,-86.791,-5.859,153.381,1
5.622037,0.601,0.78,-1.074,-67.749,-11.352,150.085,1
5.629039,0.6,0.749,-1.03,-57.373,-15.686,147.277,1
5.637149,0.631,0.708,-0.971,-56.884,-18.798,145.141,1
5.643726,0.657,0.686,-0.924,-60.791,-20.202,143.371,1
5.651591,0.666,0.676,-0.876,-62.988,-21.85,142.15,1
5.659936,0.668,0.668,-0.842,-63.537,-22.949,141.174,1
5.666568,0.636,0.655,-0.812,-65.856,-23.132,140.563,1
5.674971,0.601,0.659,-0.788,-70.19,-24.169,139.648,1
5.681655,0.573,0.663,-0.758,-71.411,-24.353,138.549,1
5.688291,0.548,0.668,-0.732,-72.387,-25.451,137.573,1
5.695326,0.518,0.675,-0.707,-73.791,-26.0,136.352,1
5.703623,0.509,0.677,-0.696,-77.575,-26.489,134.765,1
5.710472,0.513,0.678,-0.687,-82.763,-26.367,133.361,1
5.717723,0.528,0.683,-0.695,-87.219,-26.55,132.08,1
5.72593,0.53,0.689,-0.7,-89.05,-27.465,130.31,1
5.732638,0.549,0.676,-0.695,-86.364,-28.076,128.784,1
5.740953,0.583,0.65,-0.689,-84.533,-28.198,127.38,1
5.74759,0.616,0.621,-0.691,-86.914,-27.832,126.586,1
5.755228,0.623,0.611,-0.675,-91.979,-27.404,125.61,1
5.76389,0.652,0.612,-0.675,-93.994,-26.0,125.122,1
5.771883,0.631,0.623,-0.663,-91.125,-26.062,124.145,1
5.779998,0.631,0.622,-0.658,-85.388,-25.817,123.657,1
5.786646,0.625,0.621,-0.679,-85.693,-26.672,122.558,1
5.795172,0.625,0.627,-0.675,-87.28,-26.489,122.009,1
5.8032,0.622,0.674,-0.696,-84.899,-27.343,120.117,1
5.811146,0.443,0.682,-0.709,-85.449,-27.893,117.919,1
5.817562,0.64,0.704,-0.693,-87.524,-28.503,115.905,1
5.825927,0.687,0.705,-0.702,-84.533,-28.747,113.952,1
5.834111,0.665,0.725,-0.725,-82.763,-30.639,111.816,1
5.841244,0.615,0.709,-0.726,-79.772,-32.287,109.252,1
5.848003,0.634,0.698,-0.703,-74.584,-32.897,107.788,1
5.856673,0.669,0.691,-0.723,-66.162,-34.667,105.529,1
5.863769,0.691,0.686,-0.715,-59.875,-36.376,103.515,1
5.870779,0.725,0.696,-0.705,-53.527,-37.841,102.233,1
5.878796,0.734,0.704,-0.724,-47.668,-39.428,100.097,1
5.88712,0.745,0.696,-0.727,-46.203,-40.71,97.961,1
5.89558,0.726,0.726,-0.735,-43.518,-41.076,95.52,1
5.902318,0.743,0.705,-0.771,-51.269,-43.457,92.59,1
5.910517,0.729,0.706,-0.765,-63.903,-43.823,89.843,1
5.918977,0.723,0.715,-0.776,-71.899,-45.227,86.608,1
5.927274,0.713,0.713,-0.774,-74.951,-46.63,83.862,1
5.934359,0.702,0.693,-0.766,-75.561,-47.79,81.42,1
5.942153,0.693,0.666,-0.763,-74.89,-48.95,78.002,1
5.950939,0.712,0.653,-0.742,-72.021,-50.537,75.744,1
5.958399,0.725,0.651,-0.725,-66.894,-51.086,73.608,1
5.967036,0.748,0.658,-0.719,-57.434,-52.612,71.533,1
5.974058,0.77,0.666,-0.702,-50.659,-53.161,70.251,1
5.981003,0.801,0.69,-0.719,-41.809,-54.199,68.115,1
5.990407,0.794,0.687,-0.698,-36.071,-55.297,65.917,1
5.99748,0.824,0.673,-0.703,-35.339,-55.664,64.331,1
6.004479,0.831,0.664,-0.694,-40.161,-56.64,62.438,1
6.013243,0.83,0.658,-0.666,-49.133,-56.823,60.852,1
6.021477,0.816,0.653,-0.649,-56.762,-56.762,59.448,1
6.02855,0.793,0.65,-0.622,-62.866,-56.762,57.617,1
6.036829,0.789,0.645,-0.609,-64.025,-56.945,56.335,1
6.045247,0.783,0.658,-0.604,-61.584,-57.128,55.053,1
6.053531,0.781,0.667,-0.605,-55.908,-57.983,53.649,1
6.061569,0.779,0.673,-0.604,-47.729,-59.082,51.574,1
6.068242,0.772,0.669,-0.596,-40.893,-59.875,49.804,1
6.076485,0.762,0.669,-0.583,-34.729,-60.913,48.095,1
6.084689,0.761,0.665,-0.562,-30.212,-61.828,46.325,1
6.093308,0.754,0.66,-0.529,-27.893,-62.316,44.799,1
6.10166,0.749,0.63,-0.498,-31.066,-62.255,43.212,1
6.108824,0.766,0.664,-0.462,-34.79,-60.852,41.259,1
6.116639,0.766,0.656,-0.451,-39.978,-61.279,39.306,1
6.125034,0.801,0.664,-0.448,-42.785,-59.387,38.513,1
6.13163,0.841,0.678,-0.47,-44.616,-60.241,37.109,1
6.14019,0.846,0.666,-0.462,-44.982,-60.18,36.254,1
6.148028,0.852,0.651,-0.476,-46.569,-60.241,34.973,1
6.156658,0.83,0.633,-0.478,-48.522,-60.485,33.752,1
6.163261,0.81,0.616,-0.476,-49.438,-60.302,32.226,1
6.172089,0.796,0.602,-0.458,-47.912,-60.913,31.494,1
6.178602,0.794,0.59,-0.437,-44.921,-61.096,30.395,1
6.187272,0.797,0.575,-0.408,-43.151,-61.096,29.724,1
6.194251,0.805,0.566,-0.379,-40.1,-61.523,28.808,1
6.203008,0.796,0.558,-0.358,-36.865,-61.889,28.381,1
6.209994,0.783,0.551,-0.338,-33.935,-61.889,27.77,1
6.218795,0.778,0.545,-0.329,-36.865,-61.767,27.893,1
6.225312,0.819,0.565,-0.32,-34.118,-61.34,26.428,1
6.234068,0.779,0.556,-0.309,-31.921,-62.194,25.634,1
6.242228,0.776,0.543,-0.294,-30.395,-61.828,25.207,1
6.250634,0.782,0.527,-0.291,-31.311,-62.133,24.414,1
6.257638,0.786,0.515,-0.283,-33.142,-61.889,23.864,1
6.266042,0.773,0.505,-0.275,-34.484,-61.889,23.254,1
6.273873,0.758,0.491,-0.253,-34.729,-61.279,22.766,1
6.280657,0.768,0.481,-0.244,-34.729,-60.913,22.46,1
6.288491,0.781,0.476,-0.241,-33.264,-60.302,22.155,1
6.296575,0.804,0.458,-0.243,-34.179,-60.058,22.644,1
6.304605,0.83,0.5,-0.25,-30.883,-59.082,21.972,1
6.311284,0.75,0.517,-0.249,-28.076,-59.997,20.935,1
6.319795,0.785,0.521,-0.246,-23.254,-59.143,20.507,1
6.32642,0.841,0.508,-0.237,-17.883,-60.119,20.08,1
6.33492,0.821,0.526,-0.23,-12.756,-59.57,19.592,1
6.341523,0.805,0.511,-0.237,-10.253,-60.302,18.981,1
6.349604,0.796,0.49,-0.198,-9.582,-59.753,18.737,1
6.3565,0.796,0.481,-0.21,-11.718,-58.837,18.554,1
6.364847,0.791,0.491,-0.2,-16.662,-58.227,18.554,1
6.371401,0.791,0.492,-0.202,-22.766,-56.701,18.188,1
6.379525,0.845,0.503,-0.207,-28.93,-55.725,18.066,1
6.386481,0.854,0.511,-0.202,-34.118,-54.748,17.883,1
6.394459,0.85,0.526,-0.211,-40.283,-54.077,17.639,1
6.401444,0.844,0.532,-0.207,-44.982,-53.405,17.15,1
6.408914,0.846,0.538,-0.2,-46.63,-52.673,17.211,1
6.417267,0.849,0.545,-0.198,-45.593,-51.696,16.662,1
6.424062,0.854,0.528,-0.193,-43.457,-51.452,16.357,1
6.430925,0.863,0.553,-0.186,-39.123,-51.147,15.441,1
6.438973,0.857,0.55,-0.187,-32.836,-50.964,14.892,1
6.445891,0.847,0.539,-0.172,-26.55,-50.659,14.343,1
6.454308,0.865,0.54,-0.171,-22.338,-50.17,13.61,1
6.461235,0.857,0.534,-0.162,-21.179,-49.255,12.939,1
6.469608,0.861,0.525,-0.157,-22.521,-48.461,12.512,1
6.476296,0.854,0.523,-0.157,-27.343,-47.058,11.718,1
6.484174,0.846,0.521,-0.163,-33.508,-45.959,11.474,1
6.491019,0.843,0.518,-0.166,-40.588,-44.738,10.925,1
6.498491,0.836,0.516,-0.171,-46.691,-43.64,10.498,1
6.506271,0.828,0.514,-0.169,-51.635,-42.663,10.192,1
6.514549,0.829,0.511,-0.173,-54.565,-42.053,10.07,1
6.522801,0.834,0.509,-0.17,-55.114,-41.32,9.704,1
6.529975,0.849,0.506,-0.17,-53.466,-40.832,9.399,1
6.537745,0.86,0.506,-0.167,-49.987,-40.466,8.972,1
6.546146,0.872,0.508,-0.174,-45.715,-40.222,8.911,1
6.552588,0.883,0.509,-0.178,-41.32,-40.1,8.789,1
6.560981,0.888,0.504,-0.181,-39.001,-40.039,8.422,1
6.567284,0.892,0.501,-0.184,-39.306,-39.55,8.422,1
6.575583,0.893,0.5,-0.189,-42.114,-38.574,7.812,1
6.585318,0.885,0.496,-0.197,-47.302,-37.902,7.568,1
6.592205,0.879,0.507,-0.211,-54.565,-36.743,7.202,1
6.600993,0.879,0.522,-0.216,-58.349,-36.132,7.324,1
6.609839,0.912,0.542,-0.229,-58.898,-36.01,6.835,1
6.616418,0.906,0.56,-0.234,-55.786,-35.827,6.347,1
6.625045,0.9,0.572,-0.246,-50.842,-36.499,6.103,1
6.631986,0.893,0.576,-0.25,-46.447,-37.048,5.31,1
6.64092,0.888,0.568,-0.259,-43.64,-37.353,4.394,1
6.649163,0.895,0.557,-0.26,-42.907,-37.597,4.211,1
6.656227,0.91,0.556,-0.26,-43.823,-37.414,3.295,1
6.664057,0.907,0.555,-0.251,-45.593,-37.597,2.868,1
6.67229,0.905,0.557,-0.251,-47.18,-37.719,2.441,1
6.680851,0.897,0.554,-0.243,-47.973,-37.658,1.953,1
6.687429,0.898,0.559,-0.239,-48.217,-37.658,1.586,1
6.695753,0.908,0.565,-0.237,-46.997,-37.963,0.915,1
6.704477,0.917,0.573,-0.24,-45.776,-38.024,0.366,1
6.712866,0.91,0.569,-0.239,-46.447,-38.574,-0.305,1
6.721351,0.9,0.523,-0.245,-52.429,-38.513,-0.549,1
6.728376,0.946,0.548,-0.235,-59.326,-37.841,-1.22,1
6.736754,0.922,0.514,-0.236,-69.702,-39.367,-1.586,1
6.74556,0.926,0.514,-0.222,-79.65,-37.475,-1.403,1
6.752678,0.931,0.514,-0.229,-94.238,-38.024,-1.892,1
6.759742,0.921,0.515,-0.211,-104.064,-36.804,-2.075,1
6.768127,0.923,0.503,-0.235,-113.281,-36.376,-2.136,1
6.776776,0.87,0.532,-0.21,-116.821,-37.17,-2.136,1
6.785695,0.85,0.54,-0.231,-115.844,-38.146,-1.892,1
6.794102,0.842,0.551,-0.217,-111.328,-39.55,-1.953,1
6.801098,0.846,0.533,-0.244,-101.745,-41.259,-2.197,1
6.809816,0.864,0.515,-0.234,-90.637,-43.273,-2.197,1
6.816854,0.928,0.475,-0.245,-81.665,-45.349,-1.647,1
6.825146,0.96,0.442,-0.237,-74.096,-47.302,-0.854,1
6.832645,0.967,0.414,-0.229,-67.26,-48.278,0.488,1
6.841299,1.007,0.385,-0.246,-57.739,-49.316,2.624,1
6.847611,1.009,0.381,-0.278,-51.879,-53.894,3.356,1
6.856307,0.979,0.362,-0.256,-42.785,-54.565,4.943,1
6.86301,0.949,0.349,-0.311,-34.606,-57.434,6.164,1
6.871243,0.917,0.326,-0.316,-28.442,-60.18,7.934,1
6.879863,0.99,0.306,-0.355,-22.583,-62.499,9.643,1
6.888072,0.984,0.292,-0.351,-17.333,-65.185,10.742,1
6.89483,0.933,0.282,-0.377,-13.183,-66.711,11.657,1
6.903114,0.891,0.289,-0.38,-11.352,-68.42,12.268,1
6.911102,0.854,0.296,-0.392,-10.864,-69.152,12.878,1
6.919301,0.788,0.32,-0.397,-10.62,-70.312,12.451,1
6.926375,0.732,0.342,-0.402,-12.023,-70.068,11.535,1
6.934663,0.636,0.371,-0.396,-17.211,-68.725,9.643,1
6.941673,0.613,0.406,-0.392,-26.0,-65.307,6.53,1
6.94867,0.687,0.422,-0.382,-41.198,-62.988,3.173,1
6.956855,0.755,0.45,-0.333,-45.959,-62.194,1.22,1
6.965575,0.826,0.489,-0.255,-37.475,-62.255,0.366,1
6.973546,0.851,0.514,-0.18,-21.728,-63.293,0.183,1
6.980235,0.824,0.553,-0.111,-6.835,-64.208,0.183,1
6.98837,0.808,0.566,-0.058,3.479,-65.368,0.061,1
6.997168,0.8,0.584,-0.007,2.563,-64.941,-0.549,1
7.005476,0.785,0.617,0.038,-11.657,-63.781,-1.159,1
7.01255,0.768,0.633,0.068,-33.264,-60.852,-1.77,1
7.021275,0.787,0.666,0.098,-56.945,-57.739,-3.54,1
7.028457,0.835,0.695,0.111,-76.293,-54.931,-5.065,1
7.037191,0.889,0.715,0.134,-87.951,-51.696,-6.896,1
7.045627,0.955,0.734,0.152,-94.726,-48.767,-9.155,1
7.054061,0.978,0.744,0.176,-95.092,-46.569,-11.413,1
7.060736,0.997,0.755,0.204,-92.407,-44.738,-13.549,1
7.069418,0.998,0.759,0.217,-88.562,-43.09,-15.258,1
7.078325,0.986,0.767,0.242,-85.449,-41.442,-17.089,1
7.085226,0.966,0.778,0.259,-83.312,-39.184,-18.554,1
7.093695,1.0,0.798,0.287,-79.162,-37.414,-20.996,1
7.100644,1.088,0.834,0.314,-77.758,-34.667,-23.193,1
7.108886,1.077,0.84,0.304,-72.448,-32.653,-26.0,1
7.117516,1.045,0.84,0.325,-65.734,-30.822,-28.564,1
7.125721,1.06,0.808,0.309,-62.988,-28.32,-31.249,1
7.132246,1.046,0.791,0.319,-67.077,-25.878,-33.691,1
7.140975,1.049,0.768,0.32,-75.012,-22.521,-36.621,1
7.147893,1.072,0.75,0.332,-87.463,-18.92,-39.916,1
7.154875,1.064,0.735,0.337,-99.548,-15.136,-42.48,1
7.163262,1.052,0.731,0.349,-111.755,-12.145,-44.433,1
7.170968,1.061,0.725,0.346,-124.328,-8.911,-46.203,1
7.177511,1.055,0.718,0.347,-139.16,-5.554,-47.607,1
7.185863,1.023,0.715,0.336,-157.958,-2.807,-48.767,1
7.192694,1.002,0.731,0.305,-175.292,-0.671,-49.926,1
7.201086,0.988,0.749,0.277,-183.288,-0.244,-50.659,1
7.209726,0.989,0.779,0.247,-178.833,0.305,-51.879,1
7.216464,1.014,0.795,0.198,-161.499,-1.342,-54.016,1
7.224651,1.056,0.79,0.159,-134.46,-3.784,-56.945,1
7.231337,1.103,0.749,0.124,-102.905,-6.286,-59.509,1
7.239957,1.139,0.687,0.101,-76.11,-8.544,-61.828,1
7.246969,1.119,0.623,0.091,-57.983,-9.46,-63.659,1
7.255324,1.066,0.575,0.098,-46.447,-9.948,-66.04,1
7.264824,1.018,0.525,0.118,-40.1,-9.582,-67.626,1
7.271804,0.96,0.457,0.125,-38.635,-8.911,-68.908,1
7.278952,0.931,0.4,0.143,-41.87,-7.385,-69.58,1
7.287204,0.947,0.359,0.139,-47.729,-5.92,-69.519,1
7.293704,0.948,0.349,0.143,-52.368,-4.272,-69.274,1
7.301637,0.958,0.35,0.14,-53.039,-3.417,-69.274,1
7.308677,0.94,0.353,0.13,-50.598,-2.502,-69.519,1
7.317014,0.944,0.347,0.115,-45.471,-2.746,-70.19,1
7.323668,0.937,0.33,0.109,-41.015,-2.136,-70.861,1
7.330684,0.924,0.302,0.102,-37.902,-2.075,-71.533,1
7.337696,0.918,0.269,0.097,-37.719,-1.037,-72.265,1
7.345751,0.92,0.225,0.084,-39.916,-0.366,-72.448,1
7.354037,0.937,0.189,0.078,-47.241,0.915,-72.57,1
7.361796,0.961,0.162,0.066,-56.213,2.136,-71.838,1
7.368682,0.981,0.169,0.065,-60.058,3.112,-71.289,1
7.377066,0.986,0.187,0.054,-58.044,3.662,-71.411,1
7.383789,0.956,0.197,0.036,-53.1,3.906,-71.716,1
7.39211,0.973,0.172,0.007,-51.696,3.967,-71.838,1
7.400297,0.965,0.142,-0.003,-54.687,3.906,-71.411,1
7.407311,0.956,0.119,-0.013,-60.119,4.638,-70.8,1
7.414127,0.946,0.086,-0.036,-66.65,4.089,-69.58,1
7.422839,0.948,0.056,-0.042,-73.181,4.028,-67.687,1
7.429869,0.937,0.043,-0.049,-77.514,3.479,-65.856,1
7.438242,0.902,0.029,-0.051,-78.918,2.502,-63.293,1
7.445203,0.828,0.017,-0.06,-79.833,1.281,-60.607,1
7.454921,0.849,0.023,-0.057,-75.561,-0.915,-58.288,1
7.461732,0.868,0.015,-0.045,-65.429,-3.479,-55.847,1
7.469972,0.799,0.012,-0.036,-57.434,-5.371,-54.199,1
7.477931,0.799,0.005,-0.021,-50.903,-7.507,-53.405,1
7.484873,0.811,-0.034,0.001,-49.377,-8.728,-52.673,1
7.494445,0.858,-0.071,0.045,-50.17,-9.704,-51.269,1
7.500953,0.902,-0.107,0.098,-51.452,-9.948,-50.109,1
7.509231,0.933,-0.091,0.18,-49.804,-10.437,-49.011,1
7.517524,0.973,-0.093,0.268,-38.574,-11.108,-49.133,1
7.52581,1.002,-0.098,0.357,-28.259,-11.108,-49.011,1
7.533622,1.02,-0.115,0.449,-19.348,-9.46,-49.56,1
7.541303,1.02,-0.144,0.505,-18.92,-6.835,-50.17,1
7.548792,1.06,-0.171,0.566,-25.451,-3.234,-50.842,1
7.557965,1.099,-0.182,0.62,-32.775,1.22,-51.818,1
7.564625,1.14,-0.189,0.666,-38.94,5.737,-52.612,1
7.573024,1.175,-0.185,0.709,-38.818,10.314,-53.039,1
7.581335,1.196,-0.185,0.717,-37.048,14.587,-53.649,1
7.588189,1.195,-0.176,0.713,-34.729,19.287,-54.26,1
7.594935,1.086,-0.147,0.689,-31.921,23.254,-55.236,1
7.602929,1.19,-0.098,0.686,-23.559,27.16,-57.128,1
7.609593,1.23,-0.109,0.614,-19.897,31.433,-59.814,1
7.617677,1.154,-0.137,0.53,-28.137,36.132,-62.499,1
7.624414,1.113,-0.133,0.475,-48.645,40.954,-66.284,1
7.632175,1.125,-0.106,0.442,-62.866,45.837,-69.946,1
7.638945,1.112,-0.086,0.382,-67.565,49.56,-73.181,1
7.646957,1.076,-0.061,0.322,-65.429,51.879,-76.171,1
7.654033,1.062,-0.031,0.251,-59.814,53.039,-78.063,1
7.661516,1.068,-0.016,0.169,-52.978,53.161,-80.505,1
7.669539,1.099,-0.007,0.119,-47.058,52.124,-83.068,1
7.676235,1.13,0.003,0.076,-41.748,51.025,-84.899,1
7.684193,1.035,0.01,0.03,-33.996,47.607,-86.73,1
7.690547,0.93,0.025,0.009,-22.583,44.616,-87.707,1
7.698667,0.849,0.021,-0.04,-13.488,41.503,-87.951,1
7.70508,0.878,-0.054,-0.117,-13.0,37.414,-87.89,1
7.713215,0.892,-0.129,-0.195,-26.55,34.79,-86.364,1
7.719857,0.833,-0.19,-0.283,-50.842,32.287,-83.557,1
7.727928,0.723,-0.189,-0.357,-75.561,29.846,-80.932,1
7.73473,0.531,-0.166,-0.464,-89.904,26.0,-79.467,1
7.74273,0.305,-0.162,-0.561,-100.28,20.629,-79.284,1
7.749429,0.136,-0.197,-0.676,-108.276,14.892,-80.322,1
7.757362,-0.054,-0.251,-0.801,-115.661,6.774,-82.153,1
7.765424,-0.257,-0.335,-0.912,-119.445,-1.403,-84.411,1
7.773256,-0.479,-0.459,-1.025,-120.117,-11.047,-86.059,1
7.779814,-0.664,-0.609,-1.123,-117.797,-21.728,-86.608,1
7.787998,-0.806,-0.75,-1.232,-110.656,-33.813,-85.693,1
7.796022,-0.985,-0.86,-1.342,-94.482,-48.461,-83.496,1
7.803257,-1.152,-1.033,-1.466,-75.195,-64.636,-80.139,1
7.809881,-1.268,-1.269,-1.62,-71.716,-81.726,-74.279,1
7.817859,-1.413,-1.509,-1.752,-79.772,-99.67,-65.307,1
7.825312,-1.558,-1.736,-1.861,-88.134,-120.971,-53.649,1
7.833831,-1.818,-1.93,-1.884,-85.571,-143.493,-39.794,1
7.841511,-2.174,-2.159,-1.867,-87.097,-164.184,-22.644,1
7.848208,-2.319,-2.437,-1.986,-106.14,-185.302,-0.61,1
7.856773,-2.608,-2.65,-2.009,-117.004,-213.073,25.024,1
7.863324,-3.013,-2.85,-2.007,-101.806,-238.586,54.016,1
7.871789,-3.407,-3.031,-1.99,-70.678,-271.362,85.632,1
7.878346,-3.877,-3.209,-1.898,-30.273,-302.063,119.201,1
7.886273,-4.561,-3.368,-1.813,1.953,-336.608,153.442,1
7.893024,-5.332,-3.517,-1.631,28.625,-367.919,190.124,1
7.901092,-6.163,-3.735,-1.476,37.963,-398.437,229.675,1
7.908673,-7.053,-4.016,-1.257,19.287,-426.269,273.986,1
7.915351,-8.049,-4.276,-0.936,-3.54,-446.655,315.795,1
7.923265,-8.98,-4.423,-0.585,-27.038,-467.102,372.375,1
7.931256,-10.291,-4.635,-0.072,-54.077,-480.407,435.241,1
7.938084,-11.832,-4.744,0.435,-104.736,-481.018,505.737,1
7.946199,-13.319,-4.802,1.046,-152.526,-473.388,582.885,1
7.953071,-14.964,-4.866,1.676,-187.683,-452.453,667.907,1
7.960616,-15.999,-4.909,2.341,-255.981,-418.273,761.718,1
7.967196,-15.999,-4.734,3.078,-341.125,-367.37,846.252,1
7.97502,-15.999,-4.253,3.754,-462.158,-280.578,952.941,1
7.983155,-15.999,-3.635,4.243,-570.983,-162.536,1059.936,1
7.990617,-15.999,-2.605,4.567,-632.446,-16.235,1158.386,1
7.997802,-15.999,-1.317,4.529,-649.047,146.545,1238.464,1
8.005509,-15.999,0.079,4.046,-651.367,315.185,1292.785,1
8.012641,-15.999,1.632,3.485,-628.54,481.872,1318.298,1
8.020453,-15.999,3.147,2.744,-582.458,643.92,1316.772,1
8.028794,-15.999,4.39,1.687,-578.613,798.156,1289.184,1
8.037099,-15.999,5.359,0.652,-595.397,958.984,1247.314,1
8.043765,-15.999,6.112,0.004,-571.289,1096.008,1195.434,1
8.051731,-15.999,6.225,-1.207,-595.703,1225.647,1143.005,1
8.058511,-15.999,6.251,-2.156,-685.058,1338.806,1076.232,1
8.066881,-15.999,6.317,-3.006,-763.732,1456.787,983.459,1
8.074908,-15.999,6.18,-4.036,-903.808,1579.772,839.477,1
8.083314,-15.999,6.66,-4.872,-1043.396,1665.527,660.583,1
8.08959,-15.999,5.693,-6.13,-1256.652,1721.008,431.579,1
8.099366,-15.999,5.151,-6.521,-1406.005,1723.327,157.653,1
8.105604,-15.999,4.06,-6.454,-1507.568,1668.823,-135.742,1
8.113569,-15.999,3.022,-5.595,-1480.59,1533.142,-456.42,1
8.122004,-15.999,2.079,-4.888,-1310.851,1366.271,-669.616,1
8.130009,-15.999,1.438,-3.644,-1029.785,1180.969,-807.311,1
8.138256,-15.999,0.851,-3.315,-604.553,989.379,-884.948,1
8.146504,-15.999,-0.113,-3.192,-310.363,843.078,-894.348,1
8.154853,-15.999,-0.722,-3.378,-205.81,761.291,-874.267,1
8.163,-15.999,-1.176,-3.365,-213.134,672.424,-845.825,1
8.171132,-15.999,-1.469,-3.318,-269.47,615.661,-820.983,1
8.17952,-15.999,-1.45,-3.174,-357.971,536.193,-804.199,1
8.188057,-15.499,-1.633,-2.787,-428.039,453.857,-784.973,1
8.196046,-13.022,-1.817,-2.518,-480.773,353.21,-762.634,1
8.20408,-11.696,-1.91,-2.102,-483.032,274.23,-733.703,1
8.212143,-10.138,-1.884,-1.755,-429.138,193.725,-698.608,1
8.22028,-9.291,-1.702,-1.331,-291.076,111.022,-652.465,1
8.228331,-8.553,-1.839,-1.18,-175.72,63.72,-610.29,1
8.236281,-7.638,-1.879,-1.067,-93.261,18.676,-563.476,1
8.244595,-7.096,-1.885,-0.922,-32.104,-2.624,-525.39,1
8.254353,-6.333,-1.918,-0.881,8.483,-23.498,-485.778,1
8.261063,-5.677,-2.003,-0.75,20.324,-31.799,-452.88,1
8.26912,-5.12,-2.097,-0.715,0.427,-38.269,-416.381,1
8.277231,-4.558,-2.165,-0.641,-32.836,-41.137,-386.23,1
8.287108,-3.992,-2.166,-0.559,-66.772,-45.959,-352.233,1
8.293485,-3.59,-2.147,-0.458,-85.266,-49.682,-323.73,1
8.303391,-3.2,-2.123,-0.4,-89.66,-54.321,-295.104,1
8.31005,-2.901,-2.079,-0.337,-68.481,-60.607,-262.634,1
8.318403,-2.551,-2.062,-0.31,-36.437,-64.697,-235.656,1
8.326379,-2.235,-2.062,-0.294,-1.892,-67.626,-205.749,1
8.334662,-1.945,-2.043,-0.293,16.479,-66.833,-181.701,1
8.342808,-1.658,-2.0,-0.291,21.972,-65.124,-158.63,1
8.350511,-1.446,-1.948,-0.273,17.211,-60.668,-132.69,1
8.358694,-1.288,-1.868,-0.268,14.526,-57.189,-111.938,1
8.366856,-1.133,-1.796,-0.257,15.319,-53.283,-89.416,1
8.374851,-1.01,-1.737,-0.262,13.549,-49.377,-71.289,1
8.383497,-0.877,-1.625,-0.279,12.084,-46.386,-53.833,1
8.391814,-0.805,-1.524,-0.3,11.535,-42.907,-35.766,1
8.399738,-0.742,-1.424,-0.33,8.361,-40.222,-18.798,1
8.408226,-0.694,-1.33,-0.346,8.544,-38.452,-5.493,1
8.415246,-0.647,-1.228,-0.361,14.038,-36.743,6.591,1
8.423862,-0.608,-1.143,-0.375,18.188,-35.156,17.7,1
8.430441,-0.573,-1.048,-0.382,18.005,-33.325,27.587,1
8.438828,-0.544,-0.976,-0.395,11.596,-29.602,38.146,1
8.447255,-0.521,-0.894,-0.408,0.976,-26.123,46.508,1
8.455461,-0.496,-0.822,-0.427,-14.526,-22.033,53.588,1
8.464217,-0.468,-0.753,-0.467,-40.588,-16.784,61.279,1
8.47126,-0.415,-0.691,-0.504,-64.025,-12.329,67.199,1
8.48,-0.334,-0.614,-0.552,-81.909,-8.544,73.608,1
8.488161,-0.262,-0.573,-0.59,-88.867,-6.347,78.857,1
8.496555,-0.187,-0.549,-0.645,-94.177,-4.455,84.594,1
8.503911,-0.154,-0.533,-0.7,-96.313,-2.502,89.111,1
8.512163,-0.09,-0.517,-0.765,-92.529,-1.647,94.97,1
8.520497,-0.03,-0.514,-0.809,-82.031,-1.647,100.097,1
8.528546,0.025,-0.507,-0.832,-65.063,-1.525,104.98,1
8.536945,0.152,-0.523,-0.886,-61.523,-0.244,111.267,1
8.543745,0.265,-0.498,-0.959,-70.251,2.197,116.577,1
8.550736,0.297,-0.451,-0.995,-78.186,3.784,121.398,1
8.558801,0.293,-0.373,-1.02,-78.491,5.493,125.854,1
8.567,0.273,-0.228,-1.021,-67.871,4.882,129.028,1
8.574039,0.493,-0.246,-1.078,-61.34,5.981,131.469,1
8.582158,0.464,-0.213,-1.088,-68.115,5.554,134.277,1
8.58955,0.513,-0.156,-1.109,-79.772,8.056,137.878,1
8.599026,0.544,-0.091,-1.124,-85.754,6.958,140.38,1
8.605252,0.556,0.008,-1.076,-71.044,7.934,143.127,1
8.613441,0.592,-0.002,-1.101,-66.223,5.065,145.568,1
8.622082,0.632,0.013,-1.067,-70.678,7.202,147.46,1
8.628425,0.616,0.036,-1.102,-77.209,9.033,149.658,1
8.636773,0.645,0.096,-1.1,-82.519,8.972,150.756,1
8.645011,0.704,0.147,-1.096,-79.65,9.216,151.489,1
8.651988,0.74,0.175,-1.084,-69.58,7.263,151.062,1
8.660317,0.776,0.178,-1.066,-60.974,6.652,151.123,1
8.668257,0.844,0.17,-1.069,-57.8,6.164,150.939,1
8.675277,0.922,0.163,-1.068,-60.607,7.202,150.939,1
8.683437,0.897,0.185,-1.128,-71.655,8.911,151.306,1
8.692223,0.899,0.232,-1.133,-90.026,10.009,151.367,1
8.698425,0.93,0.291,-1.123,-105.407,12.145,151.916,1
8.706149,0.907,0.349,-1.087,-119.628,12.39,151.0,1
8.714497,0.826,0.37,-1.084,-131.896,15.869,150.146,1
8.721555,0.768,0.402,-1.036,-145.507,17.456,148.315,1
8.729783,0.696,0.437,-0.992,-158.447,19.592,146.545,1
8.737975,0.703,0.465,-0.94,-166.32,20.202,144.47,1
8.744933,0.678,0.485,-0.883,-159.606,22.155,142.883,1
8.751838,0.668,0.536,-0.875,-148.559,19.958,140.136,1
8.760108,0.679,0.564,-0.807,-129.15,19.897,137.084,1
8.768281,0.679,0.582,-0.835,-113.83,18.066,133.3,1
8.774999,0.648,0.586,-0.79,-103.637,16.906,129.15,1
8.783652,0.666,0.562,-0.785,-100.83,17.333,125.732,1
8.792386,0.671,0.532,-0.765,-106.201,17.7,121.582,1
8.798963,0.685,0.509,-0.743,-114.379,19.287,118.896,1
8.807728,0.695,0.507,-0.726,-121.154,20.568,116.577,1
8.814172,0.705,0.48,-0.733,-126.403,22.277,114.257,1
8.821137,0.72,0.458,-0.71,-130.676,23.62,112.67,1
8.828693,0.678,0.428,-0.704,-134.826,25.573,111.145,1
8.837264,0.744,0.412,-0.673,-135.925,26.245,109.68,1
8.844949,0.764,0.402,-0.663,-134.765,27.465,108.642,1
8.851555,0.778,0.396,-0.663,-134.887,27.832,106.75,1
8.859238,0.741,0.394,-0.658,-135.986,28.93,105.041,1
8.86742,0.699,0.398,-0.676,-137.512,30.151,103.21,1
8.875215,0.662,0.409,-0.685,-135.498,30.7,101.379,1
8.882978,0.636,0.409,-0.695,-129.028,31.127,99.121,1
8.891749,0.636,0.402,-0.707,-119.445,31.066,97.045,1
8.898744,0.634,0.398,-0.722,-108.825,30.822,95.153,1
8.906886,0.622,0.392,-0.725,-96.252,30.029,92.712,1
8.914674,0.6,0.383,-0.73,-85.693,29.846,91.003,1
8.921707,0.576,0.362,-0.734,-77.331,29.663,89.294,1
8.928688,0.571,0.344,-0.741,-72.509,29.724,87.768,1
8.936488,0.569,0.335,-0.772,-72.265,30.517,86.364,1
8.944878,0.566,0.33,-0.808,-76.904,31.005,84.777,1
8.951539,0.554,0.321,-0.829,-83.923,31.494,83.312,1
8.959844,0.536,0.312,-0.86,-91.674,32.043,82.153,1
8.96804,0.537,0.299,-0.875,-97.045,32.043,80.871,1
8.975004,0.48,0.285,-0.881,-99.121,32.226,79.65,1
8.983676,0.492,0.256,-0.88,-98.937,31.005,78.247,1
8.990206,0.468,0.225,-0.842,-92.834,31.066,77.575,1
8.997213,0.43,0.195,-0.82,-84.533,28.991,77.148,1
9.004952,0.405,0.159,-0.759,-71.411,27.893,77.026,1
9.013369,0.399,0.123,-0.71,-55.908,27.526,76.965,1
9.021042,0.435,0.122,-0.698,-38.33,26.916,78.002,1
9.027668,0.505,0.137,-0.674,-21.972,25.939,79.162,1
9.034802,0.599,0.149,-0.666,-11.047,26.306,80.139,1
9.04254,0.659,0.157,-0.679,-10.192,26.611,80.932,1
9.051011,0.665,0.165,-0.677,-18.371,27.343,81.298,1
9.057963,0.655,0.179,-0.679,-34.301,29.113,81.359,1
9.066128,0.664,0.185,-0.658,-55.969,31.249,81.909,1
9.073259,0.642,0.205,-0.642,-78.063,34.179,81.909,1
9.08008,0.58,0.234,-0.611,-92.834,34.667,81.237,1
9.088286,0.577,0.238,-0.551,-96.496,35.522,80.566,1
9.096917,0.582,0.242,-0.535,-90.515,36.132,80.322,1
9.103549,0.557,0.25,-0.548,-75.195,35.827,80.017,1
9.111339,0.516,0.273,-0.585,-54.809,34.667,79.406,1
9.119613,0.482,0.284,-0.62,-32.592,32.531,78.063,1
9.126244,0.463,0.289,-0.634,-10.192,29.113,76.843,1
9.134524,0.462,0.285,-0.629,11.962,26.0,75.439,1
9.141041,0.444,0.265,-0.624,32.47,22.399,73.913,1
9.149208,0.412,0.24,-0.606,50.476,19.287,72.387,1
9.15805,0.393,0.207,-0.596,64.453,16.296,71.289,1
9.165094,0.385,0.164,-0.573,71.35,13.854,70.8,1
9.173276,0.409,0.116,-0.542,72.631,12.634,70.495,1
9.180243,0.438,0.076,-0.517,68.725,12.268,70.861,1
9.188958,0.473,0.052,-0.487,59.387,13.549,71.899,1
9.195502,0.484,0.035,-0.467,47.607,14.892,73.059,1
9.203932,0.494,0.024,-0.439,33.142,17.456,74.89,1
9.212087,0.503,0.022,-0.422,17.639,20.751,76.477,1
9.218972,0.495,0.026,-0.405,1.77,23.925,77.697,1
9.227581,0.482,0.023,-0.377,-10.681,26.916,79.406,1
9.234524,0.476,0.026,-0.352,-17.639,29.296,81.237,1
9.243138,0.475,0.024,-0.311,-18.371,30.883,82.946,1
9.250109,0.487,0.03,-0.29,-12.207,32.836,85.266,1
9.257936,0.493,0.044,-0.29,0.061,33.691,87.89,1
9.264923,0.482,0.06,-0.316,17.7,33.874,89.721,1
9.273199,0.482,0.038,-0.322,30.639,32.226,91.613,1
9.279814,0.47,0.027,-0.286,31.616,34.423,94.726,1
9.288025,0.491,0.043,-0.325,26.855,36.926,97.045,1
9.294955,0.493,0.077,-0.332,16.235,38.574,99.243,1
9.301924,0.479,0.103,-0.352,2.746,42.846,101.257,1
9.310531,0.471,0.14,-0.386,-12.329,45.043,102.905,1
9.317582,0.458,0.206,-0.39,-20.935,47.973,104.248,1
9.32454,0.465,0.261,-0.42,-18.798,49.804,104.98,1
9.332251,0.449,0.338,-0.441,-6.042,49.56,105.224,1
9.339147,0.433,0.404,-0.473,13.671,49.438,104.919,1
9.347879,0.406,0.455,-0.53,30.944,48.278,104.309,1
9.355102,0.456,0.479,-0.566,42.541,47.485,103.271,1
9.362007,0.413,0.501,-0.637,41.259,49.255,103.332,1
9.370113,0.393,0.528,-0.729,16.967,51.025,102.6,1
9.376427,0.362,0.573,-0.789,-23.62,55.725,101.928,1
9.385254,0.354,0.66,-0.884,-64.941,59.692,99.792,1
9.392054,0.32,0.772,-0.941,-89.294,61.95,96.923,1
9.400358,0.31,0.887,-0.991,-86.364,62.744,93.749,1
9.40701,0.29,0.983,-1.048,-58.532,59.692,89.843,1
9.415523,0.293,1.03,-1.088,-18.737,55.664,85.632,1
9.422388,0.327,1.04,-1.125,22.766,49.926,81.97,1
9.431183,0.354,1.035,-1.136,60.729,44.799,78.491,1
9.438379,0.367,1.018,-1.168,84.655,41.137,75.378,1
9.4446,0.328,1.003,-1.192,90.148,38.146,71.777,1
9.453279,0.3,1.003,-1.202,82.214,36.987,68.786,1
9.459778,0.291,0.995,-1.208,66.406,36.193,65.246,1
9.468434,0.274,0.986,-1.193,47.18,36.56,61.523,1
9.475446,0.252,0.982,-1.184,28.564,36.926,57.8,1
9.484131,0.238,0.967,-1.146,14.16,37.536,54.26,1
9.491347,0.237,0.958,-1.122,7.507,37.353,50.598,1
9.498364,0.229,0.94,-1.105,9.155,36.926,47.18,1
9.507234,0.223,0.925,-1.093,15.563,36.01,43.823,1
9.515999,0.214,0.893,-1.099,21.362,34.667,39.978,1
9.5221,0.21,0.864,-1.101,21.057,34.179,37.78,1
9.530694,0.21,0.851,-1.104,16.235,34.24,35.095,1
9.537799,0.206,0.837,-1.094,9.399,34.118,32.104,1
9.544701,0.199,0.823,-1.076,5.126,34.545,29.785,1
9.553147,0.181,0.793,-1.057,3.295,34.362,27.099,1
9.559843,0.176,0.759,-1.025,3.295,34.301,24.597,1
9.56778,0.19,0.717,-0.993,4.943,34.423,22.583,1
9.574665,0.194,0.68,-0.973,6.347,35.156,20.874,1
9.583161,0.185,0.645,-0.982,-0.671,36.437,19.226,1
9.590276,0.159,0.616,-0.988,-16.723,38.146,17.456,1
9.597203,0.155,0.615,-1.0,-31.616,39.672,16.052,1
9.605055,0.132,0.623,-0.989,-36.01,39.978,14.16,1
9.613297,0.133,0.625,-0.979,-29.357,39.733,12.939,1
9.620521,0.138,0.615,-0.978,-16.235,38.635,11.474,1
9.628845,0.14,0.576,-0.965,-4.943,38.146,10.498,1
9.635757,0.147,0.537,-0.963,1.037,38.024,9.704,1
9.643589,0.145,0.503,-0.951,3.173,38.024,9.094,1
9.652327,0.143,0.468,-0.933,3.356,38.818,8.789,1
9.65899,0.117,0.455,-0.921,2.319,39.672,8.85,1
9.665955,0.107,0.437,-0.919,0.427,41.015,9.277,1
9.674079,0.112,0.424,-0.913,-2.746,42.541,10.009,1
9.68241,0.121,0.416,-0.906,-4.76,44.006,10.864,1
9.689153,0.113,0.415,-0.909,-5.92,45.654,12.145,1
9.697909,0.094,0.424,-0.906,-6.225,47.18,13.061,1
9.704934,0.071,0.435,-0.912,-6.652,48.278,13.854,1
9.711953,0.036,0.444,-0.915,-7.019,49.316,14.343,1
9.718685,0.014,0.457,-0.917,-6.469,50.17,15.136,1
9.725613,-0.012,0.477,-0.912,-3.601,50.292,15.686,1
9.734275,-0.043,0.478,-0.908,-0.488,50.292,16.174,1
9.740414,-0.057,0.476,-0.911,3.295,49.987,16.418,1
9.747612,-0.061,0.463,-0.91,4.76,49.133,17.089,1
9.755841,-0.052,0.459,-0.91,3.479,48.889,17.395,1
9.762561,-0.045,0.46,-0.913,0.61,48.034,17.822,1
9.769587,-0.038,0.462,-0.91,-0.366,47.485,18.127,1
9.77828,-0.03,0.464,-0.901,0.793,46.447,18.493,1
9.784949,-0.022,0.468,-0.892,4.394,45.41,19.042,1
9.791639,-0.005,0.469,-0.884,9.094,44.006,19.531,1
9.798663,-0.001,0.461,-0.878,13.427,43.334,19.775,1
9.807029,-0.003,0.464,-0.872,16.967,42.297,20.629,1
9.814177,-0.009,0.464,-0.875,17.211,42.053,21.118,1
9.821171,-0.016,0.471,-0.878,13.427,42.358,21.728,1
9.828303,-0.032,0.479,-0.882,8.239,42.236,21.789,1
9.835152,-0.037,0.485,-0.885,2.38,42.541,21.85,1
9.843959,-0.049,0.494,-0.889,-2.563,42.785,22.033,1
9.850641,-0.05,0.493,-0.895,-3.601,42.846,21.728,1
9.857371,-0.062,0.499,-0.9,-1.831,42.297,21.667,1
9.86436,-0.069,0.503,-0.896,3.417,41.564,21.606,1
9.872045,-0.069,0.5,-0.895,11.047,40.527,21.85,1
9.878902,-0.068,0.505,-0.906,19.592,39.306,21.789,1
9.88723,-0.072,0.499,-0.912,25.329,38.452,21.545,1
9.893641,-0.069,0.492,-0.921,27.282,37.902,21.423,1
9.900641,-0.074,0.489,-0.929,26.245,37.719,21.484,1
9.908595,-0.079,0.481,-0.947,22.094,37.902,21.179,1
9.91558,-0.084,0.48,-0.964,15.502,38.146,20.812,1
9.922648,-0.082,0.473,-0.977,8.666,38.818,20.69,1
9.931385,-0.088,0.466,-0.999,0.183,39.184,20.141,1
9.938207,-0.09,0.459,-1.009,-8.605,40.039,19.836,1
9.944762,-0.08,0.456,-1.036,-16.662,40.466,19.165,1
9.95194,-0.095,0.45,-1.038,-20.263,40.405,19.104,1
9.960227,-0.116,0.45,-1.067,-20.812,40.405,18.92,1
9.966899,-0.112,0.456,-1.083,-18.005,39.184,18.554,1
9.975163,-0.112,0.449,-1.097,-12.817,38.33,18.554,1
9.981391,-0.124,0.451,-1.124,-7.995,36.865,18.31,1
9.989682,-0.135,0.451,-1.135,-5.493,35.4,18.066,1
9.996293,-0.149,0.457,-1.151,-4.211,34.484,17.822,1
