timestamp_s,ax,ay,az,gx,gy,gz,label
0.004392,-0.256,0.961,-0.09,0.732,-0.305,0.305,1
0.012274,-0.249,0.966,-0.089,0.549,-0.244,0.366,1
0.021271,-0.25,0.965,-0.095,0.244,-0.244,0.183,1
0.028218,-0.248,0.969,-0.085,0.427,-0.488,0.427,1
0.036,-0.248,0.969,-0.089,0.488,-0.305,0.305,1
0.044244,-0.247,0.971,-0.09,0.549,-0.305,0.305,1
0.051031,-0.248,0.969,-0.089,0.915,-0.549,0.122,1
0.058946,-0.25,0.97,-0.089,0.488,-0.122,0.0,1
0.067092,-0.252,0.974,-0.093,0.244,-0.061,0.122,1
0.075612,-0.248,0.971,-0.092,0.122,-0.122,0.061,1
0.084239,-0.25,0.974,-0.091,0.305,-0.183,-0.061,1
0.09259,-0.248,0.977,-0.092,0.305,-0.244,-0.244,1
0.100531,-0.248,0.972,-0.085,0.183,-0.183,-0.366,1
0.109002,-0.25,0.975,-0.085,0.244,-0.122,-0.61,1
0.118346,-0.248,0.971,-0.086,0.549,-0.305,-0.488,1
0.127006,-0.248,0.968,-0.083,1.098,-0.366,-0.549,1
0.133726,-0.251,0.965,-0.088,0.976,-0.305,-0.549,1
0.141952,-0.25,0.961,-0.085,0.61,-0.183,-0.549,1
0.150639,-0.251,0.961,-0.089,-0.244,-0.122,-0.61,1
0.159552,-0.247,0.964,-0.085,-0.183,-0.183,-0.549,1
0.167252,-0.252,0.958,-0.08,-0.671,-0.061,-0.732,1
0.175948,-0.247,0.958,-0.081,-0.305,0.183,-0.488,1
0.183327,-0.258,0.957,-0.083,-1.159,0.183,-0.183,1
0.193804,-0.251,0.958,-0.08,-0.366,0.061,-0.244,1
0.202248,-0.26,0.958,-0.08,0.671,0.183,-0.244,1
0.210882,-0.25,0.952,-0.08,0.671,0.183,-0.183,1
0.219361,-0.249,0.952,-0.085,0.305,0.366,-0.244,1
0.226263,-0.248,0.956,-0.08,0.244,0.488,-0.183,1
0.234726,-0.245,0.957,-0.08,0.427,0.793,-0.183,1
0.243652,-0.247,0.953,-0.084,0.915,0.732,-0.122,1
0.250699,-0.249,0.955,-0.086,0.793,0.793,0.183,1
0.258568,-0.249,0.952,-0.085,1.159,0.793,0.244,1
0.267927,-0.251,0.954,-0.086,0.915,0.854,0.122,1
0.276317,-0.252,0.952,-0.089,0.793,0.915,0.122,1
0.283606,-0.252,0.955,-0.087,0.427,0.915,0.122,1
0.292268,-0.251,0.954,-0.092,0.366,0.976,0.183,1
0.300669,-0.25,0.961,-0.091,0.244,0.915,0.366,1
0.308027,-0.251,0.962,-0.093,0.183,0.854,0.305,1
0.314967,-0.25,0.971,-0.091,0.061,0.976,0.244,1
0.324195,-0.251,0.969,-0.095,-0.183,1.037,0.427,1
0.332585,-0.25,0.973,-0.097,0.244,0.976,0.305,1
0.338996,-0.25,0.972,-0.1,0.183,0.854,0.244,1
0.347057,-0.245,0.968,-0.104,0.061,0.793,0.183,1
0.354358,-0.248,0.97,-0.1,0.244,0.671,0.061,1
0.36325,-0.254,0.969,-0.103,0.549,0.671,-0.183,1
0.370922,-0.252,0.972,-0.106,0.61,0.549,0.0,1
0.379724,-0.249,0.974,-0.106,0.122,0.366,-0.183,1
0.386739,-0.249,0.975,-0.104,-0.061,0.244,-0.061,1
0.394619,-0.244,0.978,-0.101,0.122,0.122,-0.061,1
0.403438,-0.25,0.978,-0.104,0.122,0.183,-0.427,1
0.411169,-0.247,0.974,-0.1,0.061,-0.122,-0.488,1
0.420884,-0.246,0.97,-0.098,0.732,-0.122,-0.671,1
0.428139,-0.248,0.969,-0.096,0.854,-0.122,-0.671,1
0.436648,-0.246,0.968,-0.093,0.976,-0.122,-0.549,1
0.443406,-0.247,0.97,-0.091,0.793,-0.061,-0.671,1
0.451495,-0.243,0.964,-0.089,0.793,-0.061,-0.671,1
0.459709,-0.242,0.965,-0.087,0.549,-0.122,-0.732,1
0.467953,-0.245,0.966,-0.082,0.549,0.061,-0.854,1
0.476483,-0.242,0.967,-0.078,0.061,0.122,-0.61,1
0.483499,-0.244,0.963,-0.071,0.061,0.305,-0.488,1
0.492665,-0.246,0.964,-0.067,0.488,0.183,-0.732,1
0.499609,-0.24,0.966,-0.065,0.671,0.244,-0.732,1
0.508234,-0.242,0.963,-0.061,0.427,0.61,-0.61,1
0.517207,-0.246,0.961,-0.055,0.366,0.915,-0.793,1
0.52549,-0.247,0.959,-0.054,0.305,1.098,-1.098,1
0.53553,-0.247,0.962,-0.053,0.0,1.342,-0.793,1
0.542175,-0.244,0.959,-0.055,0.244,1.647,-0.549,1
0.551076,-0.244,0.958,-0.045,0.122,1.77,-0.671,1
0.559664,-0.243,0.956,-0.05,0.183,2.197,-0.61,1
0.567247,-0.244,0.959,-0.049,0.061,2.624,-0.671,1
0.576049,-0.249,0.957,-0.052,-0.366,2.99,-0.427,1
0.583486,-0.249,0.955,-0.052,-0.244,2.929,-0.549,1
0.592042,-0.251,0.953,-0.054,-0.183,3.295,-0.549,1
0.601393,-0.257,0.954,-0.056,-0.122,3.417,-0.488,1
0.608041,-0.259,0.952,-0.059,0.0,3.601,-0.305,1
0.614474,-0.259,0.955,-0.063,-0.305,3.784,-0.122,1
0.622758,-0.257,0.952,-0.07,-0.183,4.028,-0.366,1
0.630905,-0.258,0.954,-0.074,-0.61,4.15,-0.244,1
0.639343,-0.259,0.955,-0.083,-0.488,4.333,-0.122,1
0.647465,-0.255,0.955,-0.085,-0.061,4.272,-0.244,1
0.65521,-0.255,0.957,-0.09,0.061,4.211,0.0,1
0.66367,-0.257,0.953,-0.095,0.305,4.15,-0.061,1
0.669905,-0.259,0.949,-0.102,0.732,4.333,-0.122,1
0.678816,-0.255,0.949,-0.109,1.037,4.089,0.122,1
0.688108,-0.254,0.945,-0.114,0.915,4.028,0.122,1
0.695523,-0.257,0.945,-0.123,0.244,3.845,0.183,1
0.703233,-0.257,0.947,-0.123,-0.122,3.356,0.427,1
0.71339,-0.26,0.949,-0.127,-0.61,3.295,0.488,1
0.721758,-0.255,0.948,-0.133,-0.671,2.99,0.61,1
0.728805,-0.259,0.949,-0.134,-0.366,2.868,0.854,1
0.737945,-0.256,0.952,-0.133,0.427,2.502,0.854,1
0.747461,-0.256,0.954,-0.137,1.22,1.892,0.854,1
0.754904,-0.256,0.955,-0.133,1.525,1.464,0.732,1
0.761925,-0.255,0.961,-0.138,1.525,1.464,0.915,1
0.771293,-0.253,0.966,-0.136,1.342,1.22,0.854,1
0.778331,-0.254,0.969,-0.138,1.098,0.793,0.793,1
0.785884,-0.255,0.972,-0.136,1.22,0.427,0.61,1
0.795,-0.26,0.975,-0.131,1.281,0.061,0.61,1
0.802305,-0.262,0.975,-0.131,1.159,-0.122,0.488,1
0.810047,-0.254,0.979,-0.129,1.281,-0.366,0.488,1
0.818035,-0.259,0.97,-0.128,1.525,-0.61,0.183,1
0.827575,-0.257,0.968,-0.126,1.647,-0.915,0.122,1
0.835005,-0.256,0.968,-0.123,1.159,-1.098,0.183,1
0.843259,-0.258,0.966,-0.12,1.037,-1.342,0.183,1
0.852865,-0.256,0.968,-0.117,0.549,-1.342,0.122,1
0.860806,-0.255,0.964,-0.117,0.305,-1.647,0.0,1
0.868932,-0.251,0.97,-0.11,0.305,-1.647,-0.061,1
0.878053,-0.25,0.969,-0.113,0.915,-2.075,0.061,1
0.885464,-0.251,0.965,-0.107,1.281,-2.014,-0.061,1
0.894134,-0.254,0.965,-0.102,1.464,-2.319,-0.244,1
0.901351,-0.255,0.965,-0.098,1.586,-2.685,-0.061,1
0.910172,-0.256,0.962,-0.101,1.464,-2.685,-0.305,1
0.919318,-0.252,0.958,-0.092,1.831,-2.929,-0.305,1
0.926926,-0.25,0.961,-0.091,2.38,-2.746,-0.549,1
0.936134,-0.251,0.951,-0.089,1.831,-2.746,-0.305,1
0.945241,-0.251,0.949,-0.084,1.525,-2.319,-0.366,1
0.952657,-0.253,0.954,-0.079,1.281,-2.38,-0.122,1
0.961952,-0.251,0.953,-0.075,1.342,-2.502,0.061,1
0.969537,-0.25,0.957,-0.07,1.708,-2.502,-0.122,1
0.978997,-0.252,0.959,-0.067,1.892,-2.197,0.244,1
0.98552,-0.256,0.956,-0.072,1.525,-2.441,0.122,1
0.994257,-0.252,0.96,-0.069,1.159,-2.197,0.122,1
1.00219,-0.255,0.962,-0.062,1.098,-2.136,0.244,1
1.010557,-0.254,0.957,-0.065,1.098,-1.77,0.366,1
1.01744,-0.252,0.959,-0.062,1.22,-1.586,0.183,1
1.025861,-0.253,0.962,-0.065,1.22,-1.525,0.0,1
1.034665,-0.253,0.961,-0.067,1.464,-1.525,0.061,1
1.042563,-0.251,0.961,-0.063,1.342,-1.281,0.244,1
1.049606,-0.251,0.956,-0.064,1.464,-1.281,0.305,1
1.057851,-0.251,0.956,-0.066,1.708,-0.915,0.122,1
1.066075,-0.254,0.952,-0.065,1.831,-0.732,0.183,1
1.074068,-0.251,0.954,-0.066,1.953,-0.732,0.366,1
1.08108,-0.254,0.95,-0.073,1.342,-0.732,0.366,1
1.089129,-0.246,0.948,-0.074,0.671,-0.549,0.427,1
1.096122,-0.25,0.952,-0.072,0.549,-0.549,0.61,1
1.104408,-0.252,0.954,-0.072,0.244,-0.366,0.61,1
1.111045,-0.251,0.958,-0.072,0.427,-0.305,0.732,1
1.119815,-0.256,0.959,-0.079,0.671,-0.183,0.671,1
1.126467,-0.255,0.962,-0.073,0.854,-0.305,0.915,1
1.135056,-0.255,0.965,-0.078,1.342,-0.488,0.915,1
1.143162,-0.252,0.963,-0.077,1.342,-0.366,0.915,1
1.150251,-0.254,0.961,-0.075,1.525,-0.427,0.732,1
1.157575,-0.255,0.963,-0.075,1.22,0.122,0.793,1
1.165981,-0.25,0.964,-0.079,0.976,0.0,0.854,1
1.173713,-0.249,0.97,-0.08,0.854,-0.122,0.793,1
1.182547,-0.25,0.963,-0.079,0.854,-0.122,0.793,1
1.190399,-0.25,0.97,-0.081,0.61,-0.122,0.732,1
1.197503,-0.248,0.971,-0.081,0.61,-0.122,0.854,1
1.204875,-0.249,0.968,-0.077,0.671,-0.183,0.671,1
1.213454,-0.251,0.969,-0.078,0.366,0.183,0.488,1
1.220046,-0.253,0.972,-0.076,0.305,0.183,0.488,1
1.228424,-0.252,0.971,-0.078,0.366,0.061,0.427,1
1.235376,-0.251,0.97,-0.073,0.427,0.305,0.427,1
1.243963,-0.25,0.976,-0.075,0.0,0.427,0.244,1
1.250538,-0.252,0.97,-0.074,0.061,0.61,0.183,1
1.258052,-0.252,0.967,-0.076,0.244,0.549,0.305,1
1.266765,-0.252,0.964,-0.075,0.488,0.549,0.488,1
1.274694,-0.25,0.963,-0.075,0.61,0.427,0.122,1
1.281636,-0.248,0.959,-0.077,0.976,0.366,0.366,1
1.289623,-0.25,0.961,-0.072,0.976,0.61,0.305,1
1.296197,-0.246,0.961,-0.072,0.854,0.671,0.305,1
1.304308,-0.241,0.963,-0.069,0.671,0.793,0.427,1
1.31264,-0.24,0.967,-0.072,0.366,0.854,0.366,1
1.319713,-0.245,0.972,-0.067,0.549,0.732,0.427,1
1.328067,-0.242,0.974,-0.066,0.549,1.037,0.244,1
1.336454,-0.24,0.974,-0.064,0.244,0.854,0.0,1
1.345154,-0.24,0.979,-0.062,0.305,1.159,-0.061,1
1.353263,-0.24,0.986,-0.057,-0.061,1.281,-0.305,1
1.361515,-0.24,0.996,-0.054,-0.732,1.525,-0.305,1
1.368983,-0.232,1.012,-0.055,-2.014,1.708,-0.549,1
1.379081,-0.229,1.037,-0.048,-3.479,2.258,-0.732,1
1.386576,-0.222,1.059,-0.047,-5.92,2.685,-1.159,1
1.395146,-0.219,1.096,-0.047,-9.826,3.417,-1.647,1
1.403623,-0.189,1.133,-0.059,-17.517,4.455,-2.502,1
1.411638,-0.179,1.203,-0.064,-26.245,5.615,-3.601,1
1.420598,-0.162,1.269,-0.07,-31.372,6.042,-4.76,1
1.42857,-0.152,1.345,-0.069,-36.56,6.53,-6.469,1
1.436961,-0.144,1.416,-0.069,-38.696,7.08,-8.239,1
1.444989,-0.137,1.482,-0.066,-42.602,7.385,-9.765,1
1.453443,-0.107,1.552,-0.075,-43.884,7.934,-13.122,1
1.461596,-0.087,1.623,-0.056,-42.419,8.239,-16.479,1
1.469349,-0.081,1.704,-0.027,-43.273,8.239,-20.263,1
1.475861,-0.057,1.774,0.0,-47.424,9.399,-24.658,1
1.484189,-0.018,1.844,0.026,-51.574,10.925,-28.93,1
1.492516,-0.02,1.891,0.045,-61.462,12.268,-33.874,1
1.499753,-0.012,2.014,0.095,-69.091,15.075,-39.062,1
1.506201,0.039,2.091,0.121,-73.913,16.357,-45.593,1
1.513517,0.052,2.169,0.159,-73.852,18.554,-52.001,1
1.521604,0.073,2.232,0.178,-73.059,20.019,-59.204,1
1.529905,0.074,2.281,0.205,-74.462,21.667,-66.955,1
1.536804,0.064,2.354,0.248,-77.209,24.169,-74.89,1
1.545684,0.052,2.424,0.276,-81.115,26.428,-83.251,1
1.552139,0.049,2.519,0.321,-81.42,29.296,-91.796,1
1.560556,0.043,2.617,0.344,-77.88,31.738,-100.952,1
1.56908,0.004,2.706,0.36,-71.655,34.423,-112.243,1
1.577635,-0.03,2.781,0.366,-68.664,37.78,-122.131,1
1.584969,-0.075,2.856,0.37,-71.472,41.381,-132.934,1
1.592109,-0.086,2.909,0.365,-79.711,46.02,-145.812,1
1.601418,-0.136,2.964,0.354,-89.538,49.926,-157.409,1
1.609371,-0.196,3.015,0.338,-97.595,52.368,-169.433,1
1.617971,-0.298,3.026,0.31,-103.454,54.931,-183.837,1
1.626489,-0.386,3.029,0.283,-107.116,55.603,-198.486,1
1.634271,-0.467,3.004,0.234,-109.497,56.518,-211.242,1
1.641383,-0.577,2.952,0.191,-113.769,56.213,-226.196,1
1.649379,-0.68,2.932,0.162,-110.534,54.931,-238.769,1
1.657027,-0.76,2.891,0.159,-98.693,52.673,-250.854,1
1.665649,-0.826,2.822,0.129,-82.336,50.354,-261.84,1
1.67271,-0.917,2.722,0.098,-66.04,48.156,-272.094,1
1.683452,-0.987,2.612,0.054,-48.034,45.776,-282.959,1
1.690772,-1.053,2.439,-0.009,-34.545,43.945,-292.297,1
1.699001,-1.122,2.284,-0.072,-28.32,43.151,-299.316,1
1.706081,-1.196,2.11,-0.136,-23.437,41.687,-305.725,1
1.714811,-1.236,1.959,-0.187,-18.737,39.733,-310.546,1
1.722052,-1.265,1.767,-0.226,-15.075,37.963,-314.514,1
1.730605,-1.265,1.601,-0.25,-10.62,35.766,-317.626,1
1.738044,-1.256,1.434,-0.28,-5.187,33.874,-318.786,1
1.746887,-1.212,1.289,-0.328,-0.061,32.409,-318.847,1
1.753012,-1.111,1.15,-0.369,4.577,29.357,-317.504,1
1.762051,-1.094,1.022,-0.398,12.329,26.733,-314.575,1
1.769494,-0.993,0.869,-0.453,20.751,22.827,-310.302,1
1.779202,-0.91,0.735,-0.473,24.23,20.263,-305.725,1
1.788,-0.734,0.642,-0.486,25.695,15.014,-299.987,1
1.795292,-0.768,0.592,-0.511,36.071,13.61,-293.212,1
1.802575,-0.687,0.538,-0.513,44.616,8.178,-288.146,1
1.812643,-0.673,0.49,-0.502,55.969,6.896,-282.531,1
1.820776,-0.823,0.451,-0.512,63.232,4.089,-276.306,1
1.83021,-0.874,0.406,-0.525,67.687,1.77,-270.507,1
1.836991,-0.978,0.342,-0.497,62.011,0.305,-264.526,1
1.845589,-1.032,0.335,-0.538,47.851,-0.366,-258.483,1
1.853634,-0.86,0.324,-0.533,37.78,-1.708,-254.455,1
1.863527,-0.701,0.293,-0.566,35.461,-2.563,-250.427,1
1.870294,-0.657,0.258,-0.577,36.804,-3.417,-247.436,1
1.87905,-0.606,0.207,-0.592,38.94,-2.685,-245.056,1
1.887978,-0.566,0.16,-0.564,42.175,-2.929,-240.539,1
1.895573,-0.435,0.155,-0.549,47.485,-2.624,-235.9,1
1.903904,-0.349,0.14,-0.523,52.185,-3.112,-229.553,1
1.912652,-0.203,0.165,-0.506,62.561,-3.479,-222.717,1
1.920877,-0.137,0.167,-0.499,71.838,-5.432,-218.566,1
1.929624,-0.059,0.137,-0.503,76.293,-4.089,-213.989,1
1.937255,0.04,0.127,-0.519,73.669,-4.394,-209.594,1
1.946633,0.125,0.136,-0.531,72.57,-4.028,-206.298,1
1.954598,0.202,0.142,-0.515,75.134,-4.821,-203.186,1
1.962367,0.198,0.154,-0.494,83.862,-4.943,-200.866,1
1.969428,0.187,0.167,-0.445,95.642,-5.126,-199.218,1
1.978528,0.15,0.154,-0.429,109.008,-4.455,-198.181,1
1.9858,0.122,0.135,-0.393,119.812,-2.746,-196.899,1
1.994506,0.077,0.098,-0.38,119.201,0.427,-196.777,1
2.003143,0.069,0.081,-0.359,111.572,4.516,-196.96,1
2.01017,0.056,0.048,-0.351,105.529,8.483,-196.96,1
2.017273,0.036,0.025,-0.338,104.187,11.962,-197.875,1
2.024568,-0.035,0.011,-0.333,107.543,14.709,-197.875,1
2.033633,-0.078,0.008,-0.323,115.478,18.371,-198.974,1
2.040632,-0.134,-0.016,-0.309,124.084,21.362,-199.707,1
2.049729,-0.19,-0.042,-0.311,130.432,26.489,-200.927,1
2.060003,-0.374,-0.089,-0.297,130.859,31.249,-201.782,1
2.067545,-0.563,-0.104,-0.269,129.089,38.391,-201.477,1
2.076178,-0.612,-0.187,-0.253,123.168,46.142,-199.096,1
2.084754,-0.625,-0.266,-0.224,114.562,54.016,-195.739,1
2.093223,-0.645,-0.302,-0.219,107.055,61.767,-191.284,1
2.101077,-0.694,-0.342,-0.226,105.59,67.504,-187.622,1
2.109472,-0.795,-0.394,-0.242,106.262,73.364,-182.373,1
2.118155,-0.924,-0.492,-0.27,100.769,78.857,-177.429,1
2.127684,-1.083,-0.639,-0.284,77.697,86.425,-170.288,1
2.136305,-1.177,-0.791,-0.306,29.907,96.496,-160.095,1
2.145084,-1.218,-0.898,-0.294,-9.033,103.82,-152.343,1
2.154096,-1.282,-1.042,-0.286,-30.151,108.032,-145.385,1
2.162575,-1.305,-1.201,-0.255,-31.494,111.816,-132.629,1
2.171173,-1.386,-1.381,-0.254,-22.399,114.196,-120.788,1
2.178745,-1.45,-1.591,-0.228,-17.272,118.469,-104.003,1
2.18682,-1.487,-1.785,-0.246,-23.498,123.107,-87.097,1
2.195165,-1.512,-1.881,-0.259,-31.066,128.906,-65.856,1
2.203759,-1.595,-2.007,-0.268,-31.372,132.873,-46.264,1
2.210764,-1.601,-2.173,-0.289,-33.874,139.16,-20.507,1
2.219955,-1.514,-2.285,-0.295,-39.367,145.629,3.479,1
2.228855,-1.591,-2.434,-0.272,-23.681,149.292,38.33,1
2.237852,-1.792,-2.529,-0.299,2.197,156.677,66.772,1
2.246084,-1.938,-2.605,-0.356,30.273,157.714,96.679,1
2.252604,-2.24,-2.703,-0.468,57.861,162.597,133.911,1
2.262191,-2.469,-2.776,-0.574,73.608,164.55,172.973,1
2.268778,-2.763,-2.866,-0.696,62.377,168.701,208.862,1
2.276611,-3.254,-2.962,-0.835,28.991,173.461,245.117,1
2.285765,-3.759,-3.035,-0.946,-37.475,183.654,287.902,1
2.294014,-4.12,-3.036,-1.002,-75.683,192.199,325.622,1
2.302342,-4.619,-3.062,-1.095,-75.988,198.608,364.929,1
2.310452,-5.249,-3.169,-1.201,-45.715,201.477,414.489,1
2.317633,-5.957,-3.344,-1.334,-26.733,202.27,460.937,1
2.325942,-6.716,-3.493,-1.42,6.164,200.378,522.033,1
2.334882,-7.64,-3.629,-1.625,49.194,191.711,588.928,1
2.342307,-8.752,-3.656,-1.739,89.538,177.246,650.268,1
2.350268,-9.934,-3.562,-1.885,159.729,153.442,716.735,1
2.359136,-11.184,-3.418,-2.028,260.192,108.032,796.63,1
2.367237,-12.722,-3.186,-2.078,317.565,56.213,865.112,1
2.374655,-14.705,-2.678,-1.997,370.727,-3.112,931.518,1
2.382233,-15.999,-2.179,-1.871,447.509,-88.439,1002.685,1
2.390426,-15.999,-1.666,-1.713,505.004,-173.034,1055.908,1
2.399322,-15.999,-0.989,-1.45,550.17,-266.845,1098.877,1
2.405999,-15.999,-0.343,-1.199,597.961,-384.399,1132.873,1
2.415538,-15.999,0.382,-0.82,649.414,-494.14,1147.888,1
2.422689,-15.999,1.083,-0.359,738.159,-616.21,1142.334,1
2.429896,-15.999,1.651,0.304,816.589,-748.229,1113.281,1
2.438531,-15.999,2.16,0.988,900.939,-902.16,1047.485,1
2.445119,-15.999,2.21,1.57,935.302,-1023.132,985.229,1
2.453759,-15.999,2.776,2.501,1001.769,-1171.264,864.379,1
2.461465,-15.999,2.962,3.355,1085.754,-1278.625,735.107,1
2.46976,-15.999,3.327,4.187,1208.435,-1360.656,571.96,1
2.47784,-15.999,3.552,4.645,1393.188,-1424.255,357.177,1
2.485062,-15.999,3.333,4.68,1441.528,-1424.194,75.378,1
2.494832,-15.999,3.313,4.334,1320.983,-1377.197,-156.616,1
2.502578,-15.999,3.165,4.417,1171.264,-1255.371,-377.563,1
2.510019,-15.999,2.733,4.132,1108.215,-1144.714,-532.959,1
2.519457,-15.999,1.695,3.736,1087.097,-975.769,-672.18,1
2.527523,-15.999,0.598,2.995,982.482,-840.637,-755.554,1
2.535883,-15.999,-0.047,2.462,838.317,-651.184,-816.528,1
2.543843,-15.999,-0.381,1.975,769.348,-522.155,-839.294,1
2.554036,-15.138,-0.568,1.646,730.895,-412.048,-842.285,1
2.563494,-13.969,-0.73,1.334,671.264,-305.175,-831.42,1
2.57239,-12.812,-0.77,1.074,627.38,-201.477,-813.476,1
2.580977,-11.955,-0.875,0.937,557.495,-117.797,-786.56,1
2.588416,-11.203,-0.93,0.812,502.624,-47.973,-752.868,1
2.595623,-10.333,-1.014,0.839,485.9,11.84,-712.402,1
2.604508,-9.71,-1.202,0.735,457.214,59.143,-673.583,1
2.611358,-9.35,-1.398,0.625,381.103,104.003,-635.131,1
2.620346,-8.861,-1.555,0.589,278.137,140.441,-596.618,1
2.631186,-8.233,-1.645,0.568,175.537,170.898,-553.161,1
2.637291,-7.632,-1.731,0.491,118.225,190.551,-505.92,1
2.645242,-6.921,-1.89,0.343,88.378,199.584,-473.693,1
2.654522,-6.027,-2.113,0.148,56.335,204.65,-443.725,1
2.661823,-5.095,-2.337,-0.058,24.597,207.092,-414.245,1
2.671076,-4.423,-2.44,-0.188,4.516,201.904,-380.249,1
2.678878,-4.077,-2.311,-0.262,36.743,190.185,-345.947,1
2.686689,-3.729,-2.222,-0.28,105.163,173.828,-311.401,1
2.696276,-3.428,-2.247,-0.324,157.531,162.78,-280.883,1
2.70524,-3.09,-2.274,-0.317,182.983,154.052,-244.323,1
2.713055,-2.83,-2.238,-0.313,175.903,149.841,-209.289,1
2.722385,-2.572,-2.169,-0.275,147.399,147.644,-177.001,1
2.730109,-2.306,-2.125,-0.274,112.426,145.751,-151.794,1
2.737679,-1.969,-2.059,-0.231,73.181,143.737,-125.61,1
2.745118,-1.757,-1.993,-0.216,51.208,139.709,-105.285,1
2.753043,-1.595,-1.952,-0.168,39.916,135.742,-86.975,1
2.763753,-1.429,-1.9,-0.147,33.081,131.774,-69.58,1
2.771707,-1.262,-1.831,-0.111,25.634,127.136,-48.034,1
2.781635,-1.121,-1.758,-0.099,21.423,122.985,-32.836,1
2.788928,-0.94,-1.628,-0.068,21.789,117.065,-13.61,1
2.79676,-0.813,-1.509,-0.049,25.329,111.389,-0.549,1
2.805798,-0.669,-1.371,-0.016,33.63,104.736,13.916,1
2.812628,-0.571,-1.251,0.004,42.419,98.144,25.207,1
2.820358,-0.474,-1.114,0.041,50.109,91.979,35.644,1
2.8281,-0.401,-1.001,0.072,59.753,84.655,46.752,1
2.83741,-0.315,-0.892,0.114,71.228,78.918,55.053,1
2.846108,-0.227,-0.793,0.168,85.937,72.021,63.537,1
2.853877,-0.15,-0.725,0.233,94.177,68.786,70.251,1
2.862753,-0.12,-0.652,0.301,95.214,65.49,77.27,1
2.870247,-0.125,-0.599,0.371,92.285,63.964,82.702,1
2.879075,-0.121,-0.54,0.427,87.829,63.476,88.378,1
2.887128,-0.125,-0.494,0.471,85.083,63.415,92.468,1
2.895618,-0.127,-0.462,0.524,81.787,63.476,96.923,1
2.903281,-0.081,-0.454,0.577,68.969,65.185,101.135,1
2.912317,-0.068,-0.443,0.611,60.485,67.138,104.309,1
2.919972,-0.053,-0.442,0.635,53.344,69.763,107.543,1
2.929155,-0.02,-0.458,0.639,46.508,73.181,111.206,1
2.938194,0.0,-0.458,0.613,38.635,76.904,115.173,1
2.946894,0.02,-0.447,0.565,28.625,80.2,119.018,1
2.954787,0.057,-0.426,0.52,22.216,82.58,122.009,1
2.962435,0.098,-0.415,0.48,19.653,84.045,125.854,1
2.971442,0.2,-0.397,0.442,25.573,83.862,129.516,1
2.978971,0.278,-0.382,0.412,33.569,83.312,132.812,1
2.986789,0.37,-0.363,0.389,42.419,82.031,136.23,1
2.993929,0.401,-0.337,0.355,51.025,79.956,140.625,1
3.003989,0.439,-0.305,0.343,55.48,77.636,143.981,1
3.010739,0.464,-0.268,0.342,58.654,75.988,147.827,1
3.018483,0.504,-0.246,0.339,59.204,73.974,151.184,1
3.025471,0.54,-0.216,0.364,56.945,73.12,154.235,1
3.034323,0.593,-0.191,0.407,50.964,72.448,157.409,1
3.042901,0.637,-0.137,0.46,40.954,73.73,160.583,1
3.049626,0.645,-0.078,0.499,31.738,74.523,162.841,1
3.057766,0.651,-0.014,0.541,29.296,75.378,165.405,1
3.066249,0.663,0.062,0.573,36.743,74.462,167.114,1
3.073246,0.694,0.145,0.61,54.626,72.57,168.823,1
3.080733,0.707,0.209,0.644,78.43,69.58,171.081,1
3.089321,0.721,0.234,0.667,88.256,67.871,172.18,1
3.095533,0.7,0.263,0.7,88.684,67.932,173.339,1
3.10319,0.662,0.292,0.721,80.322,69.763,174.011,1
3.112293,0.628,0.331,0.734,67.321,73.12,174.499,1
3.119326,0.595,0.375,0.742,53.527,77.026,174.56,1
3.126826,0.554,0.419,0.746,41.503,81.909,174.987,1
3.134402,0.536,0.467,0.737,37.231,85.815,175.109,1
3.142884,0.527,0.528,0.734,40.954,88.439,175.048,1
3.149777,0.503,0.592,0.728,51.513,90.332,175.353,1
3.157248,0.463,0.627,0.704,59.204,91.979,175.231,1
3.166588,0.412,0.652,0.671,57.678,94.604,175.17,1
3.173467,0.414,0.703,0.652,49.743,97.351,174.987,1
3.180516,0.389,0.768,0.655,47.729,99.975,174.56,1
3.189371,0.343,0.844,0.651,48.095,102.05,173.828,1
3.196658,0.312,0.92,0.648,49.316,104.919,172.668,1
3.202921,0.301,1.0,0.636,49.255,108.032,170.959,1
3.211738,0.294,1.086,0.625,52.307,110.839,168.701,1
3.220441,0.294,1.203,0.596,62.927,112.487,165.649,1
3.228933,0.282,1.333,0.581,71.166,114.501,161.499,1
3.238276,0.273,1.402,0.571,89.66,114.013,156.86,1
3.246213,0.24,1.405,0.582,103.393,115.478,152.893,1
3.253177,0.241,1.412,0.568,103.454,117.187,148.986,1
3.261004,0.215,1.414,0.577,95.336,120.727,145.812,1
3.269972,0.185,1.422,0.56,80.261,124.938,142.944,1
3.276674,0.151,1.48,0.532,67.016,130.249,138.916,1
3.284897,0.103,1.516,0.47,61.767,132.446,134.094,1
3.292765,0.093,1.5,0.434,61.95,135.07,129.699,1
3.299828,0.091,1.491,0.372,64.086,137.329,125.61,1
3.306253,0.065,1.481,0.323,67.871,138.061,121.704,1
3.314933,0.061,1.458,0.279,73.974,139.343,118.347,1
3.323272,0.041,1.416,0.237,83.862,138.366,114.807,1
3.33005,0.027,1.375,0.228,95.153,137.817,113.281,1
3.337358,0.039,1.288,0.204,102.844,138.061,111.999,1
3.346404,0.024,1.285,0.169,97.9,140.075,111.389,1
3.353824,-0.03,1.3,0.117,88.745,140.258,110.107,1
3.361895,-0.055,1.324,0.089,81.42,141.662,108.703,1
3.369419,-0.066,1.326,0.031,79.65,140.075,107.238,1
3.377374,-0.078,1.32,-0.011,86.669,139.221,105.712,1
3.385617,-0.074,1.294,-0.063,96.679,136.535,104.248,1
3.393467,-0.056,1.268,-0.077,104.98,134.399,103.332,1
3.401144,-0.049,1.237,-0.094,111.022,132.751,102.966,1
3.409303,-0.047,1.207,-0.109,111.083,131.286,102.783,1
3.417083,-0.042,1.197,-0.143,103.088,130.615,103.149,1
3.423955,-0.063,1.222,-0.175,90.759,129.882,102.539,1
3.433646,-0.09,1.25,-0.211,80.505,129.028,101.44,1
3.441094,-0.084,1.283,-0.252,72.814,127.075,99.853,1
3.449913,-0.132,1.298,-0.285,74.096,124.572,98.327,1
3.456814,-0.099,1.292,-0.309,78.002,121.704,96.496,1
3.464117,-0.051,1.288,-0.337,84.35,118.774,94.543,1
3.472473,-0.019,1.258,-0.354,91.796,116.149,93.383,1
3.481536,-0.023,1.223,-0.375,96.801,113.281,92.773,1
3.489938,-0.005,1.217,-0.45,88.073,111.816,92.041,1
3.49777,0.012,1.252,-0.503,72.326,109.741,90.393,1
3.505337,0.007,1.276,-0.567,58.776,107.91,88.256,1
3.512496,0.049,1.309,-0.626,52.124,104.614,86.12,1
3.522099,0.033,1.32,-0.694,49.987,100.28,83.74,1
3.528784,0.165,1.336,-0.708,58.044,95.336,80.993,1
3.537141,0.105,1.308,-0.755,69.763,89.843,79.406,1
3.543936,0.208,1.262,-0.779,77.758,84.167,77.636,1
3.551685,0.227,1.235,-0.781,86.181,78.43,76.171,1
3.560388,0.235,1.194,-0.779,93.566,73.425,75.622,1
3.567572,0.294,1.166,-0.79,103.332,67.321,74.951,1
3.575719,0.244,1.154,-0.798,101.806,61.401,75.5,1
3.582497,0.291,1.124,-0.826,93.933,56.823,75.622,1
3.590854,0.211,1.189,-0.798,85.021,51.879,75.378,1
3.59792,0.239,1.22,-0.805,82.275,46.325,74.768,1
3.605695,0.229,1.245,-0.763,81.481,39.733,74.218,1
3.61242,0.229,1.252,-0.724,82.58,33.569,73.669,1
3.620258,0.253,1.218,-0.706,79.284,27.526,73.242,1
3.627666,0.209,1.208,-0.648,66.223,23.498,72.57,1
3.637048,0.261,1.213,-0.595,62.683,17.639,71.655,1
3.645658,0.219,1.174,-0.524,64.208,11.962,71.777,1
3.653781,0.203,1.188,-0.475,64.27,6.225,71.716,1
3.660444,0.144,1.195,-0.453,61.035,2.563,71.411,1
3.66817,0.095,1.234,-0.406,55.786,-1.77,70.495,1
3.676396,0.161,1.282,-0.342,61.34,-5.676,68.786,1
3.683835,0.023,1.229,-0.304,57.495,-9.46,67.504,1
3.692625,0.069,1.204,-0.287,41.625,-11.779,66.04,1
3.702023,0.053,1.22,-0.189,32.104,-13.793,64.575,1
3.709052,0.067,1.234,-0.134,30.639,-14.953,63.171,1
3.718113,0.077,1.249,-0.062,30.761,-16.967,61.645,1
3.726439,0.057,1.265,0.005,32.775,-17.822,59.997,1
3.733711,0.072,1.274,0.063,34.79,-18.31,58.044,1
3.741949,0.063,1.289,0.118,34.301,-17.822,56.03,1
3.749519,0.087,1.289,0.166,31.86,-16.723,53.588,1
3.758314,0.106,1.293,0.231,31.249,-15.686,51.94,1
3.765476,0.134,1.269,0.264,33.996,-14.282,50.109,1
3.774432,0.119,1.253,0.293,32.592,-11.962,47.729,1
3.781592,0.122,1.254,0.331,27.343,-9.399,46.081,1
3.788701,0.122,1.264,0.358,21.423,-6.713,44.372,1
3.797934,0.113,1.276,0.387,18.005,-3.845,42.602,1
3.806618,0.092,1.29,0.413,13.122,-1.159,40.71,1
3.815398,0.072,1.306,0.418,8.422,2.014,38.879,1
3.821303,0.062,1.31,0.417,1.098,5.249,36.743,1
3.831159,0.056,1.311,0.4,-3.662,7.446,34.851,1
3.83803,0.051,1.308,0.383,-7.751,9.887,32.409,1
3.845582,0.04,1.289,0.351,-8.666,11.779,30.517,1
3.855206,0.041,1.268,0.326,-8.544,13.061,28.503,1
3.862425,0.036,1.24,0.299,-8.239,14.221,26.672,1
3.871722,0.045,1.208,0.273,-8.056,14.831,25.207,1
3.880719,0.036,1.205,0.251,-5.798,15.197,23.803,1
3.888369,0.062,1.194,0.232,-2.868,14.709,22.521,1
3.896009,0.031,1.192,0.225,2.014,14.831,21.118,1
3.903645,0.023,1.187,0.188,2.99,14.953,19.897,1
3.912278,0.024,1.187,0.176,0.488,14.526,18.615,1
3.919613,0.036,1.185,0.163,-0.61,14.953,17.211,1
3.92865,0.043,1.181,0.148,-1.098,14.404,16.052,1
3.936022,0.047,1.173,0.135,0.366,14.282,15.014,1
3.944177,0.056,1.163,0.12,0.061,13.488,13.732,1
3.952481,0.064,1.149,0.103,-1.647,13.0,12.451,1
3.959542,0.053,1.145,0.101,-2.746,12.756,11.413,1
3.966765,0.058,1.134,0.093,-2.014,11.84,10.437,1
3.975072,0.051,1.122,0.087,-0.183,10.681,9.399,1
3.983703,0.053,1.102,0.084,1.953,9.521,8.666,1
3.991728,0.063,1.082,0.084,2.38,8.728,8.056,1
3.999109,0.057,1.065,0.081,4.211,8.178,7.507,1
4.008201,0.055,1.046,0.075,4.699,7.324,7.141,1
4.016364,0.057,1.03,0.067,4.028,6.652,6.958,1
4.023988,0.052,1.029,0.073,3.723,5.798,6.713,1
4.0321,0.047,1.03,0.069,4.211,4.76,6.347,1
4.039392,0.059,1.024,0.063,4.272,3.967,6.286,1
4.047985,0.03,1.041,0.078,3.356,2.624,6.042,1
4.055026,0.024,1.025,0.078,4.455,1.953,5.859,1
4.062171,0.027,1.035,0.08,2.258,1.281,5.554,1
4.070053,0.032,1.03,0.09,-0.427,0.671,5.004,1
4.077016,0.03,1.025,0.097,-2.441,0.183,4.638,1
4.084758,0.038,1.013,0.101,-4.882,-0.305,4.577,1
4.093619,0.04,1.007,0.105,-7.019,-0.549,4.272,1
4.101988,0.044,1.005,0.117,-7.69,-1.098,4.028,1
4.108965,0.051,1.003,0.123,-5.615,-1.647,3.784,1
4.117416,0.047,1.006,0.122,-2.441,-2.197,3.906,1
4.126425,0.048,0.997,0.128,-0.244,-2.746,3.723,1
4.135475,0.046,0.991,0.13,-0.671,-3.662,3.784,1
4.142298,0.035,0.998,0.138,-0.854,-3.906,3.906,1
4.15233,0.034,1.009,0.146,-0.244,-4.333,3.845,1
4.15969,0.013,1.012,0.154,1.892,-4.699,3.784,1
4.16802,0.015,1.01,0.147,1.586,-4.943,3.417,1
4.175383,0.019,1.013,0.149,-1.464,-5.676,3.051,1
4.183438,-0.007,1.013,0.162,-0.549,-5.371,2.746,1
4.191712,0.014,1.005,0.156,0.976,-6.225,2.38,1
4.199284,0.012,1.002,0.163,2.319,-6.713,2.38,1
4.207582,0.02,0.998,0.165,2.99,-7.019,2.014,1
4.2156,0.016,0.996,0.169,3.54,-7.446,2.075,1
4.223497,0.011,1.0,0.177,4.577,-7.568,2.014,1
4.232486,0.02,1.006,0.192,5.92,-8.3,2.197,1
4.238125,0.0,1.019,0.214,8.728,-8.3,2.319,1
4.247155,0.01,1.008,0.214,7.873,-7.995,2.197,1
4.254939,0.003,1.001,0.219,4.089,-8.117,2.075,1
4.263231,-0.047,1.018,0.246,5.615,-7.263,2.075,1
4.27076,-0.056,1.014,0.229,8.911,-7.507,1.892,1
4.278559,-0.067,1.008,0.222,9.277,-7.629,2.075,1
4.287834,-0.068,0.992,0.205,6.347,-7.385,1.77,1
4.294704,-0.025,0.976,0.187,2.99,-7.324,1.77,1
4.302319,-0.017,0.967,0.183,-0.061,-7.507,2.319,1
4.309868,0.039,0.958,0.187,-3.234,-7.873,2.746,1
4.317228,0.026,0.943,0.181,-9.765,-7.202,3.906,1
4.325082,0.036,0.957,0.177,-18.188,-7.141,4.455,1
4.332916,0.087,0.974,0.183,-22.644,-7.141,5.371,1
4.343562,0.133,1.012,0.199,-20.874,-7.69,5.615,1
4.351287,0.133,1.073,0.235,-11.596,-8.544,5.004,1
4.358631,0.178,1.071,0.249,-5.493,-10.07,3.051,1
4.365892,0.147,1.062,0.314,-1.708,-9.521,2.014,1
4.374491,0.142,1.04,0.319,-4.943,-9.948,0.793,1
4.38377,-0.035,1.083,0.397,-5.126,-7.751,0.061,1
4.392863,-0.031,1.08,0.36,-2.929,-5.676,-1.281,1
4.400946,-0.016,1.103,0.412,-3.234,-4.699,-2.197,1
4.40903,-0.048,1.079,0.366,-2.014,-2.502,-2.929,1
4.416696,0.0,1.082,0.371,-5.493,-2.685,-3.784,1
4.425583,0.029,1.095,0.365,-0.366,0.061,-3.906,1
4.433241,0.03,1.086,0.322,-0.671,0.671,-4.333,1
4.442104,0.054,1.083,0.309,-3.906,1.586,-4.76,1
4.448365,0.031,1.072,0.289,-10.131,3.295,-5.065,1
4.456895,0.042,1.066,0.268,-14.221,4.15,-5.615,1
4.463816,0.044,1.054,0.254,-17.456,5.187,-6.225,1
4.472346,0.021,1.048,0.231,-21.179,5.493,-6.53,1
4.480482,-0.025,1.054,0.222,-23.559,6.286,-6.652,1
4.489031,-0.04,1.057,0.185,-25.39,7.019,-7.08,1
4.496845,0.088,1.058,0.153,-26.794,7.202,-7.263,1
4.504622,0.137,1.073,0.147,-27.404,5.065,-7.934,1
4.512306,0.088,1.083,0.169,-25.085,4.272,-8.85,1
4.520083,0.068,1.066,0.173,-26.672,4.577,-9.582,1
4.528621,0.039,1.06,0.186,-33.63,5.126,-10.498,1
4.536046,0.059,1.054,0.19,-36.865,5.371,-11.169,1
4.543967,0.018,1.056,0.22,-34.545,4.943,-11.596,1
4.551649,-0.014,1.045,0.221,-27.587,5.065,-12.512,1
4.559196,0.0,1.016,0.232,-20.996,4.394,-13.183,1
4.566901,0.019,0.972,0.25,-20.385,4.638,-12.939,1
4.575352,0.013,0.959,0.251,-20.141,6.103,-13.183,1
4.58305,0.044,0.926,0.241,-20.202,6.652,-12.695,1
4.590705,0.041,0.916,0.25,-19.714,8.056,-12.084,1
4.600304,0.026,0.917,0.223,-15.319,8.117,-11.779,1
4.608404,0.067,0.91,0.195,-11.23,8.3,-10.437,1
4.615316,0.049,0.901,0.189,-17.944,9.216,-8.972,1
4.623351,0.028,0.935,0.145,-22.766,10.864,-8.789,1
4.630738,0.001,0.915,0.134,-32.47,10.925,-8.117,1
4.638646,-0.002,0.981,0.106,-40.161,13.183,-8.056,1
4.646301,0.051,1.004,0.074,-40.71,9.887,-8.666,1
4.655344,0.095,0.996,0.105,-42.358,9.155,-7.934,1
4.663104,0.132,1.062,0.114,-40.039,7.873,-9.521,1
4.672445,0.117,1.052,0.18,-36.437,6.652,-10.437,1
4.678855,0.128,1.083,0.229,-39.062,8.483,-11.474,1
4.687826,0.127,1.048,0.282,-46.02,7.385,-12.39,1
4.695341,0.172,1.141,0.401,-43.273,10.07,-13.488,1
4.704545,0.154,1.132,0.497,-38.513,9.094,-13.671,1
4.711848,0.19,1.2,0.594,-20.629,12.451,-15.808,1
4.719897,0.176,1.203,0.694,-10.864,12.329,-16.235,1
4.72769,0.193,1.246,0.81,1.77,17.089,-18.249,1
4.735114,0.117,1.196,0.899,3.356,19.592,-18.798,1
4.743826,0.18,1.288,1.01,2.563,27.954,-20.141,1
4.752088,0.087,1.31,1.069,4.089,30.517,-22.338,1
4.75913,0.106,1.333,1.192,-1.342,39.978,-22.705,1
4.766722,0.083,1.388,1.207,6.042,44.86,-25.085,1
4.774619,0.014,1.432,1.326,23.376,49.865,-26.977,1
4.782086,0.048,1.399,1.388,41.015,56.579,-27.587,1
4.790962,0.028,1.381,1.467,60.363,62.988,-29.602,1
4.7992,0.011,1.318,1.544,74.89,72.082,-29.724,1
4.807279,0.064,1.244,1.598,80.261,80.81,-28.869,1
4.814405,0.03,1.18,1.64,88.012,89.233,-27.832,1
4.822843,0.02,1.116,1.681,106.14,98.022,-25.146,1
4.830065,0.039,1.055,1.697,125.061,106.14,-21.972,1
4.838904,-0.042,1.049,1.674,131.958,115.295,-18.249,1
4.846071,-0.151,1.064,1.626,124.938,125.061,-15.441,1
4.853813,-0.235,1.033,1.604,106.872,135.192,-13.122,1
4.86218,-0.198,1.011,1.55,62.194,148.132,-10.925,1
4.86928,-0.237,1.065,1.516,12.145,159.118,-9.948,1
4.878034,-0.254,1.187,1.5,-10.009,168.151,-10.07,1
4.886413,-0.32,1.257,1.462,-6.652,174.438,-11.108,1
4.893237,-0.268,1.396,1.5,4.211,181.152,-12.695,1
4.902446,-0.404,1.412,1.429,13.732,185.241,-13.854,1
4.909863,-0.415,1.474,1.427,13.0,193.969,-15.991,1
4.918617,-0.453,1.57,1.349,0.915,200.561,-18.31,1
4.926345,-0.442,1.747,1.315,-25.146,210.998,-22.827,1
4.934873,-0.597,1.847,1.159,-30.456,214.904,-28.625,1
4.943467,-0.574,1.903,1.105,-33.02,219.97,-35.583,1
4.950424,-0.637,2.096,0.979,-47.18,227.172,-44.494,1
4.959457,-0.664,2.151,0.843,-40.832,225.463,-54.199,1
4.968101,-0.655,2.31,0.721,-44.067,232.238,-64.758,1
4.975512,-0.706,2.371,0.586,-35.461,224.975,-74.096,1
4.985442,-0.676,2.372,0.53,-44.616,230.59,-83.068,1
4.994298,-0.72,2.428,0.328,-44.372,223.144,-95.947,1
5.001641,-0.691,2.312,0.306,-57.495,225.524,-102.539,1
5.010542,-0.729,2.403,0.093,-71.35,221.374,-113.159,1
5.019002,-0.732,2.398,0.156,-69.091,218.2,-125.915,1
5.027631,-0.763,2.416,0.02,-66.589,212.89,-139.16,1
5.034615,-0.793,2.387,0.031,-55.969,207.885,-151.489,1
5.043977,-0.817,2.356,-0.036,-50.659,203.613,-160.339,1
5.052564,-0.87,2.329,-0.088,-33.691,196.166,-171.936,1
5.061419,-0.85,2.103,-0.149,-35.888,192.504,-179.504,1
5.070091,-0.91,2.136,-0.277,-45.41,189.758,-191.162,1
5.078959,-0.922,1.98,-0.315,-47.241,185.485,-199.645,1
5.086408,-0.939,1.997,-0.416,-67.687,184.692,-207.641,1
5.096593,-1.009,1.91,-0.478,-62.072,173.156,-215.881,1
5.104345,-1.082,1.761,-0.593,-45.776,168.273,-221.801,1
5.113628,-1.115,1.662,-0.655,-30.517,157.043,-228.088,1
5.121141,-1.05,1.477,-0.715,-17.944,150.634,-231.75,1
5.130281,-1.051,1.34,-0.733,-17.639,144.531,-233.581,1
5.137114,-0.98,1.185,-0.809,-15.869,137.512,-235.29,1
5.145316,-0.93,1.073,-0.787,-10.314,131.53,-235.229,1
5.154243,-0.902,0.954,-0.829,-1.586,125.427,-234.619,1
5.161499,-0.848,0.873,-0.81,10.253,119.018,-232.91,1
5.170298,-0.737,0.783,-0.816,22.338,113.098,-230.773,1
5.179127,-0.548,0.723,-0.79,31.188,108.886,-227.844,1
5.186536,-0.618,0.704,-0.795,42.236,105.346,-225.036,1
5.193868,-0.277,0.632,-0.804,56.823,102.355,-221.557,1
5.203148,-0.451,0.593,-0.882,61.218,96.862,-217.712,1
5.211399,-0.433,0.533,-0.863,66.223,93.688,-214.172,1
5.218534,-0.396,0.478,-0.894,65.246,93.139,-209.594,1
5.227522,-0.457,0.469,-0.884,57.312,91.369,-205.566,1
5.235284,-0.611,0.466,-0.909,48.95,90.332,-199.951,1
5.243188,-0.774,0.44,-0.898,46.813,90.82,-194.763,1
5.25135,-0.85,0.416,-0.923,39.916,90.393,-189.697,1
5.260773,-0.699,0.423,-0.93,31.249,92.285,-183.959,1
5.268307,-0.217,0.405,-0.966,18.371,88.867,-179.931,1
5.276908,-0.003,0.461,-0.943,17.089,87.036,-176.452,1
5.283971,0.11,0.56,-0.998,36.987,79.101,-174.011,1
5.29478,0.15,0.646,-1.066,62.622,74.035,-172.851,1
5.300912,0.107,0.732,-1.194,83.618,65.795,-173.217,1
5.308518,0.02,0.792,-1.247,93.933,58.105,-174.56,1
5.317101,-0.011,0.875,-1.27,108.337,52.124,-176.391,1
5.32376,0.001,0.934,-1.253,131.835,44.982,-178.649,1
5.332529,0.002,0.943,-1.205,157.958,39.55,-180.664,1
5.341087,-0.028,0.917,-1.171,170.593,36.193,-182.312,1
5.347991,-0.063,0.861,-1.098,156.005,35.034,-183.898,1
5.356008,-0.092,0.852,-1.047,111.633,37.536,-185.729,1
5.364169,0.196,0.839,-1.046,88.012,39.672,-187.316,1
5.372087,-0.044,0.854,-0.991,69.152,36.865,-189.758,1
5.380424,0.048,0.804,-0.936,58.593,36.315,-191.711,1
5.389422,0.069,0.723,-0.846,45.349,35.827,-194.335,1
5.396643,0.008,0.662,-0.793,31.127,37.17,-196.899,1
5.405932,-0.014,0.6,-0.704,15.38,37.536,-199.829,1
5.412933,-0.083,0.548,-0.642,8.972,38.452,-201.538,1
5.422531,-0.083,0.5,-0.588,9.216,37.231,-203.247,1
5.429497,-0.004,0.44,-0.577,5.92,38.208,-205.078,1
5.439196,-0.22,0.45,-0.542,-0.671,36.132,-206.481,1
5.446433,-0.74,0.45,-0.454,14.221,32.104,-207.58,1
5.454309,-1.013,0.432,-0.369,44.738,25.329,-208.74,1
5.46369,-0.687,0.331,-0.259,69.274,22.094,-209.045,1
5.472275,-0.397,0.212,-0.231,81.848,24.475,-210.021,1
5.478543,-0.298,0.119,-0.211,74.279,30.029,-211.73,1
5.48711,-0.125,0.032,-0.269,59.875,40.527,-215.27,1
5.495044,0.0,-0.046,-0.329,41.137,50.17,-220.214,1
5.504879,-0.038,-0.186,-0.364,18.127,59.997,-223.999,1
5.512552,-0.279,-0.265,-0.435,-18.554,68.298,-227.905,1
5.521992,-0.51,-0.351,-0.424,-50.415,73.73,-231.079,1
5.5298,-0.605,-0.469,-0.492,-73.547,77.514,-233.947,1
5.538649,-0.635,-0.647,-0.563,-89.294,78.43,-234.191,1
5.547729,-0.554,-0.853,-0.653,-100.28,78.613,-231.689,1
5.555559,-0.481,-1.023,-0.714,-101.806,77.209,-225.952,1
5.563497,-0.505,-1.198,-0.81,-89.294,73.913,-220.581,1
5.572461,-0.548,-1.368,-0.88,-78.979,70.617,-212.036,1
5.580266,-0.56,-1.538,-0.912,-79.65,67.443,-200.927,1
5.588636,-0.497,-1.633,-0.929,-84.716,63.72,-191.101,1
5.598073,-0.487,-1.748,-0.902,-86.425,60.546,-181.152,1
5.606558,-0.518,-1.852,-0.895,-86.059,56.274,-166.809,1
5.613952,-0.635,-1.902,-0.869,-77.087,52.917,-155.7,1
5.622637,-0.675,-1.956,-0.821,-57.861,49.072,-143.676,1
5.631098,-0.722,-2.022,-0.785,-36.254,44.555,-130.187,1
5.638203,-0.752,-2.105,-0.707,-30.639,42.724,-117.187,1
5.645823,-0.772,-2.21,-0.671,-42.175,42.053,-100.463,1
5.654498,-0.749,-2.281,-0.548,-63.476,42.968,-85.51,1
5.663495,-0.838,-2.351,-0.454,-79.528,44.494,-69.58,1
5.670489,-0.859,-2.404,-0.307,-89.66,45.959,-50.292,1
5.679013,-0.921,-2.478,-0.204,-87.341,47.302,-33.142,1
5.687464,-0.96,-2.55,-0.021,-76.477,49.804,-15.624,1
5.694546,-1.004,-2.601,0.087,-49.804,53.1,5.859,1
5.703031,-1.013,-2.731,0.21,-32.836,57.556,26.0,1
5.712056,-1.02,-2.855,0.302,-30.761,66.223,47.79,1
5.720822,-1.116,-2.902,0.409,-26.611,76.293,78.125,1
5.729034,-1.246,-2.954,0.455,-15.869,85.144,101.745,1
5.738121,-1.376,-2.984,0.477,0.854,93.933,130.981,1
5.74493,-1.499,-3.004,0.461,18.188,103.637,161.193,1
5.754308,-1.649,-2.994,0.433,31.188,109.924,188.781,1
5.763329,-1.971,-2.919,0.345,51.574,117.797,221.435,1
5.770625,-2.212,-2.808,0.274,78.43,122.314,254.882,1
5.779601,-2.567,-2.693,0.153,94.36,122.192,283.569,1
5.78744,-2.9,-2.484,0.025,119.201,122.924,317.321,1
5.795348,-3.261,-2.437,-0.147,138.244,118.286,351.257,1
5.804592,-3.574,-2.367,-0.191,144.042,114.929,381.774,1
5.812104,-3.942,-2.261,-0.334,146.362,110.961,412.841,1
5.820943,-4.313,-2.189,-0.423,142.272,104.125,449.218,1
5.827561,-4.838,-2.104,-0.548,127.624,99.975,481.14,1
5.836663,-5.338,-1.991,-0.638,105.041,95.031,518.066,1
5.843208,-5.897,-1.873,-0.724,91.857,90.637,549.865,1
5.852386,-6.525,-1.742,-0.821,87.097,85.021,581.42,1
5.860032,-7.196,-1.592,-0.913,94.848,75.866,612.854,1
5.867757,-7.897,-1.459,-0.986,112.548,63.293,644.165,1
5.877007,-8.848,-1.339,-1.041,141.052,45.41,681.213,1
5.88419,-9.822,-1.216,-1.128,171.63,22.094,719.604,1
5.89298,-10.718,-1.086,-1.178,195.495,-2.502,752.258,1
5.900737,-11.849,-0.942,-1.233,220.153,-35.644,790.405,1
5.909672,-13.017,-0.791,-1.234,227.783,-66.894,823.059,1
5.918698,-14.017,-0.602,-1.218,221.801,-98.449,854.553,1
5.925795,-15.326,-0.313,-1.135,209.106,-136.291,889.831,1
5.933843,-15.999,-0.034,-1.025,201.843,-173.645,922.973,1
5.942781,-15.999,0.377,-0.873,214.233,-208.251,948.913,1
5.950451,-15.999,0.787,-0.692,253.601,-256.896,975.341,1
5.958856,-15.999,1.152,-0.552,314.086,-312.805,995.422,1
5.966812,-15.999,1.55,-0.389,375.183,-372.863,1004.882,1
5.975702,-15.999,1.984,-0.148,461.547,-454.04,1003.906,1
5.983394,-15.999,2.112,0.158,514.892,-550.293,992.675,1
5.994098,-15.999,2.483,0.623,578.979,-630.615,973.144,1
6.001474,-15.999,2.794,1.277,702.087,-737.792,933.715,1
6.01075,-15.999,2.901,2.071,877.075,-855.529,867.004,1
6.017985,-15.999,3.377,2.849,1089.965,-965.393,761.352,1
6.02686,-15.999,3.707,3.047,1315.551,-1070.983,622.253,1
6.036004,-15.999,3.377,3.117,1540.588,-1158.081,408.203,1
6.044263,-15.999,2.541,2.947,1516.54,-1185.546,164.733,1
6.053112,-15.999,2.297,2.975,1308.044,-1142.761,-53.71,1
6.062641,-15.999,2.077,2.929,1096.679,-1061.401,-229.797,1
6.071874,-15.999,1.583,3.076,948.12,-955.749,-361.206,1
6.080904,-15.999,1.033,2.645,826.782,-850.036,-459.106,1
6.087914,-15.267,0.83,2.548,685.18,-740.6,-527.038,1
6.096076,-14.173,0.706,2.377,563.842,-657.653,-565.307,1
6.103679,-13.294,0.735,2.222,480.163,-584.716,-591.552,1
6.113168,-12.659,0.788,2.102,422.79,-513.793,-614.196,1
6.121139,-12.048,0.671,1.968,386.23,-454.589,-626.464,1
6.129513,-11.395,0.536,1.811,333.374,-401.061,-632.141,1
6.138065,-10.804,0.479,1.74,266.113,-339.294,-630.493,1
6.14659,-10.417,0.404,1.732,230.834,-299.499,-624.694,1
6.153301,-9.991,0.295,1.712,200.012,-259.704,-616.272,1
6.161284,-9.482,0.193,1.695,164.489,-219.36,-604.248,1
6.169349,-9.02,0.021,1.672,132.385,-187.988,-592.041,1
6.1775,-8.197,-0.024,1.611,89.294,-150.756,-575.927,1
6.184474,-7.608,-0.197,1.521,67.016,-133.117,-561.584,1
6.192453,-7.105,-0.302,1.548,69.946,-108.764,-546.02,1
6.202568,-6.526,-0.423,1.395,76.66,-91.857,-530.578,1
6.209494,-6.02,-0.562,1.361,96.923,-70.861,-512.023,1
6.218205,-5.643,-0.698,1.211,97.534,-51.818,-491.943,1
6.227883,-5.41,-0.81,1.108,101.135,-34.606,-474.06,1
6.234548,-5.192,-0.893,1.151,100.646,-19.531,-456.603,1
6.244888,-4.898,-0.999,1.117,102.172,-6.713,-438.354,1
6.253057,-4.568,-1.182,1.172,101.501,11.047,-412.719,1
6.260718,-4.156,-1.417,1.172,75.073,28.198,-388.122,1
6.269004,-3.839,-1.586,1.208,33.752,43.09,-366.516,1
6.277258,-3.512,-1.71,1.216,-8.544,55.48,-345.214,1
6.286452,-3.154,-1.761,1.275,-30.761,63.171,-324.096,1
6.29356,-2.881,-1.766,1.312,-13.122,68.908,-299.682,1
6.30072,-2.526,-1.794,1.362,25.634,71.166,-279.052,1
6.30827,-2.26,-1.88,1.381,64.941,77.026,-254.516,1
6.316221,-1.991,-1.928,1.411,77.697,84.899,-233.459,1
6.325128,-1.688,-1.937,1.428,79.589,94.848,-212.585,1
6.332613,-1.445,-1.875,1.406,80.81,105.468,-189.208,1
6.341052,-1.225,-1.793,1.378,87.89,113.83,-169.555,1
6.349864,-1.047,-1.695,1.286,99.365,121.154,-147.888,1
6.356891,-0.924,-1.588,1.232,107.421,126.892,-130.249,1
6.36578,-0.812,-1.491,1.144,113.708,132.019,-113.159,1
6.373789,-0.771,-1.373,1.073,110.839,136.718,-97.473,1
6.380236,-0.726,-1.279,0.99,103.576,141.967,-82.458,1
6.38927,-0.628,-1.2,0.919,93.444,146.484,-66.65,1
6.398582,-0.552,-1.1,0.84,91.735,149.841,-53.894,1
6.404633,-0.474,-0.992,0.742,96.679,151.0,-40.344,1
6.413673,-0.421,-0.923,0.668,105.712,151.916,-29.418,1
6.421985,-0.329,-0.869,0.593,114.929,151.672,-18.798,1
6.430441,-0.22,-0.789,0.525,124.755,151.55,-7.873,1
6.437619,-0.148,-0.71,0.473,140.014,149.841,4.028,1
6.445679,-0.11,-0.642,0.434,154.174,148.803,14.282,1
6.454652,-0.077,-0.583,0.373,162.536,147.521,25.451,1
6.462089,-0.108,-0.506,0.354,166.137,146.667,34.729,1
6.47174,-0.034,-0.464,0.314,168.151,145.812,44.86,1
6.478644,0.042,-0.459,0.266,160.522,145.751,54.504,1
6.486298,0.07,-0.44,0.234,146.118,145.812,62.499,1
6.494681,0.087,-0.4,0.213,130.371,145.507,70.922,1
6.501582,0.23,-0.36,0.199,123.84,144.958,77.087,1
6.50872,0.292,-0.313,0.18,122.497,143.127,82.824,1
6.515828,0.35,-0.27,0.182,124.511,142.15,86.914,1
6.523008,0.387,-0.237,0.175,127.197,140.502,91.674,1
6.531985,0.443,-0.2,0.179,129.028,140.136,96.191,1
6.538588,0.485,-0.16,0.166,129.211,139.465,100.585,1
6.549112,0.492,-0.121,0.157,128.845,138.977,104.614,1
6.555817,0.505,-0.076,0.135,126.342,138.916,109.313,1
6.563967,0.512,-0.044,0.115,123.229,138.549,112.854,1
6.572522,0.527,-0.003,0.086,121.643,137.878,116.516,1
6.579621,0.533,0.032,0.071,123.291,136.596,119.934,1
6.586556,0.521,0.077,0.051,129.211,134.826,123.413,1
6.593993,0.49,0.129,0.025,139.221,131.835,126.892,1
6.60148,0.453,0.169,0.016,147.827,129.272,129.455,1
6.609844,0.424,0.194,0.0,152.343,126.708,131.896,1
6.61859,0.402,0.213,-0.007,151.55,125.122,134.765,1
6.625936,0.395,0.242,-0.003,146.972,123.535,137.695,1
6.633341,0.37,0.281,0.015,139.892,123.779,140.38,1
6.641918,0.369,0.336,0.021,132.873,123.962,142.578,1
6.648185,0.359,0.377,0.026,127.38,123.352,144.958,1
6.657158,0.346,0.423,0.045,125.671,123.352,147.094,1
6.66546,0.31,0.488,0.052,125.671,123.352,149.353,1
6.67266,0.268,0.544,0.06,127.441,123.229,151.245,1
6.681091,0.238,0.581,0.055,127.258,122.802,152.465,1
6.688034,0.196,0.637,0.054,124.877,122.802,153.198,1
6.694113,0.155,0.678,0.053,121.643,123.413,153.32,1
6.701774,0.151,0.708,0.057,117.37,124.023,153.381,1
6.708427,0.118,0.75,0.055,116.943,124.45,153.808,1
6.717524,0.124,0.799,0.046,119.812,124.633,154.113,1
6.724317,0.12,0.862,0.035,122.802,124.816,154.357,1
6.73185,0.066,0.914,0.013,123.718,124.328,154.785,1
6.739688,0.02,0.955,-0.004,121.52,124.755,154.724,1
6.747309,-0.022,0.993,-0.016,115.905,125.122,154.479,1
6.756224,-0.069,1.032,-0.023,107.299,126.831,153.869,1
6.763625,-0.126,1.079,-0.053,101.196,126.708,152.954,1
6.772499,-0.17,1.108,-0.052,100.83,126.831,151.855,1
6.780075,-0.17,1.134,-0.054,104.919,126.403,151.123,1
6.787916,-0.178,1.217,-0.037,114.257,127.685,150.39,1
6.796914,-0.203,1.254,-0.097,126.342,123.84,148.742,1
6.805239,-0.238,1.252,-0.064,138.793,123.291,148.193,1
6.812181,-0.23,1.246,-0.11,138.488,122.497,147.705,1
6.820119,-0.24,1.239,-0.125,126.525,122.802,147.277,1
6.827377,-0.287,1.241,-0.164,109.069,123.596,146.789,1
6.835238,-0.288,1.247,-0.173,97.412,123.718,146.301,1
6.844636,-0.269,1.277,-0.199,94.909,123.474,146.179,1
6.853428,-0.247,1.351,-0.213,105.346,120.605,146.972,1
6.860037,-0.28,1.381,-0.22,116.394,117.248,146.545,1
6.868359,-0.344,1.406,-0.221,122.497,116.088,146.179,1
6.87568,-0.381,1.415,-0.251,120.727,113.525,145.263,1
6.883036,-0.407,1.396,-0.246,116.821,112.487,144.653,1
6.891635,-0.414,1.401,-0.276,110.473,111.45,143.981,1
6.902333,-0.431,1.409,-0.299,103.332,109.558,142.333,1
6.909223,-0.453,1.407,-0.323,102.783,106.994,140.808,1
6.918284,-0.468,1.395,-0.354,108.398,103.698,139.77,1
6.925034,-0.443,1.375,-0.386,112.609,100.341,139.038,1
6.934019,-0.421,1.385,-0.397,116.21,96.435,138.427,1
6.94313,-0.437,1.401,-0.412,115.722,93.383,137.878,1
6.950352,-0.437,1.427,-0.411,112.67,90.576,137.084,1
6.960553,-0.432,1.459,-0.418,107.482,87.646,135.864,1
6.968646,-0.446,1.515,-0.431,99.853,84.96,133.483,1
6.977682,-0.424,1.551,-0.447,91.552,82.275,130.371,1
6.984959,-0.399,1.574,-0.467,85.815,80.078,127.075,1
6.993553,-0.376,1.586,-0.496,80.2,77.819,123.718,1
7.000725,-0.341,1.602,-0.539,72.509,75.622,119.934,1
7.010884,-0.322,1.645,-0.564,60.974,72.509,115.051,1
7.017629,-0.314,1.676,-0.574,54.382,69.885,110.778,1
7.026531,-0.311,1.691,-0.565,44.982,67.932,105.102,1
7.034534,-0.289,1.711,-0.566,38.208,66.284,100.097,1
7.042935,-0.255,1.722,-0.562,39.001,63.232,94.421,1
7.050833,-0.222,1.706,-0.556,43.334,60.607,89.782,1
7.05834,-0.183,1.655,-0.562,45.898,57.617,85.266,1
7.067388,-0.153,1.61,-0.559,47.912,55.236,81.848,1
7.074038,-0.125,1.566,-0.562,50.109,52.49,79.284,1
7.081898,-0.102,1.514,-0.566,49.682,49.499,77.087,1
7.090503,-0.082,1.461,-0.562,45.104,47.302,75.561,1
7.098545,-0.062,1.418,-0.546,38.513,45.654,74.34,1
7.10741,-0.023,1.365,-0.552,29.174,44.616,73.608,1
7.1151,-0.031,1.384,-0.497,17.822,43.762,72.998,1
7.122346,-0.044,1.414,-0.458,7.873,41.381,72.875,1
7.131537,-0.056,1.469,-0.416,8.728,40.832,70.922,1
7.140322,-0.059,1.499,-0.385,21.24,37.902,68.603,1
7.147266,-0.071,1.494,-0.361,25.634,35.827,66.162,1
7.155844,-0.075,1.499,-0.362,22.521,34.606,63.903,1
7.16434,-0.078,1.504,-0.336,16.662,33.203,60.546,1
7.17147,-0.102,1.506,-0.318,10.192,32.836,56.579,1
7.178985,-0.074,1.485,-0.324,5.798,31.677,53.466,1
7.186807,-0.186,1.488,-0.308,-0.305,30.273,50.292,1
7.196574,-0.069,1.476,-0.317,2.319,30.151,46.508,1
7.203985,-0.175,1.513,-0.309,7.202,26.428,42.724,1
7.213181,-0.153,1.495,-0.292,14.16,24.841,39.794,1
7.219286,-0.174,1.493,-0.292,13.732,22.766,36.499,1
7.228049,-0.181,1.487,-0.283,8.911,21.972,32.958,1
7.234746,-0.182,1.482,-0.275,3.173,20.935,29.724,1
7.243644,-0.167,1.48,-0.257,0.244,19.836,26.428,1
7.25076,-0.161,1.473,-0.239,0.854,18.249,22.644,1
7.258239,-0.162,1.455,-0.211,1.892,16.845,19.531,1
7.266916,-0.161,1.434,-0.194,2.441,16.052,16.845,1
7.275099,-0.147,1.397,-0.173,2.258,15.075,13.916,1
7.282842,-0.141,1.371,-0.157,1.403,14.709,11.657,1
7.289707,-0.141,1.345,-0.156,1.403,14.221,9.826,1
7.298528,-0.144,1.325,-0.155,2.258,13.488,7.812,1
7.305761,-0.155,1.299,-0.149,2.99,12.756,6.042,1
7.313763,-0.162,1.262,-0.145,2.075,12.268,4.394,1
7.32083,-0.174,1.23,-0.144,0.732,11.84,3.051,1
7.329566,-0.184,1.196,-0.144,0.122,11.108,1.586,1
7.33648,-0.192,1.175,-0.139,-0.061,10.253,0.61,1
7.345951,-0.206,1.138,-0.139,0.549,9.704,-0.671,1
7.35258,-0.212,1.104,-0.135,0.549,9.033,-1.281,1
7.361097,-0.211,1.068,-0.131,-0.061,8.3,-2.075,1
7.36797,-0.21,1.038,-0.133,-1.22,7.629,-2.38,1
7.377757,-0.215,1.02,-0.136,-0.549,6.713,-2.807,1
7.385969,-0.213,0.982,-0.138,1.586,5.676,-2.868,1
7.393152,-0.22,0.951,-0.136,5.126,4.699,-2.685,1
7.402105,-0.237,0.916,-0.133,3.234,3.54,-2.38,1
7.409505,-0.201,0.893,-0.124,0.854,3.173,-2.014,1
7.417238,-0.24,0.869,-0.121,0.244,2.197,-1.525,1
7.42436,-0.193,0.852,-0.109,0.793,1.22,-0.793,1
7.433423,-0.2,0.838,-0.116,4.211,0.549,0.061,1
7.441547,-0.216,0.819,-0.113,5.615,-0.122,1.22,1
7.450209,-0.208,0.807,-0.117,4.272,-1.098,2.258,1
7.456941,-0.215,0.807,-0.115,3.784,-2.075,3.723,1
7.466246,-0.223,0.81,-0.116,3.967,-2.807,4.638,1
7.473767,-0.235,0.815,-0.107,4.394,-4.272,5.981,1
7.481863,-0.232,0.82,-0.096,5.615,-5.493,6.896,1
7.489135,-0.25,0.828,-0.082,6.469,-6.164,8.117,1
7.497895,-0.266,0.835,-0.065,8.361,-7.324,9.338,1
7.504787,-0.268,0.84,-0.055,8.3,-8.117,9.826,1
7.513496,-0.264,0.838,-0.039,6.469,-8.666,10.559,1
7.521029,-0.261,0.833,-0.024,4.15,-8.605,11.474,1
7.530602,-0.249,0.841,-0.015,1.647,-8.911,12.329,1
7.537991,-0.235,0.851,-0.002,0.427,-8.85,13.549,1
7.545836,-0.226,0.863,0.007,-0.549,-9.033,13.977,1
7.555371,-0.223,0.881,0.021,0.366,-9.094,14.831,1
7.562784,-0.235,0.903,0.027,2.746,-9.46,15.319,1
7.571869,-0.236,0.928,0.037,3.906,-9.521,15.686,1
7.580165,-0.238,0.945,0.051,2.441,-9.765,15.93,1
7.587882,-0.245,0.978,0.071,-1.037,-9.399,15.808,1
7.596987,-0.266,0.845,0.066,-13.977,-9.216,17.639,1
7.604137,-0.102,0.945,0.113,-35.705,-4.211,17.944,1
7.612759,-0.239,1.101,0.139,-44.25,-6.469,17.028,1
7.622183,-0.275,1.168,0.23,-23.437,-5.676,15.991,1
7.629148,-0.193,1.146,0.24,-4.333,-6.896,14.831,1
7.636832,-0.21,1.153,0.277,0.427,-6.103,14.221,1
7.644145,-0.227,1.193,0.331,-0.976,-5.065,13.671,1
7.654867,-0.256,1.272,0.431,-8.422,-2.99,13.549,1
7.66181,-0.217,1.348,0.533,-6.835,-1.281,10.681,1
7.672602,-0.257,1.426,0.705,5.065,0.61,8.544,1
7.679138,-0.232,1.43,0.856,14.709,3.845,5.981,1
7.687052,-0.168,1.477,0.993,10.681,11.108,2.258,1
7.695004,-0.197,1.567,1.15,-0.732,17.761,-0.915,1
7.703413,-0.207,1.656,1.323,-3.723,25.878,-5.371,1
7.713063,-0.187,1.725,1.477,0.976,33.447,-9.643,1
7.721723,-0.204,1.775,1.66,8.972,43.212,-14.648,1
7.729182,-0.198,1.787,1.84,7.812,55.114,-19.226,1
7.738769,-0.178,1.793,2.015,-4.638,70.19,-23.62,1
7.745885,-0.202,1.814,2.155,-21.301,84.716,-27.648,1
7.753491,-0.243,1.822,2.235,-39.062,99.975,-32.104,1
7.760603,-0.297,1.836,2.298,-53.161,115.234,-35.949,1
7.769104,-0.347,1.853,2.333,-61.828,129.943,-40.588,1
7.776233,-0.443,1.859,2.328,-65.856,144.165,-45.166,1
7.785742,-0.554,1.86,2.282,-64.758,159.606,-51.208,1
7.794576,-0.656,1.854,2.219,-59.509,172.607,-56.762,1
7.801652,-0.76,1.843,2.176,-54.138,184.57,-62.072,1
7.810216,-0.815,1.805,2.098,-57.312,197.937,-67.443,1
7.81834,-0.911,1.812,2.02,-71.35,211.914,-73.12,1
7.826682,-0.998,1.824,1.931,-84.655,222.9,-78.247,1
7.834469,-1.098,1.875,1.828,-95.031,234.802,-85.632,1
7.845375,-1.193,1.916,1.703,-100.708,242.797,-92.163,1
7.853159,-1.307,1.985,1.593,-99.243,251.22,-100.341,1
7.860666,-1.407,1.998,1.437,-97.9,257.385,-109.497,1
7.86946,-1.483,2.017,1.341,-100.463,263.916,-118.652,1
7.876758,-1.536,2.005,1.211,-102.233,269.104,-126.281,1
7.886047,-1.606,1.985,1.059,-113.708,272.644,-133.911,1
7.894606,-1.684,2.038,0.959,-131.896,277.893,-144.042,1
7.901029,-1.766,2.074,0.795,-156.677,281.25,-153.442,1
7.909721,-1.887,2.126,0.662,-201.416,285.156,-166.076,1
7.918359,-1.965,2.244,0.467,-246.582,285.522,-182.067,1
7.925855,-1.996,2.354,0.323,-268.31,281.982,-197.814,1
7.933878,-2.008,2.444,0.196,-267.395,274.78,-214.172,1
7.942141,-2.029,2.492,0.03,-241.455,264.77,-232.238,1
7.950508,-2.067,2.514,-0.113,-219.116,254.028,-247.253,1
7.960703,-2.154,2.502,-0.28,-196.472,242.004,-263.061,1
7.969379,-2.231,2.488,-0.423,-178.955,229.858,-276.489,1
7.976841,-2.208,2.418,-0.578,-165.71,215.148,-292.297,1
7.985979,-2.24,2.351,-0.713,-164.794,201.171,-304.504,1
7.993856,-2.23,2.256,-0.829,-167.602,187.072,-316.528,1
8.002716,-2.313,2.232,-0.907,-174.621,175.659,-325.317,1
8.010906,-2.29,2.14,-1.011,-154.602,157.348,-335.693,1
8.018746,-2.292,1.999,-1.084,-133.789,143.188,-342.529,1
8.027186,-2.347,1.903,-1.168,-121.52,127.502,-348.937,1
8.037888,-2.354,1.805,-1.206,-122.558,115.234,-354.064,1
8.044945,-2.268,1.727,-1.195,-126.77,100.83,-359.68,1
8.052989,-2.294,1.672,-1.206,-122.802,88.623,-363.403,1
8.062305,-2.25,1.616,-1.224,-108.703,74.584,-366.882,1
8.070974,-2.275,1.541,-1.24,-95.458,62.316,-369.14,1
8.079892,-2.235,1.416,-1.254,-84.411,50.109,-370.788,1
8.089126,-2.184,1.303,-1.246,-74.462,38.696,-371.398,1
8.098097,-2.179,1.203,-1.27,-62.683,27.648,-371.093,1
8.105551,-2.167,1.103,-1.293,-56.457,16.662,-369.811,1
8.114012,-2.155,1.002,-1.283,-59.875,7.202,-368.225,1
8.120822,-2.114,0.928,-1.258,-69.824,-0.671,-366.271,1
8.129446,-2.091,0.855,-1.21,-77.88,-9.399,-364.074,1
8.137476,-2.062,0.786,-1.183,-80.444,-17.211,-361.938,1
8.146356,-2.038,0.712,-1.155,-81.115,-24.841,-359.436,1
8.154944,-2.003,0.636,-1.111,-76.232,-33.935,-356.445,1
8.164113,-1.935,0.534,-1.069,-69.58,-41.931,-353.698,1
8.171003,-1.918,0.426,-0.996,-63.049,-48.034,-350.707,1
8.179824,-1.859,0.338,-0.959,-52.124,-53.283,-346.923,1
8.187723,-1.777,0.272,-0.915,-42.358,-58.593,-343.688,1
8.19709,-1.738,0.183,-0.844,-23.681,-62.255,-339.416,1
8.20602,-1.72,0.107,-0.808,-4.516,-64.697,-334.594,1
8.213721,-1.645,0.009,-0.791,3.601,-64.697,-329.711,1
8.222725,-1.633,-0.045,-0.781,6.835,-64.453,-325.683,1
8.229817,-1.516,-0.13,-0.788,1.831,-64.086,-321.044,1
8.239502,-1.47,-0.182,-0.75,-9.338,-63.171,-316.162,1
8.249416,-1.509,-0.207,-0.721,-13.916,-61.218,-311.828,1
8.256292,-1.27,-0.28,-0.758,-19.958,-62.255,-305.603,1
8.26497,-1.354,-0.279,-0.674,-16.784,-62.561,-300.964,1
8.272046,-1.286,-0.353,-0.699,-7.202,-61.645,-297.485,1
8.279869,-1.266,-0.386,-0.717,-2.624,-63.659,-293.457,1
8.288276,-1.207,-0.468,-0.66,0.305,-62.805,-290.1,1
8.297969,-1.254,-0.473,-0.653,13.183,-62.194,-285.827,1
8.304928,-1.146,-0.58,-0.641,14.77,-61.828,-281.616,1
8.313275,-1.12,-0.655,-0.637,8.422,-58.898,-277.404,1
8.32188,-1.093,-0.765,-0.617,-9.216,-56.64,-272.888,1
8.330996,-1.04,-0.809,-0.598,-33.508,-52.978,-266.235,1
8.339948,-0.961,-0.863,-0.595,-54.016,-51.696,-259.704,1
8.348538,-0.938,-0.871,-0.557,-61.401,-51.818,-254.516,1
8.357499,-0.924,-0.901,-0.545,-62.866,-52.795,-249.511,1
8.366108,-0.937,-0.954,-0.537,-65.734,-53.161,-245.483,1
8.375199,-0.91,-0.929,-0.51,-63.476,-52.917,-240.6,1
8.382877,-0.924,-1.05,-0.5,-64.575,-55.786,-235.9,1
8.39137,-0.92,-1.086,-0.471,-67.138,-54.199,-229.003,1
8.400225,-0.929,-1.126,-0.454,-68.42,-56.396,-222.9,1
8.409983,-0.961,-1.161,-0.439,-64.331,-56.03,-217.102,1
8.419049,-0.966,-1.233,-0.42,-59.387,-57.067,-211.181,1
8.427869,-1.0,-1.291,-0.384,-58.776,-58.41,-204.04,1
8.435528,-1.004,-1.356,-0.402,-44.555,-58.044,-199.035,1
8.444515,-0.962,-1.366,-0.331,-33.569,-61.218,-192.626,1
8.453342,-1.004,-1.487,-0.372,-25.695,-60.729,-184.509,1
8.460881,-0.921,-1.653,-0.314,-45.593,-59.753,-175.292,1
8.469951,-0.992,-1.723,-0.292,-39.916,-60.119,-166.32,1
8.477959,-0.967,-1.886,-0.206,-54.443,-61.889,-156.005,1
8.486839,-0.991,-1.968,-0.128,-52.917,-59.631,-145.446,1
8.495233,-1.001,-2.115,-0.016,-50.17,-60.791,-132.324,1
8.505463,-1.054,-2.254,0.087,-32.47,-57.922,-118.835,1
8.514383,-0.998,-2.427,0.192,-4.15,-56.274,-104.125,1
8.521607,-1.018,-2.619,0.287,5.249,-51.818,-87.768,1
8.531247,-1.008,-2.745,0.392,20.141,-46.569,-72.326,1
8.537928,-0.937,-2.978,0.466,21.484,-38.635,-52.246,1
8.547243,-0.934,-3.12,0.531,10.375,-31.372,-33.996,1
8.555835,-0.966,-3.24,0.623,-8.605,-20.202,-11.413,1
8.565255,-0.938,-3.28,0.745,-4.15,-9.277,12.451,1
8.571814,-1.011,-3.285,0.816,13.916,0.549,35.827,1
8.579352,-1.008,-3.37,0.837,11.718,9.277,57.495,1
8.58837,-1.122,-3.309,0.931,12.756,21.179,79.833,1
8.597256,-1.078,-3.356,0.908,23.925,29.846,101.989,1
8.603747,-1.256,-3.242,0.994,34.667,44.372,128.234,1
8.612497,-1.407,-3.104,0.96,47.302,53.039,150.756,1
8.621215,-1.54,-3.082,0.933,58.288,66.65,180.419,1
8.631003,-1.757,-2.955,0.952,60.668,79.284,203.124,1
8.637116,-1.987,-2.831,0.921,64.575,90.637,228.698,1
8.646302,-2.219,-2.729,0.914,63.293,102.905,251.159,1
8.655686,-2.46,-2.598,0.878,59.875,114.013,273.315,1
8.664292,-2.793,-2.451,0.858,58.715,127.685,299.316,1
8.672683,-3.167,-2.308,0.802,57.312,140.686,325.134,1
8.680038,-3.575,-2.166,0.766,55.908,154.357,350.83,1
8.688857,-4.014,-2.028,0.703,54.809,167.724,377.197,1
8.69693,-4.41,-1.847,0.665,58.044,179.504,399.475,1
8.705155,-4.854,-1.78,0.514,55.541,191.101,426.635,1
8.712446,-5.317,-1.659,0.508,48.706,205.932,451.171,1
8.721866,-5.733,-1.545,0.365,43.151,216.308,475.158,1
8.729827,-6.338,-1.394,0.322,39.184,230.224,502.624,1
8.738712,-6.807,-1.293,0.196,30.517,242.248,526.733,1
8.746262,-7.552,-1.147,0.152,23.803,257.141,554.687,1
8.754007,-8.305,-1.012,0.065,23.376,271.789,583.618,1
8.762366,-9.102,-0.893,-0.035,29.724,283.63,608.825,1
8.771608,-9.863,-0.804,-0.116,30.09,296.997,640.441,1
8.778906,-10.912,-0.715,-0.192,20.812,310.913,672.668,1
8.787919,-11.845,-0.643,-0.271,0.976,326.11,701.354,1
8.795295,-13.104,-0.527,-0.385,-27.587,345.642,734.68,1
8.803499,-14.328,-0.37,-0.44,-39.062,363.83,762.207,1
8.810443,-15.62,-0.191,-0.518,-24.536,380.187,789.672,1
8.818305,-15.995,0.015,-0.635,22.094,388.916,819.885,1
8.826376,-15.999,0.268,-0.72,98.937,384.582,853.027,1
8.834548,-15.999,0.554,-0.901,193.725,366.699,890.075,1
8.842149,-15.999,0.844,-1.022,299.804,326.416,937.194,1
8.849096,-15.999,1.177,-1.164,378.051,276.184,978.515,1
8.858158,-15.999,1.583,-1.179,447.692,210.754,1017.822,1
8.86464,-15.999,1.969,-1.088,521.24,132.629,1054.321,1
8.873036,-15.999,2.338,-1.097,601.379,37.597,1083.618,1
8.87971,-15.999,2.786,-0.857,683.898,-71.411,1104.736,1
8.888056,-15.999,3.017,-0.691,758.3,-174.377,1114.196,1
8.895406,-15.999,3.378,-0.225,892.394,-337.524,1110.412,1
8.903188,-15.999,3.491,0.517,1040.588,-493.591,1088.378,1
8.910769,-15.999,3.628,1.59,1196.899,-660.522,1044.738,1
8.918474,-15.999,3.993,2.673,1419.921,-831.848,955.322,1
8.926267,-15.999,4.013,3.702,1676.208,-1007.812,800.537,1
8.934792,-15.999,3.039,4.014,1777.831,-1153.808,549.316,1
8.942297,-15.999,1.962,4.058,1465.209,-1186.157,341.247,1
8.95036,-15.999,2.16,4.136,1092.712,-1155.883,182.617,1
8.958617,-15.999,2.64,4.189,900.207,-1123.901,44.494,1
8.967003,-15.999,2.552,3.915,953.552,-1081.176,-64.819,1
8.9748,-15.999,1.963,3.413,990.539,-1033.203,-181.396,1
8.982035,-15.999,1.16,3.063,863.281,-938.598,-299.133,1
8.990237,-15.682,0.641,2.694,667.175,-860.29,-370.117,1
8.999549,-14.246,0.54,2.765,496.582,-780.944,-414.367,1
9.006251,-13.149,0.551,2.677,358.703,-701.293,-444.457,1
9.0142,-12.336,0.623,2.625,290.466,-641.357,-459.96,1
9.023049,-11.747,0.7,2.561,253.051,-590.637,-470.764,1
9.031507,-11.167,0.727,2.552,236.816,-541.381,-478.332,1
9.037655,-10.571,0.716,2.48,241.027,-487.548,-486.145,1
9.045578,-10.01,0.581,2.408,243.591,-444.396,-490.478,1
9.055319,-9.416,0.4,2.314,232.604,-400.634,-492.431,1
9.062284,-8.88,0.23,2.231,197.753,-353.942,-489.501,1
9.071462,-8.169,0.09,2.15,169.25,-315.673,-483.947,1
9.080295,-7.543,-0.03,2.103,135.009,-277.954,-474.914,1
9.087586,-6.833,-0.198,2.04,104.431,-245.727,-465.087,1
9.096918,-6.314,-0.286,1.965,70.617,-213.928,-451.11,1
9.105676,-5.725,-0.358,1.875,58.593,-187.499,-436.95,1
9.113124,-5.267,-0.433,1.811,62.988,-164.001,-422.241,1
9.121638,-4.781,-0.521,1.711,69.274,-145.69,-409.118,1
9.130825,-4.409,-0.583,1.642,72.998,-124.877,-393.981,1
9.141192,-4.012,-0.654,1.532,63.11,-104.003,-378.173,1
9.149498,-3.756,-0.651,1.453,45.104,-85.327,-361.572,1
9.156804,-3.566,-0.649,1.383,35.522,-68.786,-346.008,1
9.166106,-3.349,-0.666,1.329,28.869,-54.443,-330.383,1
9.173069,-3.086,-0.712,1.271,17.578,-41.381,-314.636,1
9.182999,-2.862,-0.735,1.26,5.065,-31.188,-301.696,1
9.18994,-2.597,-0.772,1.241,-7.995,-20.629,-286.376,1
9.198361,-2.366,-0.788,1.26,-11.047,-12.634,-273.193,1
9.206693,-2.114,-0.819,1.232,-10.375,-4.577,-257.873,1
9.21559,-1.82,-0.89,1.223,-11.352,2.685,-242.553,1
9.222793,-1.577,-0.95,1.208,-22.888,9.399,-229.248,1
9.231949,-1.305,-0.987,1.211,-39.611,15.686,-216.064,1
9.238989,-1.084,-0.999,1.198,-53.1,22.583,-200.927,1
9.248291,-0.878,-1.007,1.175,-56.274,26.306,-187.988,1
9.255915,-0.691,-0.992,1.142,-48.034,30.151,-172.912,1
9.265252,-0.477,-0.979,1.105,-31.494,31.433,-160.278,1
9.273355,-0.28,-0.964,1.089,-2.868,33.386,-143.798,1
9.281254,-0.09,-0.924,1.06,18.798,35.095,-132.08,1
9.288822,-0.022,-0.877,1.025,39.245,38.696,-119.384,1
9.298346,0.022,-0.817,0.973,48.461,41.259,-111.145,1
9.304235,0.056,-0.753,0.935,56.03,45.166,-100.463,1
9.313001,0.088,-0.706,0.887,57.189,48.828,-91.857,1
9.32144,0.101,-0.661,0.829,52.124,52.612,-83.801,1
9.328036,0.113,-0.613,0.773,44.555,56.03,-76.11,1
9.335118,0.112,-0.556,0.73,39.306,58.837,-69.396,1
9.344055,0.109,-0.512,0.688,36.865,60.791,-62.744,1
9.351094,0.119,-0.487,0.65,35.461,62.255,-56.457,1
9.358321,0.144,-0.459,0.618,33.02,63.537,-50.598,1
9.36706,0.187,-0.431,0.575,30.273,64.514,-44.982,1
9.373669,0.233,-0.4,0.54,28.076,64.697,-39.855,1
9.381957,0.257,-0.344,0.507,28.32,63.842,-34.484,1
9.389806,0.271,-0.306,0.476,29.113,62.988,-31.249,1
9.398728,0.276,-0.275,0.452,30.151,61.218,-27.221,1
9.407136,0.297,-0.25,0.441,32.714,59.631,-23.925,1
9.413957,0.334,-0.241,0.431,37.597,57.189,-19.958,1
9.422114,0.367,-0.255,0.44,39.306,55.603,-16.54,1
9.42892,0.415,-0.273,0.457,39.367,54.321,-12.573,1
9.438764,0.438,-0.287,0.464,37.536,53.283,-8.911,1
9.446905,0.431,-0.275,0.483,36.56,52.429,-4.333,1
9.455512,0.437,-0.263,0.482,39.489,51.208,0.0,1
9.463449,0.428,-0.267,0.489,42.236,50.476,3.662,1
9.470629,0.438,-0.277,0.492,43.64,49.56,8.056,1
9.478289,0.468,-0.291,0.497,44.006,49.499,11.779,1
9.485951,0.498,-0.295,0.497,45.41,49.133,15.869,1
9.494721,0.543,-0.302,0.514,48.767,48.95,19.714,1
9.50356,0.571,-0.309,0.513,53.222,49.133,24.169,1
9.511114,0.609,-0.296,0.516,58.105,49.316,29.418,1
9.519926,0.627,-0.287,0.517,63.232,49.499,33.63,1
9.527491,0.627,-0.267,0.51,68.481,49.133,38.269,1
9.536695,0.596,-0.247,0.518,69.824,49.316,42.236,1
9.544491,0.601,-0.25,0.519,63.72,50.048,46.813,1
9.552513,0.621,-0.25,0.526,53.344,51.757,50.476,1
9.560132,0.637,-0.243,0.534,44.555,53.405,54.321,1
9.567943,0.68,-0.229,0.546,40.649,54.992,58.776,1
9.577308,0.699,-0.218,0.541,44.311,56.457,62.683,1
9.584945,0.714,-0.217,0.539,52.246,56.701,67.138,1
9.593023,0.727,-0.223,0.525,58.593,57.312,72.143,1
9.602034,0.742,-0.214,0.518,63.537,57.617,76.293,1
9.609044,0.738,-0.192,0.502,70.861,57.739,81.359,1
9.617292,0.726,-0.174,0.482,77.636,57.617,85.693,1
9.625757,0.71,-0.157,0.458,83.679,57.373,89.538,1
9.632276,0.701,-0.131,0.44,89.111,57.312,93.322,1
9.638784,0.696,-0.11,0.427,93.078,57.006,97.045,1
9.648355,0.689,-0.101,0.416,92.895,57.25,99.731,1
9.654873,0.687,-0.096,0.412,86.364,58.166,103.82,1
9.662813,0.697,-0.087,0.402,76.904,59.448,107.604,1
9.671901,0.686,-0.065,0.391,68.298,61.279,111.328,1
9.679533,0.669,-0.033,0.384,63.537,63.049,115.661,1
9.687255,0.652,0.0,0.372,64.941,63.354,120.056,1
9.69712,0.632,0.016,0.359,67.81,63.232,124.511,1
9.704683,0.598,0.043,0.354,68.664,63.354,128.906,1
9.711747,0.573,0.065,0.351,67.81,63.72,133.789,1
9.72041,0.557,0.103,0.354,67.749,64.208,137.634,1
9.729578,0.546,0.143,0.354,69.274,64.941,141.845,1
9.736853,0.543,0.175,0.352,72.082,65.063,145.385,1
9.744939,0.52,0.199,0.351,75.195,65.612,148.742,1
9.751881,0.5,0.213,0.343,76.965,66.101,152.587,1
9.759868,0.47,0.251,0.345,78.369,66.467,156.433,1
9.766416,0.441,0.306,0.334,81.542,66.955,159.851,1
9.774603,0.402,0.359,0.333,86.669,66.711,162.963,1
9.781389,0.372,0.399,0.331,91.857,66.406,165.649,1
9.789761,0.329,0.425,0.324,93.566,66.406,168.273,1
9.796729,0.297,0.449,0.329,88.562,67.199,170.776,1
9.803659,0.267,0.466,0.333,79.101,68.298,173.278,1
9.813308,0.263,0.494,0.343,68.237,70.312,175.842,1
9.821062,0.245,0.55,0.357,61.584,72.326,178.771,1
9.827624,0.235,0.591,0.37,60.058,74.34,180.969,1
9.834562,0.207,0.641,0.375,64.636,76.171,183.898,1
9.842827,0.198,0.677,0.368,67.871,77.27,185.424,1
9.851642,0.157,0.716,0.364,70.373,78.43,187.194,1
9.858366,0.143,0.721,0.336,66.345,80.139,188.415,1
9.866333,0.091,0.779,0.347,56.762,81.787,190.185,1
9.87469,0.031,0.856,0.353,53.1,83.984,191.162,1
9.881922,-0.019,0.903,0.337,52.124,84.411,191.162,1
9.891332,-0.062,0.933,0.331,50.903,85.937,190.612,1
9.897766,-0.094,0.935,0.301,43.884,86.425,190.429,1
9.905162,-0.197,1.004,0.295,39.489,88.256,190.185,1
9.912647,-0.229,1.045,0.287,40.954,88.134,189.025,1
9.920492,-0.271,1.054,0.254,41.625,88.256,187.744,1
9.929561,-0.307,1.023,0.241,35.766,88.745,186.706,1
9.936887,-0.311,1.005,0.206,25.024,89.477,186.401,1
9.943853,-0.278,1.015,0.207,13.427,91.491,185.18,1
9.952749,-0.334,1.053,0.175,10.681,92.285,183.837,1
9.961877,-0.364,1.059,0.152,9.094,92.895,182.25,1
9.969535,-0.414,1.077,0.148,11.84,92.773,180.419,1
9.977603,-0.439,1.068,0.124,15.319,92.59,178.405,1
9.984826,-0.532,1.103,0.113,18.249,92.407,177.246,1
9.993924,-0.542,1.116,0.097,21.301,91.552,175.72,1
