timestamp_s,ax,ay,az,gx,gy,gz,label
0.006684,0.814,0.547,-0.258,0.671,-0.488,0.366,1
0.01391,0.819,0.547,-0.256,0.061,-0.305,0.244,1
0.020662,0.812,0.549,-0.256,-0.305,-0.244,0.366,1
0.028377,0.813,0.548,-0.252,0.0,-0.183,0.366,1
0.035759,0.813,0.546,-0.256,0.0,-0.183,0.488,1
0.043295,0.81,0.544,-0.254,0.183,-0.366,0.427,1
0.050788,0.811,0.551,-0.253,0.61,-0.183,0.427,1
0.0595,0.808,0.55,-0.247,0.976,-0.305,0.549,1
0.067763,0.809,0.547,-0.25,1.159,-0.427,0.366,1
0.07587,0.807,0.547,-0.249,1.586,-0.183,0.366,1
0.083291,0.805,0.548,-0.246,1.098,-0.305,0.305,1
0.089703,0.807,0.55,-0.249,0.732,-0.061,0.122,1
0.099027,0.808,0.547,-0.252,0.488,-0.122,0.366,1
0.106726,0.812,0.548,-0.25,0.427,-0.305,0.366,1
0.11536,0.816,0.546,-0.248,-0.061,-0.244,0.427,1
0.121939,0.817,0.549,-0.246,-0.305,-0.183,0.366,1
0.129682,0.813,0.552,-0.25,0.0,-0.183,0.427,1
0.139075,0.817,0.555,-0.249,-0.122,-0.122,0.488,1
0.145797,0.811,0.555,-0.242,-0.183,-0.183,0.427,1
0.15286,0.809,0.55,-0.245,-0.549,-0.061,0.427,1
0.160562,0.81,0.552,-0.242,-0.732,0.183,0.244,1
0.16856,0.809,0.554,-0.244,-0.61,0.0,0.244,1
0.176989,0.807,0.546,-0.247,-0.061,0.061,0.183,1
0.184181,0.807,0.544,-0.248,0.427,0.305,0.366,1
0.191457,0.806,0.543,-0.247,0.549,0.183,0.488,1
0.20015,0.812,0.542,-0.251,0.427,0.427,0.244,1
0.207581,0.812,0.547,-0.252,0.244,0.549,0.427,1
0.216024,0.812,0.552,-0.254,0.366,0.366,0.61,1
0.222895,0.81,0.554,-0.254,0.366,0.488,0.671,1
0.231512,0.811,0.558,-0.252,0.122,0.488,0.549,1
0.239483,0.814,0.559,-0.258,-0.244,0.793,0.305,1
0.24676,0.816,0.561,-0.26,-0.488,0.427,0.366,1
0.254251,0.81,0.556,-0.26,-0.427,0.488,0.244,1
0.261832,0.812,0.559,-0.26,0.0,0.183,0.061,1
0.270671,0.814,0.562,-0.256,0.366,0.122,-0.183,1
0.277832,0.818,0.562,-0.257,0.854,0.183,-0.122,1
0.287031,0.816,0.56,-0.253,0.915,0.0,-0.305,1
0.293949,0.813,0.553,-0.254,0.976,0.061,-0.488,1
0.303067,0.818,0.553,-0.249,1.159,0.061,-0.488,1
0.310301,0.815,0.548,-0.249,1.037,0.061,-0.549,1
0.318507,0.819,0.549,-0.248,0.732,0.366,-0.549,1
0.325635,0.821,0.546,-0.246,0.854,0.427,-0.366,1
0.334325,0.825,0.549,-0.246,1.159,0.488,-0.427,1
0.341459,0.826,0.551,-0.25,1.403,0.427,-0.305,1
0.349171,0.827,0.547,-0.247,1.159,0.549,-0.488,1
0.357421,0.823,0.551,-0.246,1.098,0.488,-0.183,1
0.366076,0.819,0.558,-0.255,0.793,0.549,-0.305,1
0.373164,0.806,0.556,-0.251,0.305,0.793,-0.366,1
0.382328,0.808,0.552,-0.255,0.427,0.671,-0.61,1
0.388929,0.797,0.555,-0.258,1.098,0.488,-0.549,1
0.396663,0.799,0.55,-0.254,1.281,0.732,-0.61,1
0.405149,0.798,0.545,-0.256,1.953,0.549,-0.61,1
0.41388,0.8,0.546,-0.254,2.624,0.366,-1.037,1
0.422513,0.792,0.545,-0.254,2.99,0.549,-1.098,1
0.430079,0.795,0.536,-0.256,2.746,0.427,-0.854,1
0.437375,0.798,0.532,-0.257,2.319,0.549,-0.549,1
0.446837,0.801,0.531,-0.261,2.136,0.488,-0.488,1
0.453684,0.802,0.529,-0.262,2.075,0.671,-0.122,1
0.4624,0.803,0.53,-0.26,2.136,0.549,0.0,1
0.469054,0.804,0.529,-0.26,2.014,0.427,0.549,1
0.47763,0.799,0.532,-0.26,1.159,0.244,0.549,1
0.484905,0.801,0.536,-0.264,0.732,0.61,0.732,1
0.493413,0.799,0.536,-0.264,0.122,0.366,1.037,1
0.500516,0.793,0.547,-0.262,-0.183,0.366,1.037,1
0.50947,0.793,0.552,-0.266,-0.976,0.366,1.098,1
0.516829,0.794,0.556,-0.269,-1.281,0.244,1.159,1
0.524377,0.795,0.562,-0.267,-0.854,0.061,1.159,1
0.53188,0.798,0.566,-0.266,-0.915,0.061,1.159,1
0.540642,0.803,0.569,-0.273,-0.915,0.0,0.976,1
0.547782,0.805,0.571,-0.273,-1.281,-0.122,0.793,1
0.556979,0.81,0.574,-0.277,-1.159,-0.366,0.61,1
0.564237,0.814,0.576,-0.274,-0.61,-0.427,0.305,1
0.572712,0.812,0.58,-0.272,0.061,-0.793,0.427,1
0.581276,0.816,0.575,-0.274,0.0,-0.976,-0.061,1
0.588423,0.815,0.573,-0.274,0.061,-1.281,-0.122,1
0.595538,0.814,0.571,-0.267,-0.549,-1.22,-0.61,1
0.604752,0.822,0.568,-0.266,-0.976,-1.037,-0.732,1
0.612735,0.824,0.562,-0.268,-1.037,-1.647,-0.793,1
0.620679,0.831,0.552,-0.268,-0.427,-1.77,-0.61,1
0.629566,0.827,0.553,-0.26,-0.183,-1.708,-0.793,1
0.636344,0.83,0.551,-0.256,0.183,-1.831,-0.915,1
0.644474,0.828,0.551,-0.252,0.305,-1.647,-1.159,1
0.651028,0.829,0.549,-0.248,0.244,-1.77,-0.915,1
0.658593,0.827,0.546,-0.243,-0.488,-1.647,-0.854,1
0.668065,0.826,0.547,-0.237,-0.122,-1.403,-0.854,1
0.677102,0.825,0.543,-0.237,0.305,-1.403,-0.793,1
0.684576,0.825,0.538,-0.23,1.281,-1.464,-1.037,1
0.693075,0.818,0.529,-0.228,1.464,-1.159,-0.671,1
0.700287,0.818,0.527,-0.219,1.831,-0.793,-0.793,1
0.707854,0.815,0.52,-0.218,2.441,-0.61,-0.549,1
0.716875,0.814,0.517,-0.213,2.746,-0.671,-0.549,1
0.724795,0.811,0.52,-0.212,2.929,-0.305,-0.366,1
0.732059,0.811,0.521,-0.209,3.356,0.0,0.122,1
0.739718,0.808,0.523,-0.211,3.417,0.305,0.244,1
0.747988,0.809,0.522,-0.209,3.112,0.305,0.366,1
0.757238,0.806,0.522,-0.208,2.99,0.915,0.976,1
0.764236,0.799,0.522,-0.214,2.319,1.342,1.037,1
0.77286,0.802,0.523,-0.211,2.075,1.586,1.281,1
0.781317,0.8,0.527,-0.219,1.953,2.258,1.647,1
0.788529,0.802,0.529,-0.222,1.831,2.441,1.647,1
0.796913,0.809,0.537,-0.229,2.197,2.502,1.892,1
0.803824,0.809,0.542,-0.23,2.746,2.563,1.953,1
0.811754,0.813,0.548,-0.234,3.295,2.685,2.197,1
0.82,0.814,0.548,-0.242,3.051,2.929,2.197,1
0.826934,0.811,0.555,-0.252,1.708,3.051,2.136,1
0.83552,0.81,0.558,-0.253,0.488,3.173,2.38,1
0.843278,0.812,0.565,-0.265,-0.061,3.356,2.319,1
0.850334,0.82,0.58,-0.275,-0.427,3.54,2.441,1
0.859638,0.836,0.591,-0.283,-1.342,3.723,2.563,1
0.86623,0.857,0.611,-0.29,-1.953,3.906,2.563,1
0.875625,0.88,0.621,-0.293,-1.464,3.54,2.563,1
0.882879,0.891,0.63,-0.293,-1.342,3.479,2.258,1
0.891621,0.887,0.633,-0.298,-1.647,3.356,2.197,1
0.898102,0.87,0.628,-0.291,-2.807,3.54,1.647,1
0.906693,0.849,0.628,-0.289,-4.76,3.723,1.098,1
0.913084,0.823,0.625,-0.284,-5.493,3.906,0.671,1
0.920666,0.81,0.621,-0.277,-5.065,3.906,0.122,1
0.929858,0.813,0.606,-0.276,-4.699,4.577,-0.427,1
0.93691,0.824,0.604,-0.27,-4.577,4.638,-1.037,1
0.9447,0.825,0.594,-0.273,-6.652,5.493,-1.22,1
0.953879,0.806,0.573,-0.278,-17.822,7.141,-1.953,1
0.962479,0.774,0.555,-0.263,-32.714,9.765,-3.112,1
0.96937,0.8,0.55,-0.272,-49.011,10.009,-3.112,1
0.978407,0.766,0.526,-0.226,-66.101,14.465,-3.662,1
0.985737,0.874,0.558,-0.22,-91.125,14.892,-5.31,1
0.99404,0.89,0.597,-0.21,-91.43,16.418,-5.92,1
1.00133,0.864,0.627,-0.215,-71.96,11.779,-6.835,1
1.009478,0.831,0.629,-0.206,-44.982,9.826,-7.202,1
1.016583,0.878,0.631,-0.218,-17.517,5.187,-7.568,1
1.023917,0.916,0.636,-0.218,10.62,2.502,-7.629,1
1.032861,0.939,0.627,-0.237,32.653,-1.22,-7.873,1
1.039915,0.92,0.601,-0.233,43.701,-2.868,-7.873,1
1.048103,0.92,0.576,-0.239,47.363,-4.089,-7.629,1
1.055123,0.937,0.574,-0.232,44.311,-4.089,-7.568,1
1.062086,0.947,0.574,-0.226,39.367,-4.272,-7.324,1
1.069902,0.944,0.585,-0.213,36.56,-3.723,-7.629,1
1.078376,0.941,0.589,-0.2,35.644,-3.723,-7.629,1
1.087294,0.878,0.582,-0.178,36.621,-3.356,-7.934,1
1.095691,0.866,0.572,-0.169,35.095,-2.685,-8.3,1
1.102291,0.881,0.547,-0.145,31.616,-1.525,-8.544,1
1.110683,0.895,0.542,-0.133,26.672,0.061,-8.483,1
1.118665,0.906,0.564,-0.122,22.583,2.136,-8.422,1
1.126753,0.899,0.579,-0.121,19.653,3.906,-8.361,1
1.135417,0.902,0.584,-0.113,15.319,6.347,-8.483,1
1.142982,0.896,0.576,-0.11,10.437,8.544,-8.911,1
1.15082,0.872,0.573,-0.101,6.652,10.62,-9.155,1
1.159392,0.861,0.575,-0.108,4.028,12.695,-9.582,1
1.166116,0.841,0.58,-0.111,1.586,14.709,-10.131,1
1.174574,0.826,0.591,-0.123,-0.793,16.723,-10.742,1
1.182196,0.808,0.597,-0.125,-2.136,18.676,-11.291,1
1.190205,0.792,0.606,-0.137,-2.38,20.202,-11.84,1
1.197933,0.787,0.609,-0.144,-2.563,21.484,-12.268,1
1.205704,0.728,0.628,-0.145,-1.464,22.583,-12.878,1
1.21414,0.778,0.634,-0.158,2.014,23.132,-13.427,1
1.222208,0.786,0.614,-0.161,5.249,23.62,-14.587,1
1.230524,0.776,0.591,-0.183,4.943,24.78,-15.197,1
1.23765,0.763,0.575,-0.208,2.868,25.451,-15.747,1
1.246464,0.768,0.562,-0.229,0.671,26.489,-16.418,1
1.25329,0.768,0.554,-0.252,-2.746,26.916,-16.845,1
1.262225,0.76,0.546,-0.28,-5.31,27.526,-17.028,1
1.26922,0.757,0.547,-0.3,-8.483,27.343,-17.272,1
1.278478,0.761,0.544,-0.337,-11.474,26.916,-17.944,1
1.285441,0.743,0.542,-0.358,-13.793,26.55,-18.005,1
1.293982,0.742,0.532,-0.384,-15.502,26.0,-18.005,1
1.301511,0.739,0.523,-0.405,-15.319,25.146,-18.493,1
1.309984,0.737,0.514,-0.421,-11.474,24.23,-18.493,1
1.318655,0.723,0.496,-0.443,-4.699,22.888,-18.737,1
1.327302,0.721,0.483,-0.471,1.586,21.301,-18.615,1
1.334446,0.72,0.456,-0.502,5.249,19.653,-18.188,1
1.342373,0.718,0.438,-0.539,6.469,18.249,-18.188,1
1.350924,0.715,0.427,-0.562,4.577,15.624,-17.883,1
1.35792,0.735,0.423,-0.569,5.187,13.793,-17.639,1
1.365522,0.745,0.421,-0.569,10.314,10.192,-17.456,1
1.374005,0.752,0.413,-0.564,17.883,7.568,-16.967,1
1.382562,0.746,0.393,-0.575,24.536,4.943,-16.662,1
1.38982,0.737,0.371,-0.57,29.663,2.136,-16.052,1
1.397537,0.745,0.354,-0.569,30.944,0.183,-15.197,1
1.406254,0.756,0.346,-0.557,32.165,-1.22,-14.77,1
1.41304,0.761,0.332,-0.548,34.484,-2.746,-13.732,1
1.421267,0.77,0.328,-0.533,36.621,-3.967,-12.878,1
1.430073,0.792,0.313,-0.519,36.926,-4.882,-11.962,1
1.437466,0.794,0.313,-0.492,34.179,-5.737,-10.681,1
1.446588,0.806,0.32,-0.475,28.808,-6.347,-9.826,1
1.45437,0.816,0.327,-0.449,25.817,-7.08,-8.85,1
1.461942,0.815,0.344,-0.42,24.353,-7.812,-8.056,1
1.470588,0.818,0.359,-0.401,23.803,-8.3,-7.141,1
1.478896,0.824,0.372,-0.379,23.498,-8.422,-6.591,1
1.486142,0.82,0.393,-0.357,22.521,-8.361,-6.164,1
1.494882,0.82,0.404,-0.332,22.644,-8.178,-5.676,1
1.503525,0.83,0.425,-0.305,23.986,-7.812,-5.737,1
1.510488,0.839,0.433,-0.281,25.512,-7.385,-5.31,1
1.518154,0.854,0.44,-0.255,27.648,-7.08,-5.371,1
1.527276,0.86,0.458,-0.248,28.381,-6.225,-5.31,1
1.534831,0.86,0.463,-0.239,24.963,-5.615,-5.31,1
1.544002,0.859,0.485,-0.223,19.897,-4.211,-5.371,1
1.551525,0.857,0.512,-0.21,18.066,-3.356,-5.432,1
1.560343,0.846,0.531,-0.19,18.066,-1.953,-5.798,1
1.567672,0.826,0.541,-0.184,17.333,-0.793,-6.042,1
1.576168,0.828,0.549,-0.172,15.136,0.732,-6.835,1
1.58352,0.839,0.557,-0.159,14.648,1.953,-7.08,1
1.590898,0.846,0.564,-0.145,15.38,3.051,-7.934,1
1.598636,0.844,0.567,-0.138,16.052,4.272,-8.483,1
1.607565,0.851,0.564,-0.141,17.211,5.249,-9.094,1
1.615352,0.857,0.566,-0.143,18.737,6.347,-9.704,1
1.622047,0.852,0.57,-0.148,19.531,7.141,-10.375,1
1.630493,0.85,0.573,-0.159,20.141,7.934,-10.986,1
1.637337,0.843,0.572,-0.168,20.324,9.033,-11.718,1
1.645035,0.837,0.565,-0.186,19.592,9.643,-12.023,1
1.653678,0.843,0.566,-0.204,16.845,10.375,-12.634,1
1.661714,0.838,0.568,-0.225,14.343,11.169,-13.061,1
1.669096,0.841,0.573,-0.237,13.732,11.535,-13.793,1
1.675933,0.841,0.568,-0.253,15.136,11.474,-14.282,1
1.683754,0.844,0.558,-0.276,16.418,11.413,-14.709,1
1.692382,0.839,0.541,-0.298,15.991,11.291,-15.014,1
1.701047,0.837,0.528,-0.318,14.648,10.864,-15.38,1
1.70779,0.834,0.516,-0.33,15.38,9.948,-15.319,1
1.715444,0.839,0.5,-0.349,17.822,8.972,-15.319,1
1.723176,0.84,0.482,-0.361,19.653,7.568,-15.014,1
1.73202,0.857,0.462,-0.365,18.981,6.774,-14.587,1
1.739248,0.856,0.456,-0.373,17.883,6.042,-13.977,1
1.748196,0.859,0.449,-0.379,16.601,4.882,-13.488,1
1.755423,0.852,0.435,-0.388,15.624,3.417,-12.634,1
1.763052,0.844,0.436,-0.39,13.977,2.258,-12.084,1
1.770912,0.828,0.43,-0.399,12.207,1.342,-11.657,1
1.780023,0.819,0.427,-0.408,10.131,0.183,-10.864,1
1.785866,0.818,0.422,-0.415,7.873,-0.976,-10.437,1
1.794513,0.819,0.42,-0.425,5.981,-2.319,-9.765,1
1.801763,0.823,0.428,-0.427,6.286,-3.967,-9.155,1
1.810521,0.837,0.423,-0.424,8.911,-5.615,-8.605,1
1.81852,0.834,0.418,-0.42,12.756,-7.202,-8.3,1
1.826627,0.842,0.41,-0.413,15.686,-8.666,-7.629,1
1.833589,0.849,0.394,-0.409,16.601,-10.253,-7.141,1
1.841276,0.854,0.388,-0.405,15.747,-11.901,-6.652,1
1.85033,0.859,0.379,-0.39,14.282,-13.061,-6.408,1
1.858357,0.866,0.381,-0.371,13.488,-14.587,-5.554,1
1.866895,0.873,0.38,-0.349,13.183,-15.624,-5.187,1
1.87485,0.884,0.372,-0.324,13.244,-16.967,-4.699,1
1.882007,0.89,0.365,-0.303,13.488,-17.944,-4.089,1
1.890513,0.902,0.356,-0.281,13.122,-18.737,-3.173,1
1.898263,0.93,0.345,-0.251,13.549,-19.409,-2.075,1
1.906084,0.933,0.341,-0.223,13.977,-19.897,-0.61,1
1.914285,0.74,0.286,-0.218,7.446,-19.47,2.197,1
1.921091,1.025,0.337,-0.185,-3.112,-19.775,3.356,1
1.929534,0.983,0.406,-0.094,7.141,-18.615,2.807,1
1.93638,0.906,0.431,-0.069,21.362,-20.019,2.624,1
1.944668,0.919,0.455,0.01,30.639,-18.859,2.502,1
1.952474,0.927,0.479,0.068,31.616,-16.845,0.854,1
1.961325,0.888,0.507,0.139,32.043,-12.939,0.0,1
1.968696,0.901,0.528,0.193,31.188,-9.399,-1.281,1
1.976231,0.901,0.565,0.29,33.935,-3.295,-2.99,1
1.984225,0.854,0.577,0.32,35.034,2.014,-5.004,1
1.99173,0.828,0.586,0.364,32.348,8.422,-6.591,1
1.999563,0.817,0.596,0.396,26.794,15.93,-8.239,1
2.007156,0.794,0.61,0.431,19.836,23.986,-10.314,1
2.015466,0.791,0.612,0.446,14.709,32.104,-12.268,1
2.023288,0.784,0.606,0.46,11.047,39.733,-14.282,1
2.03032,0.765,0.569,0.466,4.028,48.339,-16.174,1
2.039358,0.749,0.52,0.468,-8.361,58.166,-17.7,1
2.046762,0.729,0.478,0.477,-17.333,66.772,-18.31,1
2.055846,0.708,0.427,0.464,-23.742,76.232,-18.31,1
2.062981,0.676,0.392,0.437,-27.099,84.045,-18.005,1
2.071772,0.645,0.352,0.403,-26.367,91.308,-17.517,1
2.079568,0.624,0.29,0.348,-20.874,99.243,-16.052,1
2.088326,0.605,0.232,0.278,-16.296,106.14,-14.282,1
2.094652,0.572,0.181,0.19,-15.38,113.098,-12.145,1
2.103222,0.503,0.147,0.092,-16.479,120.239,-9.155,1
2.110618,0.46,0.116,0.014,-14.16,125.915,-6.042,1
2.119963,0.424,0.062,-0.091,-13.427,130.981,-2.685,1
2.126722,0.321,0.016,-0.195,-14.709,136.901,1.281,1
2.136029,0.268,-0.013,-0.261,-11.413,141.113,5.798,1
2.143557,0.225,-0.049,-0.34,-4.272,144.531,9.887,1
2.150938,0.166,-0.11,-0.436,2.502,147.888,15.869,1
2.159476,0.081,-0.158,-0.513,-0.488,150.939,21.667,1
2.168727,-0.017,-0.182,-0.603,-11.901,154.296,27.343,1
2.175481,-0.06,-0.2,-0.665,-24.902,157.043,33.63,1
2.184593,-0.118,-0.225,-0.716,-32.348,158.63,39.489,1
2.192883,-0.214,-0.265,-0.772,-39.245,159.912,47.241,1
2.201721,-0.318,-0.308,-0.824,-44.067,160.583,54.321,1
2.208462,-0.37,-0.35,-0.892,-52.307,161.499,63.171,1
2.217881,-0.375,-0.409,-0.987,-66.101,161.682,71.96,1
2.224721,-0.407,-0.42,-1.061,-89.66,161.926,82.885,1
2.233928,-0.464,-0.39,-1.167,-100.891,160.888,92.102,1
2.240895,-0.525,-0.361,-1.34,-97.229,156.799,101.135,1
2.248541,-0.593,-0.381,-1.503,-87.768,150.817,112.548,1
2.257379,-0.638,-0.431,-1.683,-88.134,144.714,123.046,1
2.265118,-0.665,-0.477,-1.912,-101.989,137.512,135.925,1
2.272694,-0.699,-0.499,-2.13,-116.027,129.028,147.094,1
2.281194,-0.74,-0.518,-2.307,-120.361,118.408,158.447,1
2.289964,-0.78,-0.541,-2.498,-109.619,102.661,172.485,1
2.297693,-0.84,-0.567,-2.672,-96.252,87.524,185.363,1
2.305157,-0.925,-0.586,-2.849,-92.285,71.411,197.753,1
2.31408,-0.999,-0.595,-3.054,-98.205,50.659,211.914,1
2.321843,-1.09,-0.597,-3.209,-111.694,33.142,224.731,1
2.330866,-1.096,-0.531,-3.354,-114.624,10.07,238.525,1
2.338482,-1.155,-0.49,-3.428,-87.036,-12.329,250.671,1
2.34767,-1.241,-0.49,-3.573,-56.518,-41.32,265.136,1
2.354791,-1.333,-0.453,-3.685,-48.706,-68.969,279.663,1
2.363905,-1.503,-0.36,-3.768,-58.715,-92.224,291.687,1
2.370886,-1.674,-0.19,-3.756,-58.593,-120.849,304.626,1
2.379808,-1.851,-0.05,-3.741,-45.898,-146.545,314.086,1
2.389277,-2.042,0.126,-3.707,-25.756,-178.833,323.12,1
2.396421,-2.246,0.332,-3.639,-6.652,-206.176,328.796,1
2.403821,-2.44,0.522,-3.557,11.474,-239.013,332.824,1
2.411081,-2.645,0.723,-3.445,21.179,-266.052,334.594,1
2.419254,-2.795,0.942,-3.315,27.221,-292.358,334.411,1
2.427597,-2.968,1.191,-3.152,31.066,-317.443,332.519,1
2.435745,-3.179,1.437,-2.957,35.583,-342.529,328.186,1
2.444068,-3.351,1.695,-2.711,43.334,-369.201,321.594,1
2.451571,-3.455,1.972,-2.412,52.246,-395.141,310.974,1
2.458647,-3.514,2.199,-2.135,60.241,-411.376,301.818,1
2.466582,-3.586,2.451,-1.86,70.678,-429.809,288.452,1
2.475055,-3.676,2.687,-1.622,89.172,-447.753,272.46,1
2.481682,-3.759,2.962,-1.285,116.394,-464.965,252.807,1
2.490202,-3.813,3.111,-0.986,147.46,-482.91,224.792,1
2.499631,-3.807,3.191,-0.687,162.963,-495.178,198.242,1
2.506777,-3.767,3.251,-0.294,171.081,-505.92,165.405,1
2.515414,-3.587,3.196,0.095,165.1,-510.498,136.779,1
2.52268,-3.645,3.177,0.439,128.417,-509.765,106.506,1
2.530958,-3.48,3.239,0.834,99.243,-505.31,82.702,1
2.540081,-3.293,3.29,1.265,99.06,-498.779,59.326,1
2.547508,-3.17,3.256,1.628,113.525,-489.013,30.822,1
2.555587,-3.065,3.185,1.895,120.056,-476.257,6.042,1
2.563312,-2.867,2.996,2.194,120.605,-460.632,-18.127,1
2.572161,-2.646,2.776,2.323,115.722,-439.636,-43.64,1
2.579542,-2.365,2.587,2.517,110.534,-421.508,-62.927,1
2.587474,-2.055,2.329,2.695,105.651,-399.108,-79.956,1
2.595835,-1.823,2.112,2.865,96.862,-373.84,-97.9,1
2.603027,-1.665,1.878,2.974,85.632,-348.388,-109.558,1
2.611289,-1.391,1.612,3.068,72.57,-324.584,-119.628,1
2.620294,-1.203,1.381,3.121,60.363,-295.349,-128.479,1
2.627726,-1.003,1.15,3.122,46.691,-270.446,-133.239,1
2.63522,-0.78,0.904,3.051,31.127,-245.91,-136.169,1
2.642694,-0.605,0.727,2.943,8.972,-219.543,-136.962,1
2.651892,-0.44,0.589,2.837,-5.126,-197.875,-135.742,1
2.659949,-0.288,0.472,2.663,-15.136,-176.391,-133.361,1
2.667437,-0.149,0.34,2.555,-18.676,-159.24,-130.065,1
2.67641,0.002,0.183,2.377,-24.719,-143.554,-125.549,1
2.683965,0.12,0.073,2.27,-30.761,-126.77,-119.14,1
2.691685,0.242,-0.008,2.14,-32.897,-114.501,-112.548,1
2.700253,0.269,-0.041,1.961,-36.499,-100.585,-103.942,1
2.709514,0.378,-0.051,1.747,-42.175,-95.397,-97.29,1
2.71682,0.477,-0.073,1.623,-40.039,-84.899,-88.562,1
2.725842,0.506,-0.079,1.512,-38.269,-80.566,-81.604,1
2.732852,0.523,-0.068,1.433,-33.081,-74.523,-73.181,1
2.741678,0.542,-0.049,1.397,-28.808,-70.251,-66.345,1
2.749547,0.531,-0.027,1.337,-25.268,-64.819,-58.898,1
2.757302,0.523,0.009,1.307,-23.681,-59.57,-53.1,1
2.766044,0.508,0.041,1.265,-24.597,-53.344,-47.119,1
2.773666,0.526,0.064,1.227,-27.038,-48.034,-42.602,1
2.782947,0.533,0.099,1.181,-29.907,-43.151,-38.574,1
2.790043,0.535,0.136,1.129,-33.081,-37.78,-34.24,1
2.796646,0.532,0.187,1.075,-34.484,-33.508,-30.822,1
2.805958,0.533,0.235,1.02,-32.714,-30.334,-27.954,1
2.812771,0.54,0.274,0.962,-27.221,-27.893,-25.512,1
2.820536,0.556,0.323,0.904,-22.216,-26.0,-23.315,1
2.829491,0.547,0.362,0.878,-19.042,-23.925,-20.935,1
2.837887,0.547,0.389,0.86,-20.08,-21.24,-19.47,1
2.844988,0.539,0.42,0.84,-23.376,-18.066,-18.127,1
2.854571,0.543,0.446,0.813,-28.564,-14.831,-16.662,1
2.861535,0.551,0.461,0.791,-31.738,-12.145,-15.686,1
2.868927,0.556,0.474,0.764,-32.775,-9.277,-14.526,1
2.878289,0.562,0.492,0.736,-31.982,-6.958,-13.244,1
2.885487,0.569,0.506,0.695,-31.372,-5.249,-12.329,1
2.894601,0.586,0.514,0.636,-30.822,-3.173,-11.169,1
2.903002,0.602,0.521,0.585,-31.249,-1.831,-10.314,1
2.910259,0.625,0.542,0.542,-30.639,-0.915,-9.155,1
2.918739,0.631,0.566,0.496,-26.916,-0.488,-8.3,1
2.925773,0.636,0.593,0.455,-23.498,-0.61,-7.507,1
2.934738,0.644,0.61,0.426,-22.46,-1.159,-6.774,1
2.941253,0.646,0.623,0.413,-24.353,-1.098,-6.042,1
2.950036,0.645,0.646,0.406,-27.404,-0.976,-5.92,1
2.959271,0.645,0.669,0.405,-29.907,-0.793,-5.798,1
2.966444,0.642,0.675,0.399,-32.714,-0.549,-5.92,1
2.974961,0.648,0.679,0.389,-38.513,-0.183,-6.286,1
2.983965,0.683,0.685,0.386,-42.541,0.244,-6.469,1
2.991132,0.695,0.684,0.376,-41.87,0.366,-7.08,1
2.998969,0.703,0.673,0.374,-38.696,0.244,-6.958,1
3.007266,0.705,0.66,0.369,-34.79,0.488,-7.08,1
3.014345,0.707,0.652,0.351,-32.043,0.61,-6.774,1
3.022263,0.719,0.655,0.334,-28.625,0.427,-6.408,1
3.029748,0.723,0.666,0.315,-24.047,0.488,-5.737,1
3.037425,0.717,0.682,0.295,-20.141,-0.122,-5.676,1
3.046877,0.725,0.689,0.284,-16.235,-0.793,-5.737,1
3.055402,0.729,0.697,0.281,-12.939,-1.403,-5.493,1
3.062238,0.733,0.701,0.275,-11.169,-1.647,-5.615,1
3.071243,0.734,0.712,0.268,-9.521,-2.197,-5.493,1
3.078183,0.739,0.722,0.272,-6.958,-3.54,-5.798,1
3.085682,0.727,0.734,0.284,-4.028,-3.784,-6.286,1
3.094619,0.708,0.726,0.309,-3.173,-4.333,-6.591,1
3.101992,0.702,0.724,0.324,-6.164,-3.967,-7.263,1
3.111052,0.7,0.715,0.337,-10.559,-3.601,-7.385,1
3.118193,0.698,0.711,0.349,-12.634,-2.746,-8.056,1
3.125772,0.704,0.7,0.35,-12.939,-2.258,-8.544,1
3.133451,0.714,0.687,0.351,-12.634,-1.892,-8.85,1
3.142677,0.718,0.674,0.347,-10.925,-1.586,-8.85,1
3.149923,0.723,0.658,0.336,-8.789,-1.22,-9.094,1
3.157695,0.726,0.643,0.326,-8.483,-1.281,-9.033,1
3.166869,0.729,0.633,0.313,-9.155,-1.098,-9.216,1
3.174012,0.732,0.632,0.305,-9.094,-1.037,-8.789,1
3.182293,0.732,0.632,0.299,-8.422,-1.159,-8.85,1
3.190112,0.736,0.637,0.298,-7.507,-1.342,-8.85,1
3.199463,0.726,0.639,0.294,-5.493,-1.708,-8.789,1
3.206979,0.738,0.638,0.292,-2.258,-2.136,-8.85,1
3.215098,0.742,0.633,0.283,0.549,-2.502,-8.85,1
3.221707,0.748,0.621,0.276,0.915,-2.502,-8.911,1
3.229969,0.753,0.616,0.27,-0.366,-2.807,-8.85,1
3.237685,0.749,0.602,0.272,-2.624,-3.173,-8.728,1
3.24498,0.747,0.594,0.279,-5.187,-2.807,-8.728,1
3.252446,0.75,0.588,0.284,-6.835,-2.929,-8.3,1
3.260761,0.75,0.587,0.298,-8.361,-3.051,-7.69,1
3.269344,0.741,0.591,0.309,-8.85,-3.234,-7.324,1
3.278878,0.731,0.595,0.321,-8.239,-3.112,-6.53,1
3.285855,0.729,0.599,0.326,-7.69,-3.051,-6.164,1
3.293352,0.732,0.599,0.328,-7.202,-3.112,-5.493,1
3.300744,0.73,0.607,0.329,-6.164,-2.868,-5.371,1
3.309597,0.728,0.608,0.339,-5.004,-3.112,-4.943,1
3.316392,0.717,0.611,0.352,-3.784,-3.173,-4.516,1
3.324743,0.711,0.618,0.369,-4.028,-2.929,-4.089,1
3.333256,0.708,0.626,0.385,-5.004,-2.075,-3.967,1
3.342,0.699,0.63,0.395,-6.835,-1.281,-3.723,1
3.350336,0.707,0.633,0.395,-9.399,-0.122,-3.906,1
3.358337,0.71,0.632,0.391,-11.84,1.098,-4.15,1
3.365105,0.71,0.63,0.389,-12.756,2.075,-4.211,1
3.372851,0.708,0.631,0.38,-12.634,2.746,-4.15,1
3.381803,0.717,0.635,0.374,-11.657,3.234,-4.089,1
3.389103,0.717,0.637,0.376,-7.751,3.54,-4.15,1
3.39646,0.708,0.636,0.379,-5.432,3.601,-3.845,1
3.404781,0.707,0.629,0.38,-5.981,4.089,-3.906,1
3.411878,0.71,0.619,0.376,-9.094,5.187,-3.845,1
3.420264,0.716,0.618,0.367,-14.038,6.042,-3.662,1
3.428163,0.711,0.616,0.35,-19.409,7.019,-3.601,1
3.435443,0.713,0.619,0.337,-25.512,7.873,-3.173,1
3.444862,0.723,0.618,0.324,-33.02,9.094,-2.868,1
3.450596,0.725,0.621,0.307,-38.574,9.887,-2.807,1
3.459749,0.729,0.622,0.298,-40.771,10.07,-2.624,1
3.466284,0.73,0.633,0.291,-37.292,9.948,-2.197,1
3.473465,0.751,0.644,0.289,-28.198,9.033,-1.892,1
3.483278,0.743,0.648,0.278,-16.479,7.873,-1.831,1
3.489133,0.75,0.642,0.272,-3.54,6.896,-1.831,1
3.497924,0.746,0.628,0.264,5.31,5.798,-1.586,1
3.505077,0.729,0.622,0.266,7.995,5.554,-1.464,1
3.512943,0.728,0.616,0.254,7.812,6.042,-1.22,1
3.520391,0.725,0.616,0.239,7.507,6.103,-1.159,1
3.528947,0.724,0.611,0.226,7.812,6.286,-0.732,1
3.537055,0.725,0.612,0.208,7.812,6.042,-0.61,1
3.545081,0.723,0.611,0.194,7.324,5.798,-0.183,1
3.5529,0.716,0.616,0.183,4.699,5.432,0.061,1
3.560109,0.712,0.63,0.183,2.746,4.76,0.122,1
3.567614,0.714,0.645,0.186,2.441,4.333,0.122,1
3.575478,0.721,0.651,0.189,2.624,3.723,0.305,1
3.583433,0.718,0.65,0.183,2.685,3.723,-0.122,1
3.59117,0.717,0.648,0.176,2.929,3.295,-0.183,1
3.60003,0.728,0.648,0.168,3.112,2.746,-0.549,1
3.607215,0.736,0.645,0.161,4.699,1.953,-0.427,1
3.614642,0.728,0.64,0.164,7.141,1.159,-0.732,1
3.622231,0.741,0.633,0.167,7.934,0.244,-0.244,1
3.630523,0.722,0.62,0.175,5.615,-0.671,-0.061,1
3.638097,0.723,0.619,0.187,2.319,-0.793,0.244,1
3.645592,0.73,0.624,0.203,1.281,-1.342,0.488,1
3.654669,0.729,0.617,0.212,4.028,-1.586,0.793,1
3.661755,0.725,0.609,0.214,7.324,-2.319,1.342,1
3.66933,0.747,0.593,0.212,8.666,-2.746,1.892,1
3.678753,0.742,0.576,0.227,8.972,-2.807,2.319,1
3.685957,0.737,0.576,0.229,8.728,-2.563,3.051,1
3.693155,0.754,0.577,0.249,11.047,-2.929,3.784,1
3.702342,0.725,0.569,0.265,13.183,-3.112,4.394,1
3.709191,0.713,0.564,0.27,12.695,-2.746,5.432,1
3.718413,0.707,0.562,0.291,8.056,-2.258,6.225,1
3.725177,0.694,0.569,0.296,-0.244,-0.488,6.469,1
3.732727,0.697,0.583,0.297,-6.408,0.671,6.958,1
3.740305,0.709,0.596,0.298,-10.864,1.403,7.385,1
3.749341,0.707,0.612,0.287,-13.0,1.831,7.69,1
3.756292,0.713,0.616,0.286,-13.305,2.258,7.751,1
3.763814,0.715,0.628,0.282,-13.488,2.319,8.117,1
3.773033,0.689,0.64,0.277,-12.023,2.563,8.483,1
3.780054,0.686,0.654,0.266,-10.803,1.77,8.728,1
3.788116,0.685,0.66,0.261,-9.46,1.831,8.544,1
3.795518,0.684,0.674,0.25,-8.422,1.525,8.789,1
3.803038,0.683,0.686,0.246,-8.178,1.525,8.666,1
3.812317,0.691,0.7,0.236,-9.521,1.77,8.728,1
3.81914,0.711,0.714,0.225,-9.399,1.586,8.178,1
3.825737,0.715,0.727,0.218,-7.995,1.159,7.934,1
3.833444,0.724,0.743,0.221,-6.042,0.61,7.507,1
3.840543,0.723,0.749,0.228,-4.638,0.305,6.958,1
3.848909,0.727,0.763,0.236,-4.76,0.061,6.591,1
3.856283,0.732,0.77,0.246,-6.713,-0.122,5.859,1
3.864227,0.728,0.776,0.256,-7.507,0.061,5.065,1
3.873316,0.722,0.787,0.266,-8.239,0.061,4.333,1
3.879645,0.725,0.799,0.268,-8.3,0.366,3.54,1
3.888564,0.733,0.795,0.266,-8.117,0.61,2.929,1
3.895016,0.742,0.798,0.268,-7.08,0.915,2.075,1
3.904318,0.737,0.792,0.262,-5.493,0.854,1.281,1
3.910871,0.749,0.787,0.258,-4.089,0.915,0.366,1
3.918342,0.751,0.782,0.253,-3.784,1.098,0.0,1
3.927278,0.747,0.782,0.256,-3.479,0.854,-0.61,1
3.934416,0.75,0.776,0.26,-4.089,1.159,-1.22,1
3.942664,0.748,0.782,0.265,-3.845,1.342,-1.831,1
3.950302,0.743,0.785,0.266,-2.746,1.22,-2.563,1
3.958248,0.738,0.787,0.263,-1.708,1.464,-2.868,1
3.966322,0.733,0.788,0.254,-0.915,1.464,-4.028,1
3.974718,0.732,0.788,0.247,-0.549,1.708,-4.394,1
3.982642,0.728,0.793,0.238,0.183,1.831,-5.432,1
3.990177,0.721,0.79,0.228,1.464,1.342,-6.347,1
3.998102,0.728,0.781,0.222,2.38,1.342,-7.019,1
4.005787,0.738,0.775,0.227,2.563,1.037,-7.812,1
4.01289,0.746,0.774,0.231,3.234,1.098,-8.483,1
4.021173,0.748,0.776,0.238,4.76,0.732,-8.972,1
4.027325,0.746,0.774,0.243,6.835,0.854,-9.216,1
4.034868,0.748,0.77,0.239,8.056,0.61,-9.826,1
4.042713,0.745,0.766,0.242,8.056,0.549,-10.375,1
4.050686,0.753,0.76,0.243,7.69,0.488,-10.864,1
4.058073,0.754,0.761,0.24,7.995,0.305,-11.23,1
4.065821,0.734,0.753,0.246,8.239,0.366,-11.901,1
4.074233,0.731,0.749,0.249,7.446,0.488,-12.512,1
4.081459,0.736,0.74,0.253,6.164,0.549,-13.427,1
4.089772,0.733,0.731,0.255,5.31,0.549,-13.916,1
4.098252,0.725,0.722,0.26,4.943,0.793,-14.587,1
4.106009,0.725,0.707,0.275,4.821,0.915,-14.892,1
4.113081,0.723,0.692,0.27,3.723,1.037,-15.441,1
4.120688,0.721,0.679,0.268,1.708,1.403,-15.808,1
4.128408,0.729,0.663,0.261,-0.061,1.647,-15.991,1
4.136139,0.73,0.649,0.258,-1.342,1.831,-16.113,1
4.144272,0.737,0.633,0.255,-1.464,1.647,-16.113,1
4.153516,0.733,0.614,0.255,-0.366,1.586,-16.052,1
4.160704,0.734,0.598,0.26,1.281,1.464,-15.686,1
4.167818,0.733,0.583,0.265,3.234,1.464,-15.441,1
4.175604,0.716,0.572,0.268,5.065,1.464,-14.892,1
4.183623,0.716,0.557,0.268,6.103,1.464,-14.221,1
4.191026,0.712,0.541,0.261,6.225,1.586,-13.854,1
4.199554,0.705,0.531,0.26,5.187,2.014,-13.122,1
4.20623,0.707,0.525,0.251,3.845,2.075,-12.329,1
4.214647,0.702,0.52,0.247,2.807,2.258,-11.901,1
4.22149,0.714,0.511,0.241,2.075,2.258,-11.108,1
4.230136,0.706,0.502,0.236,1.647,2.014,-10.314,1
4.236996,0.713,0.487,0.24,1.525,2.075,-9.521,1
4.245439,0.727,0.478,0.231,0.671,1.953,-8.666,1
4.252504,0.728,0.469,0.225,-0.244,1.77,-7.507,1
4.261136,0.729,0.464,0.218,-0.427,1.708,-6.286,1
4.268496,0.726,0.466,0.21,0.061,1.281,-4.821,1
4.276078,0.723,0.468,0.208,-0.122,0.854,-3.479,1
4.284917,0.724,0.469,0.206,-1.647,0.671,-2.319,1
4.291877,0.729,0.484,0.217,-2.99,0.732,-1.403,1
4.299529,0.736,0.503,0.224,-3.295,0.244,-0.427,1
4.307293,0.725,0.518,0.238,-1.831,0.366,0.122,1
4.314937,0.733,0.525,0.24,0.122,0.122,0.976,1
4.323799,0.735,0.536,0.242,0.854,0.061,1.586,1
4.330707,0.733,0.543,0.242,1.098,0.122,2.319,1
4.33912,0.732,0.55,0.24,1.403,0.183,2.502,1
4.347327,0.729,0.564,0.239,0.122,0.488,2.929,1
4.353382,0.741,0.571,0.237,-1.77,0.488,3.479,1
4.361172,0.757,0.583,0.235,-3.723,0.671,3.784,1
4.370219,0.762,0.599,0.245,-5.187,0.61,4.028,1
4.377217,0.757,0.616,0.254,-6.103,0.793,4.272,1
4.384403,0.754,0.644,0.276,-6.042,1.098,4.333,1
4.393522,0.757,0.664,0.29,-3.845,1.037,4.333,1
4.400492,0.765,0.664,0.291,-3.112,1.403,4.028,1
4.407838,0.751,0.675,0.306,-3.967,2.624,3.662,1
4.416731,0.746,0.681,0.281,-4.699,2.868,3.723,1
4.424657,0.745,0.676,0.285,-5.554,2.929,3.234,1
4.43229,0.735,0.648,0.29,-9.399,3.967,3.845,1
4.439548,0.77,0.674,0.292,-14.038,4.15,3.906,1
4.447578,0.772,0.667,0.315,-16.54,4.943,3.967,1
4.454665,0.775,0.677,0.331,-17.639,6.164,3.723,1
4.46211,0.782,0.661,0.343,-16.967,6.469,3.723,1
4.471162,0.802,0.64,0.363,-17.456,7.629,3.784,1
4.478188,0.793,0.624,0.36,-20.996,8.728,3.784,1
4.486743,0.77,0.618,0.359,-26.855,10.498,4.028,1
4.493755,0.77,0.616,0.344,-33.02,11.84,4.089,1
4.500795,0.765,0.638,0.339,-35.888,13.122,4.577,1
4.510071,0.767,0.661,0.336,-33.386,13.549,4.394,1
4.517387,0.777,0.692,0.335,-23.315,13.244,4.089,1
4.524981,0.789,0.704,0.333,-15.014,13.732,3.601,1
4.533793,0.761,0.712,0.313,-9.46,14.16,2.929,1
4.539894,0.756,0.728,0.303,-8.056,14.953,2.258,1
4.549419,0.752,0.729,0.285,-7.568,15.38,1.464,1
4.555579,0.755,0.742,0.281,-8.85,16.845,0.61,1
4.563595,0.749,0.741,0.255,-8.483,17.089,-0.305,1
4.571227,0.764,0.745,0.248,-9.338,17.883,-0.915,1
4.579334,0.762,0.744,0.212,-9.582,18.005,-1.708,1
4.586095,0.764,0.755,0.201,-9.216,18.371,-2.136,1
4.593989,0.759,0.765,0.19,-8.483,17.761,-3.051,1
4.60154,0.768,0.771,0.195,-6.164,18.371,-3.784,1
4.611969,0.777,0.783,0.19,-2.319,18.31,-4.699,1
4.618008,0.774,0.795,0.177,1.037,18.066,-5.92,1
4.625748,0.775,0.801,0.166,0.976,18.371,-7.263,1
4.63345,0.785,0.814,0.152,-0.854,18.554,-8.483,1
4.642296,0.795,0.814,0.154,-5.554,19.226,-9.948,1
4.650868,0.793,0.824,0.15,-9.643,19.714,-11.352,1
4.657846,0.793,0.836,0.156,-12.512,20.202,-12.573,1
4.665288,0.789,0.842,0.148,-12.878,20.507,-13.916,1
4.673573,0.797,0.845,0.162,-6.53,20.019,-15.747,1
4.681082,0.817,0.836,0.148,3.417,19.775,-16.845,1
4.689979,0.828,0.808,0.16,9.094,19.042,-17.517,1
4.698085,0.837,0.781,0.165,9.948,19.897,-17.456,1
4.705061,0.841,0.784,0.173,7.324,20.324,-17.395,1
4.713987,0.853,0.79,0.184,4.76,21.606,-17.456,1
4.72117,0.867,0.796,0.18,1.281,22.277,-17.578,1
4.729174,0.895,0.798,0.169,-2.685,23.132,-18.31,1
4.738556,0.918,0.794,0.174,-4.821,23.559,-19.226,1
4.745849,0.94,0.775,0.163,-5.371,24.475,-19.897,1
4.753761,0.939,0.756,0.151,-7.629,24.597,-20.446,1
4.761166,0.941,0.731,0.137,-10.681,25.39,-21.301,1
4.76909,0.927,0.708,0.125,-13.122,25.817,-21.728,1
4.77765,0.902,0.686,0.123,-17.028,26.672,-22.399,1
4.78427,0.88,0.669,0.11,-20.812,27.16,-22.766,1
4.792434,0.868,0.659,0.089,-24.108,27.77,-23.193,1
4.800363,0.851,0.651,0.082,-27.526,27.954,-23.376,1
4.808639,0.825,0.637,0.069,-29.846,28.015,-23.681,1
4.816553,0.804,0.632,0.064,-30.7,28.015,-23.986,1
4.824898,0.788,0.619,0.05,-30.029,27.404,-24.414,1
4.832116,0.778,0.611,0.029,-28.93,26.489,-24.658,1
4.840144,0.761,0.597,0.02,-26.123,25.756,-24.902,1
4.847448,0.757,0.574,0.011,-21.789,24.475,-25.024,1
4.857045,0.747,0.558,0.002,-17.761,23.62,-24.719,1
4.863434,0.737,0.548,-0.011,-14.221,23.01,-24.291,1
4.870793,0.729,0.537,-0.041,-12.268,21.728,-24.047,1
4.880925,0.734,0.534,-0.067,-12.573,20.446,-23.742,1
4.888226,0.737,0.531,-0.083,-14.526,19.042,-23.315,1
4.8953,0.747,0.531,-0.09,-15.747,17.639,-23.071,1
4.904299,0.749,0.538,-0.099,-17.272,15.747,-22.399,1
4.91136,0.751,0.541,-0.104,-19.409,14.709,-22.46,1
4.920185,0.755,0.543,-0.109,-21.789,13.549,-22.888,1
4.927925,0.75,0.559,-0.119,-22.338,12.207,-23.193,1
4.935346,0.758,0.592,-0.129,-18.005,10.314,-23.376,1
4.944016,0.754,0.646,-0.167,-11.474,8.605,-24.414,1
4.952513,0.736,0.698,-0.214,-5.004,5.737,-26.428,1
4.960262,0.746,0.745,-0.261,-0.671,2.868,-28.442,1
4.968799,0.751,0.788,-0.289,1.708,-0.183,-31.188,1
4.9769,0.762,0.832,-0.324,1.037,-2.319,-33.691,1
4.985349,0.746,0.865,-0.353,-3.723,-5.249,-37.292,1
4.993109,0.75,0.892,-0.378,-9.033,-7.812,-40.344,1
5.002039,0.752,0.91,-0.382,-16.174,-10.742,-44.311,1
5.009551,0.768,0.922,-0.389,-20.874,-13.366,-47.424,1
5.018218,0.781,0.938,-0.403,-25.329,-16.479,-51.269,1
5.02516,0.776,0.947,-0.418,-28.564,-19.592,-54.382,1
5.033609,0.777,0.96,-0.442,-32.836,-23.193,-58.044,1
5.042345,0.775,0.974,-0.466,-38.574,-27.343,-62.255,1
5.050403,0.798,0.999,-0.511,-42.358,-31.555,-65.612,1
5.058252,0.792,1.025,-0.548,-46.691,-37.353,-70.068,1
5.066679,0.77,1.047,-0.586,-47.973,-42.602,-74.157,1
5.075273,0.773,1.051,-0.621,-47.241,-49.804,-78.796,1
5.083726,0.75,1.049,-0.648,-43.029,-57.373,-83.862,1
5.091562,0.7,1.043,-0.652,-37.353,-65.856,-88.806,1
5.101577,0.666,1.01,-0.644,-32.409,-72.875,-92.59,1
5.109839,0.629,0.963,-0.599,-28.564,-79.895,-96.069,1
5.116388,0.621,0.922,-0.539,-23.132,-86.914,-99.792,1
5.124967,0.591,0.87,-0.477,-18.005,-92.895,-102.111,1
5.13328,0.577,0.821,-0.431,-12.695,-99.548,-105.163,1
5.141584,0.543,0.758,-0.346,-6.774,-105.895,-108.215,1
5.15089,0.506,0.679,-0.267,-0.244,-110.473,-110.412,1
5.157529,0.498,0.607,-0.19,6.652,-116.699,-112.487,1
5.1668,0.458,0.543,-0.099,15.075,-120.971,-114.379,1
5.174673,0.389,0.448,0.0,26.123,-125.549,-116.088,1
5.183356,0.363,0.344,0.069,36.682,-129.516,-117.126,1
5.190277,0.354,0.235,0.124,40.405,-132.202,-117.919,1
5.197944,0.316,0.136,0.171,43.579,-135.131,-117.919,1
5.206504,0.323,0.041,0.221,44.128,-138.061,-117.37,1
5.213587,0.338,-0.027,0.282,46.508,-141.052,-116.699,1
5.221113,0.316,-0.116,0.365,52.368,-143.188,-115.905,1
5.23044,0.303,-0.233,0.458,57.25,-144.775,-114.868,1
5.239293,0.295,-0.315,0.531,64.331,-147.277,-113.159,1
5.246463,0.33,-0.437,0.61,74.096,-147.949,-110.839,1
5.255225,0.34,-0.499,0.685,86.12,-150.878,-108.154,1
5.262765,0.293,-0.576,0.74,106.14,-151.123,-106.445,1
5.270152,0.306,-0.703,0.762,112.304,-153.259,-102.6,1
5.279327,0.229,-0.78,0.858,104.064,-150.878,-98.937,1
5.286227,0.208,-0.838,0.874,92.041,-149.169,-94.421,1
5.295943,0.231,-0.909,0.909,79.162,-147.216,-88.928,1
5.30288,0.194,-0.937,0.903,71.594,-146.301,-82.58,1
5.311605,0.174,-0.976,0.935,67.871,-147.338,-74.768,1
5.320316,0.211,-1.03,0.994,70.678,-147.949,-67.871,1
5.327421,0.222,-1.097,1.106,82.885,-147.827,-59.265,1
5.336307,0.187,-1.175,1.182,93.078,-147.338,-51.33,1
5.34358,0.226,-1.273,1.272,98.449,-145.08,-41.931,1
5.351391,0.23,-1.361,1.348,101.501,-141.418,-31.249,1
5.359898,0.218,-1.4,1.391,107.971,-137.939,-18.371,1
5.367347,0.165,-1.422,1.365,117.065,-135.131,-7.202,1
5.37555,0.125,-1.43,1.331,130.554,-132.446,5.004,1
5.383035,0.06,-1.396,1.252,141.418,-131.53,14.526,1
5.39086,0.031,-1.438,1.192,136.596,-129.333,23.742,1
5.399573,0.012,-1.447,1.124,108.947,-127.136,33.752,1
5.407464,0.032,-1.448,1.149,71.899,-122.741,47.302,1
5.414702,0.066,-1.435,1.189,55.969,-120.239,59.936,1
5.423845,0.1,-1.409,1.276,65.856,-119.323,72.692,1
5.430807,0.065,-1.425,1.319,88.562,-118.164,86.975,1
5.439768,0.004,-1.438,1.357,101.074,-117.004,99.182,1
5.446642,-0.021,-1.462,1.416,105.407,-114.868,111.694,1
5.455442,-0.05,-1.452,1.48,108.215,-110.656,125.61,1
5.46251,-0.117,-1.436,1.517,109.069,-106.811,138.122,1
5.471052,-0.165,-1.425,1.525,102.966,-103.393,150.512,1
5.479291,-0.179,-1.412,1.55,89.721,-98.083,165.649,1
5.486553,-0.198,-1.376,1.589,78.491,-93.017,178.955,1
5.494387,-0.257,-1.34,1.598,67.26,-87.89,193.115,1
5.502734,-0.316,-1.276,1.623,58.898,-83.374,206.97,1
5.509792,-0.324,-1.225,1.657,57.861,-79.345,220.886,1
5.518037,-0.34,-1.167,1.704,61.706,-75.744,234.436,1
5.525027,-0.388,-1.089,1.761,67.932,-72.143,247.253,1
5.533343,-0.517,-1.01,1.879,74.829,-67.932,258.728,1
5.541693,-0.636,-0.968,1.994,77.575,-61.523,270.263,1
5.549239,-0.735,-0.922,2.126,74.157,-51.757,283.02,1
5.557878,-0.877,-0.862,2.267,71.411,-41.564,293.579,1
5.565501,-1.019,-0.823,2.358,65.185,-28.076,304.931,1
5.572541,-1.162,-0.784,2.401,50.903,-14.831,314.331,1
5.581343,-1.273,-0.732,2.478,35.278,-0.427,323.913,1
5.589346,-1.365,-0.655,2.566,25.085,14.526,334.045,1
5.595869,-1.489,-0.561,2.663,19.287,29.846,343.994,1
5.60583,-1.585,-0.45,2.797,19.47,48.522,354.919,1
5.61244,-1.694,-0.352,2.991,26.062,66.894,362.853,1
5.620402,-1.818,-0.278,3.123,28.808,90.393,370.849,1
5.62947,-1.979,-0.188,3.211,18.92,112.915,376.892,1
5.63625,-2.166,-0.052,3.242,5.615,136.413,381.957,1
5.643731,-2.334,0.114,3.267,1.22,159.729,386.23,1
5.652311,-2.435,0.25,3.213,1.892,185.607,389.77,1
5.660415,-2.609,0.398,3.158,-4.638,207.214,393.066,1
5.66779,-2.727,0.594,3.089,-11.657,228.881,394.775,1
5.675729,-3.147,0.844,3.014,-12.451,252.38,396.057,1
5.68491,-3.226,1.059,2.937,-7.507,271.728,394.165,1
5.692655,-3.389,1.274,2.845,-2.685,292.602,391.357,1
5.70043,-3.447,1.438,2.724,-1.77,312.194,388.244,1
5.709062,-3.562,1.622,2.57,-3.173,330.566,384.704,1
5.716114,-3.711,1.786,2.327,-9.094,348.693,378.784,1
5.724933,-3.794,2.049,2.127,-8.911,368.957,370.727,1
5.732434,-3.831,2.272,1.889,-4.333,379.455,360.046,1
5.740016,-3.864,2.423,1.727,-3.479,391.662,348.327,1
5.747467,-3.995,2.551,1.537,-18.249,402.648,335.632,1
5.755186,-4.052,2.675,1.364,-52.124,421.569,319.274,1
5.764091,-4.072,2.917,1.05,-84.594,435.668,301.33,1
5.772528,-4.013,3.243,0.687,-101.318,448.181,278.747,1
5.779576,-3.817,3.533,0.239,-100.036,454.528,252.258,1
5.787252,-3.605,3.803,-0.282,-93.017,456.848,217.468,1
5.79642,-3.417,3.983,-0.73,-92.651,455.017,185.18,1
5.803635,-3.089,4.101,-1.226,-93.2,448.669,151.245,1
5.813325,-2.813,4.113,-1.611,-97.351,436.157,112.06,1
5.821829,-2.472,3.988,-1.971,-111.999,422.241,78.796,1
5.829234,-2.18,3.823,-2.204,-132.873,403.686,41.931,1
5.836192,-1.941,3.632,-2.354,-138.488,384.521,13.0,1
5.845504,-1.607,3.353,-2.484,-122.436,359.863,-15.747,1
5.853852,-1.35,3.097,-2.58,-98.937,337.219,-35.705,1
5.860966,-1.104,2.791,-2.697,-78.247,311.157,-54.077,1
5.869442,-0.919,2.543,-2.779,-65.246,288.085,-67.016,1
5.879247,-0.734,2.257,-2.811,-46.508,261.108,-78.918,1
5.886071,-0.566,1.968,-2.798,-27.16,237.853,-85.998,1
5.894302,-0.441,1.73,-2.752,-3.112,212.341,-92.346,1
5.901621,-0.353,1.509,-2.677,14.587,191.528,-95.275,1
5.909271,-0.268,1.318,-2.565,28.991,172.668,-96.801,1
5.91721,-0.204,1.074,-2.443,41.015,153.381,-97.106,1
5.926346,-0.071,0.863,-2.375,29.968,138.916,-95.642,1
5.933313,-0.017,0.724,-2.293,14.343,126.586,-94.116,1
5.941648,0.075,0.598,-2.246,3.295,110.656,-91.613,1
5.950785,0.13,0.506,-2.193,-0.915,97.351,-88.989,1
5.957359,0.171,0.415,-2.126,-1.037,83.801,-86.059,1
5.966634,0.2,0.351,-2.041,4.15,68.481,-82.031,1
5.973858,0.212,0.272,-1.954,10.314,56.518,-77.636,1
5.981022,0.245,0.212,-1.858,16.235,45.043,-73.303,1
5.990369,0.272,0.158,-1.757,22.644,35.095,-68.359,1
5.997549,0.299,0.101,-1.654,28.625,24.597,-61.95,1
6.006938,0.326,0.082,-1.567,32.714,16.174,-56.945,1
6.013093,0.335,0.068,-1.455,36.621,7.751,-50.72,1
6.022052,0.347,0.066,-1.374,37.17,2.197,-46.569,1
6.030362,0.349,0.066,-1.289,35.339,-3.54,-41.503,1
6.037263,0.372,0.075,-1.212,31.127,-9.338,-36.315,1
6.044727,0.391,0.097,-1.124,26.977,-14.099,-31.677,1
6.054186,0.387,0.121,-1.059,25.146,-19.287,-26.733,1
6.062633,0.414,0.146,-1.0,25.756,-23.62,-22.705,1
6.069704,0.43,0.169,-0.926,28.381,-28.564,-18.127,1
6.078509,0.438,0.195,-0.85,30.883,-32.531,-14.465,1
6.086739,0.458,0.227,-0.768,33.569,-35.583,-11.047,1
6.09388,0.479,0.245,-0.711,33.874,-37.841,-7.324,1
6.101374,0.479,0.269,-0.654,31.127,-39.672,-4.211,1
6.110484,0.483,0.292,-0.593,27.099,-40.893,-1.098,1
6.117724,0.516,0.328,-0.525,20.996,-42.114,2.746,1
6.126553,0.525,0.369,-0.45,18.676,-42.663,5.859,1
6.133808,0.54,0.419,-0.374,18.554,-42.907,8.422,1
6.141051,0.559,0.457,-0.32,19.165,-42.358,10.925,1
6.149877,0.569,0.497,-0.271,19.165,-41.748,12.939,1
6.157113,0.583,0.531,-0.226,19.348,-41.32,14.709,1
6.166407,0.59,0.571,-0.177,19.47,-39.733,16.662,1
6.173111,0.578,0.604,-0.146,18.493,-38.391,17.883,1
6.181523,0.591,0.628,-0.128,15.747,-36.437,18.676,1
6.189436,0.606,0.656,-0.114,10.681,-33.691,19.714,1
6.198943,0.618,0.678,-0.107,5.859,-31.677,20.324,1
6.206279,0.636,0.701,-0.083,1.892,-29.785,20.446,1
6.213256,0.639,0.719,-0.06,2.624,-28.198,20.812,1
6.221058,0.641,0.725,-0.049,3.662,-26.672,20.629,1
6.228733,0.641,0.729,-0.04,2.563,-24.658,20.385,1
6.238122,0.639,0.742,-0.029,1.953,-22.766,20.202,1
6.245021,0.637,0.759,-0.034,1.831,-20.629,20.019,1
6.253505,0.638,0.768,-0.042,1.098,-18.981,19.653,1
6.262145,0.634,0.774,-0.043,-0.061,-17.15,18.981,1
6.268905,0.638,0.782,-0.038,0.793,-15.624,18.615,1
6.276333,0.649,0.776,-0.044,1.892,-13.854,17.944,1
6.284428,0.657,0.777,-0.052,1.281,-12.451,17.578,1
6.293429,0.669,0.775,-0.058,0.366,-11.169,17.395,1
6.300173,0.684,0.785,-0.07,1.22,-10.131,17.15,1
6.308524,0.704,0.803,-0.089,1.342,-8.789,17.089,1
6.316194,0.689,0.826,-0.119,-1.281,-8.117,16.235,1
6.324583,0.687,0.842,-0.162,-5.493,-7.324,15.441,1
6.331878,0.681,0.857,-0.187,-11.474,-6.958,14.465,1
6.340651,0.674,0.875,-0.208,-13.671,-7.08,13.488,1
6.3479,0.666,0.886,-0.219,-12.023,-7.446,12.512,1
6.355964,0.663,0.885,-0.224,-6.103,-8.544,11.474,1
6.365203,0.66,0.877,-0.218,-0.488,-9.216,10.742,1
6.371949,0.656,0.855,-0.204,2.807,-9.887,10.192,1
6.38001,0.656,0.842,-0.196,4.333,-10.131,10.07,1
6.386983,0.66,0.835,-0.175,4.089,-9.643,10.07,1
6.395162,0.661,0.83,-0.161,4.15,-9.765,9.765,1
6.40168,0.661,0.82,-0.156,3.54,-9.155,9.521,1
6.410288,0.667,0.814,-0.145,1.098,-8.85,9.46,1
6.417141,0.664,0.812,-0.144,-3.112,-8.117,9.155,1
6.426177,0.665,0.809,-0.145,-6.774,-7.446,8.972,1
6.43432,0.671,0.813,-0.135,-7.812,-6.774,8.728,1
6.441855,0.663,0.811,-0.131,-7.019,-6.591,8.361,1
6.450445,0.656,0.811,-0.132,-7.08,-5.981,7.995,1
6.457129,0.651,0.812,-0.127,-6.896,-5.493,7.69,1
6.466115,0.651,0.811,-0.129,-5.676,-4.943,7.08,1
6.473532,0.646,0.803,-0.13,-4.638,-5.31,6.958,1
6.481989,0.651,0.803,-0.123,-3.051,-4.943,6.53,1
6.489885,0.647,0.795,-0.111,-0.976,-4.821,5.981,1
6.49918,0.647,0.789,-0.106,-0.061,-4.394,5.859,1
6.507324,0.644,0.796,-0.093,0.793,-3.784,5.798,1
6.514881,0.641,0.794,-0.089,1.22,-3.479,5.676,1
6.522606,0.633,0.798,-0.098,0.183,-2.563,5.432,1
6.531114,0.628,0.807,-0.105,-0.366,-2.197,5.065,1
6.538333,0.629,0.808,-0.104,-0.793,-1.953,4.455,1
6.547029,0.63,0.805,-0.114,-0.976,-1.586,4.15,1
6.554232,0.631,0.801,-0.115,-0.976,-2.136,3.845,1
6.563501,0.627,0.793,-0.116,-0.976,-1.831,3.295,1
6.570647,0.626,0.788,-0.111,-1.77,-1.708,3.112,1
6.579965,0.624,0.787,-0.099,-0.305,-1.953,3.112,1
6.586846,0.635,0.787,-0.096,2.319,-2.197,2.929,1
6.594412,0.626,0.792,-0.097,4.15,-2.136,2.685,1
6.603122,0.621,0.801,-0.098,4.76,-1.953,2.807,1
6.610445,0.622,0.805,-0.106,4.333,-1.892,2.624,1
6.620088,0.615,0.81,-0.112,2.746,-1.892,2.441,1
6.627222,0.616,0.809,-0.118,0.976,-1.22,2.075,1
6.636205,0.614,0.803,-0.127,0.244,-1.22,1.892,1
6.643171,0.621,0.802,-0.132,0.366,-1.281,1.647,1
6.650877,0.628,0.795,-0.133,0.671,-1.22,1.586,1
6.659535,0.628,0.794,-0.136,2.075,-1.22,1.464,1
6.666794,0.632,0.789,-0.136,4.028,-1.464,1.342,1
6.676052,0.638,0.789,-0.145,4.394,-1.403,1.159,1
6.683169,0.633,0.795,-0.157,1.831,-1.525,1.342,1
6.691317,0.63,0.807,-0.166,-1.586,-1.22,0.976,1
6.698458,0.634,0.814,-0.18,-3.601,-1.342,0.671,1
6.70647,0.639,0.818,-0.186,-2.685,-1.892,0.427,1
6.714129,0.633,0.818,-0.189,0.0,-2.441,0.122,1
6.72207,0.635,0.815,-0.19,2.868,-3.112,-0.366,1
6.731408,0.622,0.806,-0.183,4.028,-3.479,-0.488,1
6.738359,0.625,0.807,-0.176,4.089,-3.784,-0.305,1
6.746061,0.624,0.81,-0.173,3.662,-4.211,-0.305,1
6.754621,0.625,0.812,-0.171,3.662,-4.211,-0.305,1
6.76227,0.631,0.81,-0.175,2.014,-4.028,-0.427,1
6.770924,0.626,0.805,-0.181,-0.488,-4.028,-0.427,1
6.779939,0.638,0.816,-0.185,-2.136,-3.967,-0.671,1
6.788653,0.635,0.824,-0.188,-2.258,-4.333,-0.854,1
6.795906,0.638,0.828,-0.197,-0.61,-5.004,-1.22,1
6.803274,0.636,0.83,-0.197,1.098,-5.493,-1.831,1
6.81182,0.631,0.822,-0.196,1.831,-5.859,-2.014,1
6.820647,0.628,0.812,-0.195,1.831,-6.164,-2.502,1
6.827042,0.63,0.806,-0.186,1.892,-6.408,-2.868,1
6.836202,0.622,0.809,-0.178,3.601,-6.652,-2.685,1
6.843492,0.62,0.816,-0.169,7.629,-7.08,-2.685,1
6.852781,0.624,0.815,-0.176,6.042,-7.141,-3.173,1
6.860755,0.621,0.815,-0.178,1.342,-6.713,-3.417,1
6.867683,0.628,0.819,-0.172,-1.953,-6.286,-3.967,1
6.876405,0.635,0.829,-0.167,-1.647,-6.225,-4.394,1
6.885287,0.639,0.835,-0.166,1.037,-6.713,-4.76,1
6.89445,0.642,0.828,-0.164,3.906,-6.835,-5.187,1
6.901151,0.643,0.813,-0.157,4.455,-6.53,-5.371,1
6.909596,0.641,0.806,-0.155,2.868,-6.469,-5.432,1
6.916828,0.64,0.802,-0.153,0.366,-6.347,-5.737,1
6.92472,0.64,0.792,-0.148,-2.075,-5.92,-5.737,1
6.933086,0.639,0.784,-0.147,-5.004,-5.615,-6.164,1
6.941258,0.637,0.787,-0.146,-5.371,-5.493,-5.859,1
6.950009,0.644,0.789,-0.145,-3.601,-5.371,-6.164,1
6.9581,0.64,0.797,-0.132,-0.61,-5.92,-6.286,1
6.965762,0.639,0.796,-0.124,2.258,-5.676,-6.042,1
6.974709,0.634,0.789,-0.115,2.685,-5.737,-6.225,1
6.983538,0.627,0.777,-0.103,-0.305,-4.76,-6.225,1
6.991953,0.627,0.78,-0.105,-2.807,-4.089,-6.225,1
6.999221,0.632,0.783,-0.099,-3.845,-3.479,-6.286,1
7.007162,0.631,0.779,-0.099,-2.99,-3.051,-6.347,1
7.015472,0.633,0.783,-0.096,-1.708,-2.807,-6.225,1
7.02408,0.641,0.774,-0.097,-0.915,-2.746,-6.164,1
7.033521,0.641,0.766,-0.093,-1.159,-2.136,-6.164,1
7.041595,0.637,0.765,-0.098,-2.38,-1.708,-6.164,1
7.049084,0.637,0.766,-0.103,-3.54,-1.464,-6.164,1
7.055784,0.629,0.762,-0.1,-4.028,-1.037,-6.164,1
7.065209,0.633,0.762,-0.099,-3.54,-0.915,-6.225,1
7.072469,0.627,0.759,-0.098,-3.173,-0.671,-6.286,1
7.081422,0.629,0.754,-0.104,-3.906,-0.122,-6.164,1
7.088474,0.633,0.755,-0.105,-4.333,0.183,-6.164,1
7.097784,0.635,0.755,-0.105,-4.333,0.305,-6.286,1
7.104827,0.639,0.746,-0.102,-3.417,0.244,-6.347,1
7.113637,0.637,0.74,-0.105,-2.258,0.427,-6.347,1
7.122582,0.638,0.735,-0.104,-1.831,0.671,-6.164,1
7.129687,0.636,0.736,-0.109,-1.22,0.671,-6.164,1
7.138765,0.641,0.728,-0.117,-1.647,0.915,-6.225,1
7.146507,0.636,0.726,-0.118,-2.624,1.159,-5.92,1
7.154139,0.639,0.724,-0.126,-3.295,1.098,-5.554,1
7.162336,0.641,0.733,-0.124,-2.685,0.976,-5.432,1
7.170544,0.638,0.725,-0.122,-1.342,1.159,-5.004,1
7.178058,0.637,0.721,-0.125,-0.305,1.098,-4.516,1
7.185456,0.644,0.715,-0.118,-0.366,1.037,-4.15,1
7.19335,0.642,0.714,-0.127,-1.464,1.22,-3.784,1
7.20197,0.647,0.717,-0.126,-1.892,1.464,-3.479,1
7.210707,0.647,0.727,-0.131,-1.22,1.159,-3.112,1
7.219227,0.654,0.729,-0.13,-0.183,1.098,-2.685,1
7.225799,0.651,0.726,-0.133,1.098,0.732,-2.624,1
7.234591,0.65,0.73,-0.13,1.22,0.61,-2.38,1
7.241877,0.651,0.737,-0.139,-0.122,1.098,-2.014,1
7.250801,0.646,0.749,-0.152,-1.892,0.854,-1.892,1
7.257519,0.644,0.762,-0.161,-3.051,0.671,-1.586,1
7.265884,0.645,0.774,-0.167,-2.197,0.427,-2.014,1
7.274825,0.649,0.779,-0.163,0.305,0.0,-2.258,1
7.281967,0.65,0.779,-0.159,2.685,-0.427,-2.563,1
7.290468,0.649,0.771,-0.152,3.417,-0.732,-2.624,1
7.299148,0.652,0.763,-0.148,2.746,-0.915,-2.929,1
7.306195,0.652,0.762,-0.145,2.197,-0.671,-3.051,1
7.314612,0.652,0.764,-0.137,1.647,-0.915,-2.99,1
7.323111,0.65,0.758,-0.142,1.098,-0.61,-2.99,1
7.332068,0.655,0.75,-0.138,0.427,-0.427,-3.051,1
7.339091,0.655,0.757,-0.139,-0.366,-0.244,-3.295,1
7.348244,0.654,0.751,-0.14,-0.976,-0.305,-3.234,1
7.355753,0.656,0.752,-0.14,-1.281,-0.122,-3.601,1
7.364756,0.658,0.749,-0.134,-0.854,-0.244,-3.845,1
7.372047,0.656,0.753,-0.132,0.427,-0.183,-3.784,1
7.380685,0.652,0.751,-0.129,1.464,-0.122,-3.723,1
7.387812,0.657,0.751,-0.131,1.831,0.244,-3.662,1
7.395939,0.653,0.756,-0.14,-0.183,0.427,-3.54,1
7.404943,0.656,0.764,-0.148,-2.685,0.854,-3.723,1
7.412668,0.656,0.774,-0.155,-4.699,1.098,-4.089,1
7.420154,0.659,0.781,-0.163,-2.99,0.61,-4.211,1
7.428447,0.655,0.776,-0.161,-0.671,0.488,-4.699,1
7.436183,0.659,0.767,-0.161,1.159,-0.061,-4.577,1
7.442861,0.659,0.748,-0.159,0.976,0.305,-4.516,1
7.452563,0.663,0.743,-0.154,-0.366,-0.183,-4.516,1
7.459419,0.663,0.74,-0.152,-0.732,-0.183,-4.15,1
7.468727,0.664,0.741,-0.149,-0.122,-0.122,-3.906,1
7.475976,0.662,0.741,-0.149,0.427,-0.183,-3.601,1
7.483677,0.668,0.738,-0.146,0.183,-0.061,-3.601,1
7.492896,0.662,0.733,-0.147,-1.586,0.122,-3.356,1
7.499613,0.666,0.734,-0.144,-2.746,0.305,-3.356,1
7.508858,0.667,0.731,-0.152,-2.685,0.305,-3.356,1
7.516463,0.668,0.722,-0.154,-3.051,0.61,-3.234,1
7.523877,0.667,0.713,-0.159,-3.295,0.793,-2.929,1
7.532265,0.664,0.717,-0.157,-2.014,0.427,-2.685,1
7.541501,0.668,0.715,-0.159,-0.549,0.488,-2.502,1
7.548809,0.663,0.713,-0.157,0.915,0.427,-2.319,1
7.555775,0.665,0.709,-0.162,1.464,0.366,-2.014,1
7.563413,0.666,0.704,-0.159,1.037,0.305,-1.892,1
7.571571,0.671,0.704,-0.159,-0.061,0.366,-1.647,1
7.580216,0.667,0.705,-0.158,-0.671,0.366,-1.403,1
7.5875,0.663,0.712,-0.16,-0.732,0.061,-0.915,1
7.596857,0.668,0.711,-0.156,0.061,0.061,-0.671,1
7.605548,0.664,0.711,-0.161,-0.549,-0.122,-0.549,1
7.613603,0.658,0.712,-0.164,-2.014,-0.366,0.0,1
7.621216,0.66,0.723,-0.168,-2.319,-0.244,0.244,1
7.628313,0.656,0.726,-0.167,-1.525,-0.732,0.305,1
7.636627,0.652,0.726,-0.168,-0.427,-0.732,0.854,1
7.64418,0.655,0.729,-0.163,-0.183,-0.976,0.854,1
7.652628,0.655,0.729,-0.161,-0.183,-0.854,0.976,1
7.661643,0.66,0.732,-0.161,0.122,-1.037,1.098,1
7.668191,0.653,0.731,-0.157,0.244,-1.037,1.098,1
7.677132,0.653,0.731,-0.156,-0.122,-0.915,1.037,1
7.685247,0.648,0.732,-0.154,-0.305,-1.403,1.037,1
7.691701,0.644,0.721,-0.153,-0.488,-1.098,0.854,1
7.70014,0.647,0.72,-0.154,-0.915,-1.342,0.732,1
7.708365,0.64,0.72,-0.153,-0.793,-1.22,0.915,1
7.715773,0.639,0.72,-0.155,-0.183,-0.976,0.732,1
7.724474,0.643,0.72,-0.157,0.671,-1.098,1.037,1
7.731598,0.643,0.722,-0.158,1.037,-1.281,1.281,1
7.740308,0.642,0.728,-0.16,0.61,-1.22,1.037,1
7.747864,0.644,0.731,-0.162,-0.122,-1.464,1.037,1
7.755599,0.648,0.73,-0.164,-0.305,-1.525,0.976,1
7.764394,0.649,0.734,-0.159,0.854,-1.77,0.854,1
7.771435,0.656,0.729,-0.157,2.075,-2.075,0.976,1
7.77916,0.657,0.721,-0.154,2.624,-2.441,1.159,1
7.787738,0.655,0.72,-0.144,2.014,-2.624,1.281,1
7.795605,0.654,0.725,-0.143,2.075,-2.746,1.708,1
7.802982,0.657,0.726,-0.138,2.014,-2.868,1.953,1
7.810528,0.658,0.729,-0.136,2.319,-2.807,2.502,1
7.819338,0.661,0.729,-0.134,2.502,-2.99,2.685,1
7.826262,0.663,0.732,-0.136,1.892,-2.99,2.746,1
7.835127,0.668,0.729,-0.134,1.037,-2.685,2.685,1
7.842,0.666,0.733,-0.126,0.366,-2.685,3.112,1
7.849796,0.664,0.737,-0.124,1.22,-2.807,3.356,1
7.857333,0.666,0.736,-0.119,2.99,-2.807,3.417,1
7.866238,0.666,0.74,-0.117,4.272,-2.624,3.723,1
7.873289,0.66,0.748,-0.114,3.906,-2.563,3.967,1
7.882449,0.656,0.754,-0.11,2.807,-2.258,4.089,1
7.889547,0.656,0.765,-0.107,2.197,-1.892,4.15,1
7.898241,0.663,0.772,-0.107,1.77,-1.525,3.723,1
7.906172,0.661,0.774,-0.108,1.77,-1.037,3.601,1
7.913733,0.667,0.775,-0.106,1.525,-0.549,3.173,1
7.922588,0.666,0.781,-0.107,0.793,-0.366,2.929,1
7.929564,0.665,0.781,-0.103,1.281,-0.183,2.868,1
7.937544,0.666,0.786,-0.103,2.014,0.0,2.319,1
7.945184,0.666,0.788,-0.104,2.014,0.427,1.892,1
7.951907,0.666,0.784,-0.104,1.22,0.732,1.953,1
7.959388,0.66,0.792,-0.105,-0.488,1.342,1.708,1
7.967659,0.664,0.797,-0.109,-1.037,1.831,1.281,1
7.97473,0.662,0.792,-0.114,-1.525,1.953,0.976,1
7.982657,0.666,0.798,-0.121,-1.403,2.38,0.671,1
7.990559,0.662,0.801,-0.126,-1.159,2.502,0.305,1
7.998921,0.67,0.805,-0.131,-0.183,2.319,0.244,1
8.005591,0.678,0.803,-0.133,0.366,2.197,-0.244,1
8.013988,0.674,0.804,-0.14,0.305,2.136,-0.671,1
8.021839,0.679,0.807,-0.137,0.061,1.77,-0.854,1
8.030571,0.672,0.81,-0.132,-0.549,1.77,-0.854,1
8.037517,0.672,0.816,-0.125,-1.037,2.075,-1.281,1
8.045502,0.67,0.824,-0.121,-1.342,1.953,-1.708,1
8.053527,0.673,0.83,-0.119,-1.22,1.953,-1.953,1
8.061475,0.677,0.83,-0.125,-0.976,2.502,-2.502,1
8.06971,0.675,0.829,-0.119,-1.281,2.441,-3.173,1
8.077989,0.677,0.83,-0.127,-1.892,2.685,-3.417,1
8.085377,0.678,0.822,-0.129,-2.014,2.929,-4.211,1
8.09284,0.678,0.819,-0.128,-1.77,2.929,-4.76,1
8.101393,0.682,0.815,-0.133,-1.159,2.929,-5.371,1
8.108991,0.681,0.811,-0.132,-1.098,2.868,-5.859,1
8.118058,0.686,0.808,-0.143,-0.915,2.807,-6.408,1
8.125546,0.686,0.811,-0.14,-0.61,2.563,-7.019,1
8.133977,0.685,0.813,-0.148,-0.366,2.38,-7.263,1
8.142742,0.683,0.815,-0.146,-0.061,2.136,-7.995,1
8.150745,0.688,0.815,-0.146,-0.488,1.892,-8.422,1
8.158038,0.686,0.815,-0.146,-2.197,2.136,-8.544,1
8.167437,0.69,0.82,-0.141,-3.784,1.892,-9.033,1
8.175054,0.693,0.83,-0.139,-4.882,1.647,-9.399,1
8.182672,0.702,0.839,-0.14,-5.676,1.831,-10.009,1
8.191158,0.7,0.855,-0.137,-6.042,1.403,-10.437,1
8.198634,0.7,0.874,-0.144,-6.53,1.22,-10.803,1
8.207157,0.708,0.907,-0.152,-7.263,0.976,-11.718,1
8.216147,0.712,0.937,-0.159,-8.239,0.122,-13.061,1
8.223245,0.716,0.967,-0.162,-8.728,-0.671,-14.099,1
8.232114,0.719,1.005,-0.17,-8.056,-1.831,-15.686,1
8.240326,0.724,1.04,-0.166,-6.103,-3.601,-17.883,1
8.249729,0.738,1.068,-0.159,-4.76,-4.821,-19.836,1
8.258209,0.743,1.106,-0.149,-4.455,-6.103,-22.46,1
8.265372,0.762,1.144,-0.148,-4.943,-7.202,-25.329,1
8.273792,0.773,1.189,-0.13,-4.577,-8.728,-29.052,1
8.281563,0.781,1.225,-0.113,-4.089,-9.521,-32.775,1
8.290919,0.791,1.25,-0.091,-4.638,-10.62,-37.353,1
8.298274,0.8,1.269,-0.061,-6.408,-11.23,-41.809,1
8.307584,0.796,1.281,-0.019,-9.399,-11.413,-47.424,1
8.31478,0.799,1.289,0.032,-11.535,-11.413,-52.368,1
8.321981,0.799,1.294,0.104,-10.864,-11.047,-57.983,1
8.331245,0.799,1.287,0.173,-8.239,-10.009,-62.866,1
8.338502,0.791,1.274,0.275,-5.981,-7.568,-68.115,1
8.346312,0.763,1.215,0.365,-9.582,-3.723,-73.486,1
8.354189,0.784,0.954,0.439,-35.4,2.197,-74.157,1
8.362298,0.793,1.164,0.594,-45.41,11.474,-81.359,1
8.371235,0.78,1.142,0.719,-21.118,14.465,-87.219,1
8.378938,0.765,1.067,0.788,2.624,23.742,-90.942,1
8.387534,0.75,1.002,0.85,4.272,30.456,-95.642,1
8.394899,0.69,0.908,0.931,-4.821,44.067,-98.51,1
8.402554,0.673,0.842,0.967,-23.559,57.373,-102.294,1
8.410078,0.63,0.772,1.001,-35.888,71.655,-104.736,1
8.41756,0.58,0.69,0.996,-43.212,82.885,-107.116,1
8.426577,0.522,0.625,0.975,-41.748,98.083,-108.642,1
8.433569,0.477,0.568,0.895,-38.513,109.13,-109.558,1
8.441474,0.397,0.511,0.801,-36.865,121.093,-109.985,1
8.449803,0.315,0.443,0.684,-38.818,131.713,-110.412,1
8.457261,0.229,0.369,0.561,-43.09,144.653,-110.412,1
8.4656,0.174,0.289,0.436,-47.973,152.404,-110.412,1
8.473748,0.063,0.208,0.319,-55.786,163.208,-109.436,1
8.482206,-0.018,0.151,0.22,-61.218,172.546,-107.666,1
8.4904,-0.098,0.08,0.124,-62.805,180.175,-106.323,1
8.499372,-0.22,-0.016,0.019,-63.781,186.584,-104.431,1
8.506174,-0.326,-0.12,-0.084,-67.687,194.03,-101.318,1
8.515146,-0.395,-0.25,-0.202,-68.664,200.012,-96.74,1
8.523542,-0.469,-0.393,-0.33,-62.133,203.979,-91.857,1
8.532241,-0.52,-0.541,-0.433,-51.391,207.031,-83.129,1
8.540853,-0.544,-0.728,-0.57,-51.452,210.571,-71.35,1
8.548666,-0.618,-0.847,-0.703,-64.636,213.073,-60.546,1
8.557547,-0.75,-0.975,-0.828,-80.017,215.148,-47.058,1
8.565274,-0.829,-1.142,-0.998,-95.031,216.674,-32.226,1
8.573709,-0.842,-1.326,-1.181,-110.29,216.125,-17.7,1
8.582646,-0.855,-1.476,-1.344,-121.459,213.073,1.159,1
8.590868,-0.886,-1.692,-1.562,-130.371,210.021,19.531,1
8.59826,-0.936,-1.838,-1.753,-140.136,204.223,41.809,1
8.607109,-0.998,-2.013,-2.016,-141.174,196.838,62.622,1
8.614656,-1.069,-2.209,-2.288,-138.488,185.729,88.989,1
8.623023,-1.25,-2.354,-2.576,-127.685,173.156,113.342,1
8.629865,-1.387,-2.506,-2.811,-116.882,158.447,139.038,1
8.638493,-1.581,-2.659,-3.099,-116.333,142.333,166.87,1
8.645279,-1.799,-2.773,-3.388,-119.079,124.145,195.739,1
8.652293,-2.016,-2.86,-3.651,-114.562,103.027,226.013,1
8.659955,-2.204,-2.942,-3.934,-98.937,78.613,256.958,1
8.666854,-2.367,-2.993,-4.199,-81.604,50.659,289.001,1
8.674555,-2.705,-2.965,-4.439,-82.031,21.911,321.105,1
8.683477,-2.939,-2.796,-4.566,-68.115,-11.047,351.867,1
8.690616,-3.136,-2.614,-4.726,-28.015,-45.959,380.737,1
8.699168,-3.504,-2.355,-4.9,0.488,-86.486,407.47,1
8.708152,-3.802,-2.034,-5.01,16.662,-132.385,436.035,1
8.716596,-4.172,-1.587,-5.061,20.568,-179.992,460.571,1
8.723908,-4.455,-1.096,-5.065,27.282,-220.214,479.125,1
8.733068,-4.905,-0.456,-5.006,41.442,-269.592,496.215,1
8.740284,-5.282,0.139,-4.885,60.363,-313.232,506.957,1
8.749279,-5.688,0.867,-4.584,93.872,-365.417,513.244,1
8.756771,-5.985,1.472,-4.215,120.727,-409.362,513.061,1
8.76629,-6.196,2.148,-3.76,123.474,-456.176,508.056,1
8.772376,-6.401,2.843,-3.206,117.37,-491.638,499.206,1
8.781214,-6.622,3.587,-2.588,124.755,-521.911,484.741,1
8.789487,-6.885,4.429,-1.8,134.826,-548.278,462.097,1
8.796109,-6.843,5.121,-1.113,160.705,-574.89,423.156,1
8.804984,-6.742,5.683,-0.469,196.838,-592.834,379.638,1
8.813023,-6.37,5.982,0.264,218.566,-607.238,327.697,1
8.821259,-5.964,6.013,0.93,229.125,-614.135,262.573,1
8.828132,-5.682,5.979,1.592,229.309,-612.365,205.383,1
8.837194,-5.309,5.591,2.209,210.571,-598.205,149.841,1
8.844192,-4.807,5.142,2.591,152.709,-578.674,97.717,1
8.851425,-4.318,4.739,3.057,94.543,-549.255,47.79,1
8.859276,-3.891,4.41,3.409,89.416,-526.062,10.375,1
8.867735,-3.478,3.974,3.727,92.529,-497.985,-22.644,1
8.87512,-3.149,3.587,3.969,84.838,-469.787,-51.208,1
8.884258,-2.709,3.167,4.243,84.716,-431.64,-78.308,1
8.892059,-2.36,2.775,4.38,83.923,-400.329,-97.29,1
8.901079,-1.942,2.382,4.412,74.584,-359.191,-114.196,1
8.90802,-1.654,2.078,4.339,64.147,-326.538,-125.366,1
8.917218,-1.285,1.74,4.153,52.124,-292.846,-133.483,1
8.924084,-1.054,1.546,3.974,39.123,-262.268,-140.014,1
8.932997,-0.885,1.356,3.893,37.17,-233.032,-142.944,1
8.941384,-0.719,1.163,3.751,30.151,-207.153,-145.324,1
8.949908,-0.485,0.956,3.579,26.489,-175.903,-146.362,1
8.957357,-0.312,0.749,3.338,21.667,-152.893,-146.057,1
8.963975,-0.189,0.594,3.122,11.962,-126.464,-144.348,1
8.97183,-0.083,0.481,2.887,3.601,-107.238,-142.028,1
8.979103,-0.017,0.398,2.65,-0.122,-93.017,-140.136,1
8.987801,0.053,0.288,2.473,-6.469,-78.308,-137.023,1
8.99603,0.098,0.203,2.233,-22.521,-61.828,-132.202,1
9.004055,0.183,0.146,2.011,-38.513,-52.368,-127.685,1
9.009948,0.238,0.123,1.929,-39.245,-41.32,-122.009,1
9.018152,0.261,0.082,1.801,-33.569,-34.423,-116.027,1
9.026796,0.295,0.055,1.744,-22.827,-26.489,-110.168,1
9.035062,0.34,0.02,1.607,-14.404,-20.385,-104.003,1
9.041771,0.363,-0.014,1.532,-12.756,-11.901,-96.679,1
9.049942,0.388,-0.047,1.42,-22.338,-5.187,-90.759,1
9.056473,0.398,-0.056,1.349,-32.653,1.525,-84.716,1
9.064336,0.441,-0.038,1.259,-34.729,6.408,-79.101,1
9.072309,0.491,-0.008,1.184,-25.451,9.277,-73.364,1
9.07926,0.538,0.014,1.094,-10.864,11.84,-68.115,1
9.087071,0.559,0.022,1.01,1.159,13.61,-63.354,1
9.095386,0.584,0.034,0.94,5.798,16.296,-59.509,1
9.103672,0.604,0.069,0.862,5.676,19.165,-55.48,1
9.110328,0.619,0.126,0.786,3.356,21.301,-51.574,1
9.118201,0.624,0.178,0.72,0.427,23.01,-48.156,1
9.126121,0.634,0.222,0.642,-3.234,23.864,-44.616,1
9.132723,0.63,0.255,0.583,-7.019,24.536,-41.931,1
9.140886,0.627,0.279,0.531,-12.512,24.719,-39.001,1
9.147674,0.625,0.3,0.485,-20.324,25.817,-36.499,1
9.156465,0.629,0.321,0.438,-28.747,25.878,-34.606,1
9.162835,0.644,0.344,0.403,-35.766,25.695,-32.409,1
9.17154,0.665,0.364,0.375,-41.259,25.512,-30.822,1
9.180073,0.694,0.394,0.373,-42.419,25.085,-29.357,1
9.188209,0.708,0.42,0.366,-37.475,24.658,-28.259,1
9.194843,0.701,0.448,0.36,-28.137,24.23,-27.893,1
9.202702,0.685,0.462,0.356,-16.662,23.62,-27.832,1
9.211947,0.69,0.467,0.35,-5.676,23.193,-27.893,1
9.218769,0.701,0.465,0.331,5.432,22.888,-27.526,1
9.226117,0.716,0.468,0.314,13.0,23.071,-27.16,1
9.234037,0.73,0.46,0.297,17.028,23.559,-26.611,1
9.242716,0.747,0.451,0.278,16.113,24.536,-25.573,1
9.249755,0.766,0.453,0.255,10.681,25.634,-24.902,1
9.259331,0.775,0.447,0.24,1.403,27.099,-24.047,1
9.266623,0.792,0.444,0.228,-5.737,27.648,-23.01,1
9.273751,0.809,0.446,0.22,-10.986,27.954,-21.85,1
9.281305,0.816,0.461,0.22,-12.268,28.137,-20.935,1
9.290471,0.815,0.469,0.214,-8.3,27.893,-19.287,1
9.297397,0.815,0.466,0.211,-3.845,27.587,-18.249,1
9.306326,0.812,0.46,0.204,-0.488,27.465,-17.089,1
9.313463,0.817,0.447,0.184,1.892,27.832,-15.991,1
9.321025,0.817,0.447,0.163,2.99,28.32,-13.916,1
9.329902,0.817,0.458,0.139,2.929,28.564,-12.695,1
9.336905,0.81,0.466,0.113,3.051,28.686,-11.901,1
9.344392,0.802,0.475,0.088,2.929,28.259,-11.413,1
9.352326,0.808,0.468,0.069,0.122,27.832,-11.047,1
9.361362,0.818,0.46,0.057,-4.577,27.343,-10.437,1
9.369069,0.824,0.456,0.045,-9.704,26.672,-9.643,1
9.376386,0.833,0.447,0.042,-14.343,25.817,-9.338,1
9.384148,0.843,0.446,0.049,-15.014,24.353,-8.789,1
9.393501,0.846,0.445,0.057,-11.291,23.437,-7.995,1
9.4006,0.84,0.441,0.052,-6.103,21.972,-6.713,1
9.409044,0.84,0.436,0.045,-3.173,21.057,-5.554,1
9.416634,0.835,0.431,0.041,-3.112,20.263,-4.089,1
9.424173,0.835,0.44,0.036,-5.493,20.202,-2.563,1
9.433537,0.83,0.443,0.023,-9.948,19.836,-1.281,1
9.440388,0.823,0.463,0.01,-15.502,19.653,-0.427,1
9.447841,0.829,0.475,0.0,-19.104,19.287,0.488,1
9.455526,0.826,0.495,-0.003,-19.165,18.615,0.549,1
9.463193,0.831,0.506,-0.008,-15.624,16.967,0.854,1
9.470887,0.834,0.509,-0.017,-10.375,15.624,0.976,1
9.480481,0.817,0.506,-0.021,-5.432,13.916,1.159,1
9.487096,0.816,0.506,-0.022,-3.54,12.512,1.464,1
9.494184,0.819,0.504,-0.027,-3.601,11.352,1.892,1
9.502973,0.816,0.507,-0.02,-5.432,10.925,2.441,1
9.509856,0.817,0.516,-0.026,-8.361,10.375,2.563,1
9.519169,0.813,0.533,-0.026,-11.23,10.07,2.99,1
9.52627,0.817,0.553,-0.032,-13.122,9.46,3.234,1
9.533569,0.814,0.57,-0.032,-12.695,8.422,3.112,1
9.54287,0.816,0.582,-0.03,-10.437,7.385,2.868,1
9.550371,0.818,0.594,-0.03,-7.324,5.981,2.319,1
9.557733,0.811,0.591,-0.022,-4.15,4.76,2.075,1
9.565668,0.828,0.601,-0.023,-0.305,3.723,1.403,1
9.573311,0.822,0.602,-0.014,2.563,2.502,0.61,1
9.581545,0.819,0.598,-0.023,4.638,1.647,0.0,1
9.587362,0.838,0.585,-0.025,4.638,0.366,-0.732,1
9.595553,0.845,0.576,-0.023,3.479,-0.244,-1.037,1
9.603534,0.846,0.573,-0.013,1.403,-0.549,-1.464,1
9.61251,0.845,0.569,-0.007,0.549,-0.854,-1.403,1
9.618802,0.835,0.575,-0.001,0.183,-1.464,-1.77,1
9.627916,0.832,0.576,0.005,1.403,-2.258,-2.014,1
9.634797,0.825,0.572,0.008,2.746,-3.173,-2.136,1
9.643181,0.821,0.575,0.016,4.821,-3.845,-2.685,1
9.650612,0.831,0.575,0.015,7.019,-5.004,-2.807,1
9.659494,0.836,0.567,0.021,7.385,-5.493,-3.051,1
9.666462,0.841,0.563,0.017,6.164,-6.408,-3.295,1
9.675512,0.842,0.56,0.025,5.371,-6.896,-3.173,1
9.682032,0.845,0.554,0.024,4.394,-7.751,-3.234,1
9.690466,0.85,0.546,0.033,3.784,-8.3,-3.295,1
9.69875,0.849,0.537,0.043,2.807,-9.277,-3.051,1
9.706501,0.851,0.523,0.061,2.319,-9.704,-2.319,1
9.715479,0.846,0.487,0.076,-1.464,-9.765,-0.732,1
9.722208,0.848,0.51,0.088,-3.051,-9.582,-0.122,1
9.732129,0.848,0.532,0.104,-0.549,-10.009,-0.244,1
9.73908,0.846,0.54,0.113,7.568,-10.742,-0.244,1
9.748108,0.849,0.515,0.12,14.099,-11.108,0.366,1
9.755177,0.852,0.507,0.126,13.977,-11.047,0.671,1
9.764132,0.843,0.514,0.127,11.657,-10.681,1.342,1
9.771437,0.831,0.516,0.132,9.399,-10.192,1.342,1
9.778822,0.83,0.518,0.136,6.713,-9.948,2.014,1
9.786181,0.833,0.512,0.145,4.211,-9.521,2.38,1
9.794512,0.823,0.522,0.151,2.502,-9.155,2.624,1
9.801903,0.838,0.522,0.161,1.22,-8.728,2.807,1
9.808983,0.827,0.519,0.169,0.427,-8.728,2.99,1
9.817915,0.826,0.519,0.181,0.244,-8.3,3.234,1
9.82431,0.826,0.516,0.2,0.61,-7.873,3.662,1
9.831881,0.832,0.523,0.204,3.417,-7.08,4.089,1
9.840797,0.831,0.521,0.204,4.516,-6.53,4.272,1
9.848387,0.83,0.525,0.21,5.737,-5.737,4.577,1
9.856219,0.844,0.53,0.205,5.981,-5.126,4.76,1
9.864159,0.848,0.539,0.204,4.882,-3.906,5.187,1
9.872361,0.844,0.547,0.202,3.417,-3.173,5.493,1
9.879241,0.839,0.558,0.204,1.708,-2.38,5.371,1
9.88692,0.844,0.561,0.201,-0.122,-1.953,5.187,1
9.89576,0.855,0.562,0.197,-1.708,-1.037,4.943,1
9.903707,0.865,0.559,0.193,-2.502,-0.427,4.76,1
9.911109,0.865,0.563,0.186,-1.647,0.244,4.577,1
9.919489,0.874,0.567,0.179,-0.549,0.366,4.455,1
9.926833,0.873,0.571,0.169,0.732,0.793,4.394,1
9.93327,0.875,0.573,0.157,1.159,0.732,4.028,1
9.941751,0.866,0.567,0.146,0.671,1.098,3.784,1
9.948257,0.863,0.571,0.142,-0.61,0.915,3.906,1
9.957284,0.854,0.573,0.141,-1.281,1.281,3.54,1
9.965262,0.854,0.573,0.138,-1.77,0.854,3.417,1
9.972496,0.849,0.578,0.136,-2.319,0.61,3.479,1
9.980141,0.843,0.59,0.136,-2.441,0.366,3.54,1
9.989472,0.845,0.596,0.139,-1.586,0.122,3.356,1
9.9965,0.843,0.603,0.138,0.122,-0.183,3.417,1
