timestamp_s,ax,ay,az,gx,gy,gz,label
0.005588,0.562,0.844,0.039,0.854,-0.427,0.0,1
0.014829,0.562,0.844,0.034,1.586,-0.427,-0.122,1
0.021586,0.561,0.843,0.033,1.892,-0.305,0.061,1
0.028347,0.563,0.842,0.031,1.77,0.305,-0.183,1
0.036538,0.565,0.843,0.028,1.159,0.183,-0.244,1
0.043929,0.566,0.837,0.024,0.915,0.244,-0.244,1
0.050685,0.562,0.841,0.027,0.854,0.244,-0.305,1
0.058443,0.562,0.835,0.022,0.915,0.305,-0.366,1
0.065904,0.561,0.837,0.019,0.976,0.427,-0.305,1
0.072429,0.557,0.832,0.018,1.159,0.122,-0.366,1
0.080416,0.56,0.828,0.016,1.159,0.183,-0.244,1
0.08859,0.563,0.825,0.017,1.037,0.0,0.0,1
0.095406,0.563,0.822,0.018,1.159,0.122,0.061,1
0.104363,0.562,0.821,0.012,1.159,0.366,0.0,1
0.11074,0.56,0.821,0.018,1.953,0.061,0.305,1
0.118085,0.562,0.819,0.013,2.258,-0.061,0.305,1
0.126227,0.566,0.819,0.017,2.563,-0.183,0.427,1
0.133399,0.56,0.813,0.016,2.319,-0.061,0.549,1
0.142469,0.56,0.813,0.017,1.77,0.183,0.61,1
0.149177,0.563,0.817,0.014,0.976,0.183,0.915,1
0.155724,0.562,0.818,0.013,0.671,-0.061,0.732,1
0.162755,0.563,0.825,0.013,1.22,0.061,1.22,1
0.17138,0.564,0.822,0.01,1.525,-0.061,1.037,1
0.178841,0.566,0.817,0.011,1.525,-0.244,1.281,1
0.186603,0.562,0.825,0.015,1.831,-0.061,1.22,1
0.194233,0.563,0.826,0.014,2.624,-0.427,1.403,1
0.201671,0.565,0.831,0.014,3.234,-0.427,1.403,1
0.210589,0.571,0.835,0.014,3.723,-0.366,1.708,1
0.217524,0.564,0.837,0.016,3.662,-0.671,1.647,1
0.225402,0.564,0.835,0.019,3.234,-0.549,1.586,1
0.234609,0.563,0.839,0.019,2.746,-0.732,1.586,1
0.241005,0.565,0.842,0.02,2.441,-0.366,1.708,1
0.248713,0.56,0.844,0.018,1.77,-0.305,1.586,1
0.256515,0.562,0.849,0.025,1.586,-0.305,1.281,1
0.265598,0.557,0.847,0.024,1.342,-0.488,1.464,1
0.272342,0.56,0.844,0.022,1.098,-0.427,1.464,1
0.281326,0.56,0.848,0.022,0.854,-0.427,1.159,1
0.287629,0.563,0.849,0.026,0.793,-0.305,1.159,1
0.296969,0.56,0.851,0.027,1.037,-0.427,1.159,1
0.304085,0.563,0.851,0.03,1.403,-0.427,1.037,1
0.311818,0.563,0.854,0.03,1.22,-0.183,1.281,1
0.319459,0.56,0.856,0.032,0.61,-0.244,1.159,1
0.328159,0.566,0.856,0.032,0.61,-0.183,1.098,1
0.335373,0.563,0.859,0.032,0.061,0.061,0.915,1
0.343952,0.563,0.859,0.032,0.061,0.122,0.732,1
0.351719,0.565,0.862,0.031,0.183,0.183,0.549,1
0.358936,0.562,0.86,0.03,-0.061,0.244,0.427,1
0.366333,0.56,0.861,0.029,-0.549,0.244,0.183,1
0.374001,0.56,0.86,0.033,-0.427,0.244,0.183,1
0.381401,0.559,0.861,0.035,0.366,0.305,-0.061,1
0.389969,0.564,0.856,0.027,0.732,0.244,-0.366,1
0.398147,0.562,0.852,0.033,0.427,0.366,-0.244,1
0.405721,0.558,0.85,0.037,0.061,0.488,-0.244,1
0.412891,0.559,0.853,0.038,0.0,0.732,-0.183,1
0.422005,0.559,0.856,0.036,-0.427,0.549,-0.488,1
0.429687,0.564,0.848,0.033,-0.732,0.854,-0.427,1
0.43845,0.562,0.853,0.032,-0.732,1.037,-0.366,1
0.445736,0.562,0.851,0.031,-0.671,0.854,-0.61,1
0.45415,0.562,0.854,0.028,-0.183,0.915,-0.61,1
0.461937,0.561,0.853,0.029,0.061,0.854,-0.671,1
0.468911,0.557,0.85,0.026,0.122,0.976,-0.976,1
0.476582,0.557,0.846,0.029,0.183,1.098,-0.915,1
0.485261,0.558,0.836,0.025,0.305,1.098,-0.976,1
0.492595,0.556,0.837,0.021,-0.061,0.915,-0.915,1
0.501465,0.554,0.839,0.021,0.183,0.915,-0.854,1
0.508522,0.557,0.84,0.024,0.183,0.976,-1.037,1
0.515851,0.559,0.835,0.022,-0.549,0.976,-0.732,1
0.525097,0.559,0.834,0.02,-1.159,1.098,-0.671,1
0.531964,0.562,0.835,0.018,-0.915,1.159,-0.549,1
0.539557,0.561,0.836,0.017,-0.305,1.037,-0.61,1
0.54876,0.562,0.836,0.013,0.061,0.976,-0.549,1
0.555199,0.562,0.837,0.015,0.366,1.098,-0.671,1
0.564207,0.559,0.831,0.012,0.061,0.976,-0.488,1
0.571754,0.557,0.834,0.013,-0.183,0.793,-0.549,1
0.580056,0.552,0.835,0.013,-0.061,0.671,-0.305,1
0.587096,0.562,0.833,0.013,-0.366,0.366,-0.244,1
0.595789,0.561,0.833,0.017,-0.976,0.671,-0.427,1
0.603889,0.562,0.833,0.016,-1.098,0.488,-0.305,1
0.61161,0.565,0.836,0.011,-0.549,0.488,-0.244,1
0.618398,0.564,0.837,0.016,-0.122,0.488,-0.366,1
0.626586,0.561,0.834,0.015,0.915,0.244,-0.305,1
0.63406,0.562,0.833,0.016,1.342,0.183,-0.244,1
0.640857,0.557,0.836,0.013,1.464,0.183,-0.427,1
0.648725,0.554,0.835,0.014,1.342,0.549,0.0,1
0.6558,0.559,0.833,0.011,1.708,0.0,-0.183,1
0.663854,0.562,0.832,0.012,1.525,-0.122,-0.183,1
0.671604,0.562,0.835,0.012,1.403,0.061,-0.122,1
0.679924,0.562,0.834,0.012,2.075,-0.183,0.366,1
0.688675,0.562,0.836,0.014,2.014,-0.366,0.183,1
0.69633,0.557,0.839,0.017,2.319,-0.183,0.122,1
0.704078,0.558,0.841,0.019,2.441,-0.366,0.244,1
0.711444,0.565,0.84,0.02,1.342,-0.244,0.0,1
0.718852,0.559,0.843,0.019,1.22,-0.122,0.0,1
0.726959,0.562,0.844,0.019,1.525,-0.183,0.0,1
0.735749,0.562,0.844,0.022,1.464,-0.122,0.0,1
0.742797,0.564,0.839,0.025,1.77,-0.122,-0.183,1
0.752547,0.561,0.839,0.029,2.014,-0.366,-0.061,1
0.759532,0.564,0.841,0.024,1.647,-0.183,0.183,1
0.766696,0.563,0.836,0.029,1.403,-0.183,0.244,1
0.775872,0.561,0.84,0.025,0.915,-0.244,0.427,1
0.782279,0.562,0.839,0.029,0.122,-0.061,0.305,1
0.791202,0.561,0.843,0.03,0.122,0.061,0.244,1
0.798013,0.565,0.841,0.029,0.366,-0.122,0.305,1
0.805423,0.563,0.845,0.035,0.61,-0.061,0.122,1
0.814909,0.56,0.847,0.033,0.976,-0.061,-0.061,1
0.822452,0.561,0.85,0.031,0.732,0.305,-0.061,1
0.828928,0.565,0.846,0.032,0.488,0.488,-0.061,1
0.837603,0.559,0.845,0.03,0.366,0.366,-0.061,1
0.844302,0.561,0.851,0.033,0.793,0.488,-0.183,1
0.853287,0.559,0.851,0.035,1.22,0.061,-0.183,1
0.860372,0.557,0.848,0.033,1.159,0.488,-0.244,1
0.867928,0.557,0.845,0.033,1.098,0.427,-0.183,1
0.876957,0.558,0.847,0.032,0.671,0.854,0.0,1
0.884263,0.556,0.843,0.034,0.854,0.549,-0.427,1
0.892491,0.561,0.851,0.033,1.464,0.793,-0.244,1
0.899825,0.559,0.849,0.033,2.319,0.793,0.0,1
0.906604,0.562,0.851,0.033,2.99,0.671,-0.61,1
0.915985,0.565,0.853,0.031,3.967,0.61,-0.366,1
0.923078,0.556,0.851,0.034,4.394,0.732,-0.549,1
0.930292,0.557,0.849,0.022,3.906,0.61,-0.671,1
0.93791,0.556,0.848,0.025,3.173,0.793,-0.732,1
0.947186,0.558,0.844,0.022,3.051,0.732,-0.793,1
0.953997,0.56,0.841,0.023,2.441,0.732,-0.976,1
0.961423,0.557,0.839,0.02,2.014,0.793,-0.915,1
0.970349,0.557,0.84,0.019,1.403,1.037,-0.854,1
0.978479,0.568,0.837,0.017,0.793,0.61,-0.854,1
0.986395,0.56,0.84,0.016,-0.183,0.915,-0.732,1
0.994136,0.564,0.838,0.016,-1.037,1.098,-0.671,1
1.000799,0.569,0.838,0.015,-1.403,0.915,-0.671,1
1.008779,0.575,0.842,0.009,-1.647,0.732,-0.61,1
1.01695,0.569,0.84,0.004,-2.502,0.732,-0.671,1
1.025719,0.568,0.838,0.009,-2.929,0.732,-0.732,1
1.032883,0.563,0.833,0.009,-2.441,0.305,-0.671,1
1.03986,0.562,0.836,0.012,-2.197,0.366,-0.549,1
1.048351,0.563,0.839,0.014,-1.708,0.122,-0.793,1
1.055664,0.553,0.843,0.017,-0.305,-0.061,-0.732,1
1.063628,0.554,0.838,0.018,0.061,-0.183,-0.732,1
1.071495,0.559,0.842,0.016,-0.61,0.061,-0.976,1
1.080117,0.56,0.839,0.021,-1.22,-0.122,-0.793,1
1.088502,0.562,0.84,0.017,-1.281,-0.122,-0.732,1
1.095738,0.558,0.841,0.022,-0.976,-0.122,-0.671,1
1.103672,0.562,0.833,0.02,-0.732,-0.122,-0.671,1
1.113714,0.555,0.826,0.023,-0.915,-0.061,-0.732,1
1.120553,0.555,0.833,0.02,-0.671,0.061,-0.61,1
1.129788,0.554,0.834,0.028,-0.244,-0.061,-0.488,1
1.135416,0.559,0.829,0.023,0.427,-0.122,-0.549,1
1.143941,0.559,0.831,0.023,0.183,-0.122,-0.244,1
1.151434,0.562,0.826,0.023,-0.671,0.0,-0.244,1
1.160649,0.562,0.829,0.022,-1.098,0.183,-0.244,1
1.168441,0.564,0.827,0.027,-0.793,-0.122,0.061,1
1.175972,0.564,0.825,0.03,-0.61,-0.183,0.061,1
1.184168,0.562,0.826,0.028,-0.122,-0.244,0.183,1
1.191602,0.562,0.825,0.029,0.244,0.0,-0.061,1
1.199357,0.558,0.822,0.029,0.427,-0.305,0.122,1
1.208536,0.561,0.822,0.034,0.305,-0.122,0.183,1
1.215205,0.561,0.822,0.034,0.305,0.061,0.61,1
1.222927,0.562,0.824,0.038,0.061,0.0,0.427,1
1.230443,0.561,0.826,0.033,-0.061,0.427,0.549,1
1.238366,0.561,0.833,0.035,0.0,0.305,0.61,1
1.247837,0.559,0.834,0.034,0.0,0.427,0.854,1
1.255662,0.561,0.838,0.031,0.366,0.427,0.61,1
1.262412,0.564,0.836,0.031,0.427,0.244,0.61,1
1.270058,0.559,0.837,0.036,0.732,0.61,0.793,1
1.277732,0.561,0.834,0.035,0.732,0.61,0.732,1
1.285027,0.559,0.839,0.036,0.488,0.854,0.854,1
1.294033,0.559,0.833,0.036,-0.244,1.098,0.793,1
1.302254,0.562,0.833,0.04,-0.549,1.037,0.854,1
1.309026,0.561,0.833,0.038,-0.427,1.159,0.854,1
1.317244,0.562,0.833,0.035,-0.305,1.037,1.037,1
1.324072,0.561,0.834,0.034,-0.427,1.281,1.159,1
1.332158,0.562,0.836,0.028,-0.671,1.464,0.793,1
1.338411,0.558,0.838,0.032,-0.183,1.647,0.793,1
1.345975,0.562,0.838,0.024,0.061,1.708,1.037,1
1.353064,0.559,0.838,0.026,0.0,1.525,0.976,1
1.360343,0.557,0.841,0.027,-0.122,1.525,1.281,1
1.368965,0.558,0.843,0.025,-0.427,1.708,1.098,1
1.377415,0.561,0.844,0.025,-0.61,1.647,0.915,1
1.384091,0.562,0.842,0.027,-0.61,1.708,0.915,1
1.391987,0.559,0.84,0.022,-0.549,1.892,0.915,1
1.400586,0.557,0.845,0.02,-0.305,1.708,0.976,1
1.40773,0.558,0.843,0.011,-0.366,1.647,0.915,1
1.416719,0.555,0.842,0.017,-0.61,1.708,0.915,1
1.424239,0.562,0.843,0.011,-0.366,1.586,0.915,1
1.432155,0.562,0.84,0.012,-0.244,1.525,0.854,1
1.439781,0.561,0.84,0.007,-0.061,1.647,0.976,1
1.44694,0.563,0.844,0.006,-0.366,1.403,0.732,1
1.456057,0.559,0.845,0.01,-0.366,1.159,0.854,1
1.463435,0.562,0.843,0.009,0.0,0.976,0.915,1
1.471447,0.558,0.84,0.009,0.61,0.915,0.854,1
1.478306,0.553,0.841,0.012,0.671,0.976,0.671,1
1.484617,0.558,0.839,0.011,0.305,0.976,0.915,1
1.492815,0.561,0.844,0.016,0.061,0.976,0.915,1
1.501702,0.555,0.841,0.011,0.305,0.793,0.732,1
1.508922,0.556,0.844,0.011,0.244,0.854,0.732,1
1.516893,0.554,0.844,0.011,0.0,0.732,0.732,1
1.524305,0.552,0.84,0.006,-0.549,0.793,0.976,1
1.53279,0.554,0.842,0.003,-0.671,0.671,0.793,1
1.540017,0.551,0.841,0.007,-1.159,0.732,0.732,1
1.548114,0.56,0.843,0.002,-1.037,0.732,0.915,1
1.555748,0.562,0.844,0.004,-0.366,0.549,0.793,1
1.563724,0.559,0.842,0.003,-0.061,0.366,0.671,1
1.571211,0.556,0.843,0.003,0.244,0.366,0.976,1
1.579225,0.559,0.843,0.005,0.793,0.061,0.732,1
1.587369,0.562,0.843,0.006,1.037,0.0,0.793,1
1.593939,0.568,0.838,0.013,1.159,0.0,0.793,1
1.60234,0.569,0.838,0.02,1.342,-0.183,0.732,1
1.609109,0.559,0.836,0.027,1.647,-0.244,0.549,1
1.61705,0.563,0.824,0.039,1.831,-0.366,0.671,1
1.625278,0.56,0.817,0.046,1.525,-0.488,0.61,1
1.632933,0.558,0.816,0.059,1.159,-0.427,0.671,1
1.641657,0.565,0.807,0.079,1.892,-0.061,1.159,1
1.648525,0.575,0.796,0.091,2.99,0.549,1.403,1
1.657109,0.562,0.791,0.104,4.028,0.915,1.953,1
1.664049,0.548,0.798,0.121,5.371,1.953,2.624,1
1.671451,0.54,0.795,0.119,7.08,2.624,2.929,1
1.679712,0.533,0.792,0.11,7.995,3.479,3.479,1
1.687533,0.523,0.804,0.104,9.216,4.272,4.15,1
1.694578,0.524,0.767,0.081,1.525,5.187,6.347,1
1.703907,0.509,0.853,0.087,0.305,6.713,5.615,1
1.711241,0.521,0.861,0.061,4.943,6.652,4.516,1
1.718166,0.524,0.848,0.055,10.559,5.737,3.845,1
1.726884,0.52,0.838,0.036,13.427,5.554,3.662,1
1.734061,0.541,0.817,0.021,8.605,5.92,3.967,1
1.741045,0.548,0.822,0.013,2.441,6.408,3.906,1
1.750331,0.55,0.832,0.008,-1.098,6.591,4.089,1
1.757253,0.559,0.834,0.003,-1.647,6.408,4.272,1
1.764797,0.564,0.839,0.0,-1.708,6.225,4.455,1
1.773874,0.569,0.844,-0.006,-1.403,6.042,4.577,1
1.780877,0.567,0.849,-0.018,-1.22,5.615,4.76,1
1.789685,0.566,0.852,-0.023,-1.586,5.31,4.638,1
1.797027,0.565,0.858,-0.025,-1.403,4.943,4.699,1
1.805617,0.563,0.856,-0.027,-0.976,4.577,4.15,1
1.81307,0.554,0.861,-0.035,-1.403,4.333,4.272,1
1.821185,0.548,0.864,-0.037,-1.281,3.967,4.394,1
1.828858,0.541,0.866,-0.039,-0.915,3.601,4.028,1
1.837997,0.541,0.875,-0.04,-0.915,3.112,4.028,1
1.845901,0.54,0.871,-0.04,-1.159,2.807,3.54,1
1.854311,0.54,0.868,-0.045,-1.037,2.441,3.356,1
1.861607,0.541,0.866,-0.041,-1.037,2.075,3.234,1
1.868871,0.542,0.866,-0.04,-0.976,1.647,3.417,1
1.877054,0.541,0.866,-0.039,-0.61,1.525,3.234,1
1.884554,0.543,0.868,-0.035,-0.488,1.098,3.112,1
1.893704,0.547,0.868,-0.037,-0.976,0.854,3.051,1
1.900839,0.541,0.868,-0.036,-1.281,0.671,2.807,1
1.909885,0.54,0.875,-0.034,-1.281,0.366,2.624,1
1.916897,0.541,0.877,-0.028,-0.793,0.0,2.685,1
1.925356,0.54,0.884,-0.024,-0.549,-0.183,2.38,1
1.932772,0.535,0.882,-0.023,-0.732,-0.244,2.258,1
1.941188,0.543,0.892,-0.021,-2.014,-0.366,2.014,1
1.948423,0.539,0.897,-0.021,-2.746,-0.549,1.647,1
1.956352,0.536,0.895,-0.024,-4.089,-0.61,1.586,1
1.964395,0.542,0.899,-0.024,-5.615,-0.366,1.525,1
1.972925,0.544,0.9,-0.029,-6.774,-0.61,0.976,1
1.97986,0.54,0.902,-0.038,-7.69,-0.671,0.915,1
1.988539,0.543,0.903,-0.043,-7.568,-1.159,0.61,1
1.996171,0.539,0.903,-0.048,-6.164,-1.403,0.305,1
2.005345,0.531,0.901,-0.053,-5.493,-1.831,0.061,1
2.013013,0.53,0.902,-0.06,-5.493,-2.014,-0.366,1
2.021714,0.522,0.899,-0.066,-6.225,-2.441,-0.61,1
2.0288,0.526,0.892,-0.066,-7.324,-2.563,-0.915,1
2.037509,0.527,0.889,-0.078,-8.666,-2.746,-0.915,1
2.045894,0.528,0.886,-0.088,-11.352,-2.563,-1.037,1
2.05313,0.521,0.886,-0.099,-13.427,-2.807,-1.098,1
2.060573,0.521,0.886,-0.112,-15.563,-2.746,-1.281,1
2.070018,0.523,0.888,-0.125,-17.211,-2.868,-1.403,1
2.077994,0.513,0.892,-0.141,-18.493,-3.234,-1.708,1
2.086115,0.511,0.893,-0.166,-20.568,-3.906,-1.708,1
2.092852,0.514,0.895,-0.18,-22.216,-4.028,-2.014,1
2.10139,0.507,0.898,-0.206,-23.803,-4.394,-2.197,1
2.109865,0.503,0.902,-0.231,-25.085,-5.065,-2.136,1
2.118494,0.497,0.909,-0.262,-26.489,-5.798,-2.685,1
2.126329,0.501,0.918,-0.305,-27.832,-7.019,-2.929,1
2.135037,0.503,0.927,-0.335,-27.587,-8.361,-3.295,1
2.143497,0.503,0.944,-0.374,-26.916,-9.704,-3.295,1
2.150617,0.489,0.962,-0.424,-26.428,-11.474,-3.784,1
2.159304,0.483,0.979,-0.469,-28.015,-13.549,-4.455,1
2.166355,0.466,0.998,-0.514,-29.968,-15.441,-5.065,1
2.173701,0.456,1.01,-0.569,-31.494,-18.31,-5.981,1
2.182341,0.455,1.024,-0.618,-33.142,-21.179,-6.896,1
2.190402,0.45,1.038,-0.677,-34.912,-24.78,-7.873,1
2.199458,0.441,1.046,-0.732,-37.17,-28.32,-9.155,1
2.208006,0.433,1.064,-0.803,-40.71,-32.592,-10.192,1
2.216537,0.437,1.083,-0.858,-42.175,-37.414,-11.291,1
2.223441,0.433,1.092,-0.907,-41.442,-43.762,-12.756,1
2.232865,0.442,1.094,-0.941,-41.198,-49.438,-13.61,1
2.241244,0.447,1.104,-0.968,-40.588,-56.518,-14.953,1
2.248398,0.445,1.107,-0.971,-39.184,-62.805,-15.686,1
2.257481,0.439,1.11,-0.981,-40.039,-70.007,-16.784,1
2.264747,0.435,1.113,-0.984,-41.687,-76.232,-17.7,1
2.272813,0.435,1.109,-0.973,-40.1,-83.801,-18.981,1
2.282067,0.441,1.1,-0.951,-36.987,-90.209,-20.446,1
2.289449,0.427,1.078,-0.91,-33.752,-97.778,-21.362,1
2.298497,0.411,1.068,-0.845,-33.02,-103.576,-22.094,1
2.306006,0.4,1.07,-0.784,-33.081,-109.558,-23.254,1
2.315308,0.374,1.078,-0.702,-31.249,-115.051,-24.353,1
2.32317,0.352,1.09,-0.632,-29.235,-119.262,-25.573,1
2.331492,0.323,1.093,-0.552,-28.991,-123.596,-26.855,1
2.339252,0.3,1.092,-0.483,-30.761,-125.976,-28.198,1
2.348682,0.259,1.094,-0.41,-32.653,-129.028,-29.602,1
2.355774,0.245,1.095,-0.338,-32.775,-131.103,-30.944,1
2.363452,0.221,1.088,-0.269,-32.226,-132.934,-32.348,1
2.371602,0.201,1.084,-0.208,-31.616,-134.155,-33.63,1
2.380172,0.178,1.081,-0.162,-31.494,-135.192,-34.484,1
2.388576,0.155,1.083,-0.12,-32.531,-135.62,-35.4,1
2.396206,0.143,1.082,-0.074,-34.423,-136.047,-36.865,1
2.404221,0.138,1.08,-0.044,-34.362,-136.596,-37.597,1
2.411428,0.134,1.064,0.002,-33.447,-136.84,-38.574,1
2.420605,0.131,1.053,0.025,-32.104,-136.779,-39.733,1
2.428185,0.125,1.032,0.046,-31.738,-136.84,-40.527,1
2.435737,0.116,1.014,0.062,-32.653,-136.84,-41.503,1
2.444644,0.128,0.977,0.078,-35.522,-136.84,-42.419,1
2.451641,0.147,0.947,0.086,-38.94,-136.535,-42.907,1
2.460856,0.145,0.92,0.112,-40.832,-136.779,-42.846,1
2.46779,0.152,0.914,0.143,-39.123,-136.23,-42.358,1
2.475351,0.145,0.909,0.155,-39.733,-136.413,-42.358,1
2.484148,0.151,0.91,0.175,-40.527,-136.047,-42.114,1
2.492925,0.159,0.897,0.2,-41.503,-135.925,-41.748,1
2.500247,0.165,0.885,0.229,-43.09,-135.131,-41.931,1
2.509578,0.171,0.874,0.253,-43.823,-134.887,-41.931,1
2.51799,0.183,0.872,0.269,-43.212,-134.216,-41.564,1
2.524865,0.187,0.869,0.289,-41.32,-134.155,-41.625,1
2.532751,0.193,0.862,0.305,-38.085,-134.094,-41.625,1
2.541807,0.199,0.849,0.341,-34.851,-133.728,-41.503,1
2.549474,0.204,0.839,0.378,-33.325,-133.056,-41.687,1
2.557639,0.205,0.822,0.409,-34.606,-131.469,-41.687,1
2.565395,0.201,0.819,0.431,-36.437,-129.821,-41.87,1
2.574742,0.197,0.804,0.454,-37.902,-128.784,-41.748,1
2.581662,0.219,0.784,0.475,-39.306,-127.075,-41.809,1
2.590966,0.241,0.751,0.495,-41.198,-125.488,-41.198,1
2.598026,0.249,0.75,0.5,-42.297,-123.657,-40.527,1
2.607289,0.252,0.743,0.513,-41.687,-122.375,-39.794,1
2.614237,0.258,0.743,0.512,-39.794,-120.788,-39.062,1
2.623515,0.266,0.74,0.516,-39.306,-119.812,-38.574,1
2.630266,0.279,0.746,0.512,-38.452,-118.774,-37.841,1
2.6388,0.283,0.759,0.514,-37.475,-117.98,-37.292,1
2.646665,0.285,0.771,0.521,-36.193,-117.492,-37.109,1
2.655669,0.301,0.784,0.539,-33.691,-117.126,-37.231,1
2.661855,0.308,0.782,0.578,-31.249,-116.21,-37.292,1
2.671099,0.304,0.786,0.608,-31.249,-114.929,-37.475,1
2.678448,0.306,0.79,0.646,-32.897,-113.342,-37.475,1
2.686313,0.317,0.79,0.677,-33.752,-111.511,-37.902,1
2.69442,0.328,0.784,0.707,-32.775,-109.924,-37.902,1
2.702645,0.342,0.779,0.727,-31.433,-108.215,-38.085,1
2.710206,0.355,0.767,0.752,-30.7,-105.834,-38.33,1
2.719336,0.368,0.764,0.765,-29.907,-104.064,-38.635,1
2.727286,0.375,0.753,0.792,-27.832,-102.172,-38.94,1
2.735086,0.391,0.734,0.815,-25.695,-100.097,-39.306,1
2.742956,0.401,0.719,0.85,-24.902,-98.205,-39.367,1
2.750536,0.405,0.69,0.886,-25.634,-95.214,-39.123,1
2.75958,0.409,0.668,0.906,-26.062,-92.468,-38.818,1
2.767727,0.415,0.652,0.929,-26.184,-89.843,-38.391,1
2.774537,0.417,0.638,0.948,-24.902,-86.364,-37.78,1
2.783765,0.428,0.622,0.958,-24.108,-83.801,-37.292,1
2.790872,0.426,0.618,0.985,-22.888,-80.871,-36.376,1
2.800136,0.435,0.604,1.009,-20.812,-77.209,-35.4,1
2.807399,0.433,0.583,1.024,-20.874,-73.791,-34.729,1
2.815462,0.44,0.569,1.041,-21.301,-70.007,-33.63,1
2.824408,0.442,0.551,1.054,-22.094,-65.795,-32.714,1
2.831825,0.448,0.538,1.066,-22.705,-62.316,-31.433,1
2.84029,0.472,0.52,1.071,-22.644,-58.166,-30.151,1
2.84736,0.485,0.5,1.072,-21.667,-54.504,-29.113,1
2.855141,0.491,0.485,1.069,-20.507,-50.781,-27.282,1
2.862981,0.504,0.472,1.072,-18.92,-46.874,-25.939,1
2.871447,0.519,0.461,1.064,-17.028,-43.151,-24.291,1
2.880496,0.52,0.458,1.046,-15.624,-39.672,-22.888,1
2.88762,0.534,0.46,1.031,-13.244,-36.254,-21.24,1
2.895012,0.541,0.453,1.017,-11.84,-33.264,-20.019,1
2.904014,0.549,0.444,1.009,-10.681,-30.151,-18.615,1
2.911807,0.547,0.441,0.998,-10.864,-26.306,-16.479,1
2.91967,0.553,0.441,0.99,-10.925,-23.376,-15.136,1
2.92804,0.559,0.447,0.974,-10.559,-20.385,-13.366,1
2.935357,0.562,0.456,0.951,-10.314,-17.211,-11.84,1
2.943081,0.565,0.459,0.927,-10.559,-13.977,-10.253,1
2.951922,0.571,0.47,0.902,-10.437,-11.23,-9.033,1
2.959903,0.579,0.479,0.871,-10.375,-8.789,-7.812,1
2.967504,0.577,0.495,0.835,-9.277,-6.591,-6.103,1
2.975838,0.583,0.503,0.811,-7.507,-5.065,-5.371,1
2.983293,0.592,0.507,0.781,-5.493,-3.295,-4.76,1
2.9919,0.592,0.508,0.75,-4.76,-1.77,-3.295,1
2.99961,0.595,0.515,0.726,-4.821,0.061,-2.441,1
3.006338,0.593,0.528,0.698,-4.333,1.037,-1.525,1
3.014676,0.6,0.544,0.674,-3.051,2.685,-0.976,1
3.023274,0.605,0.551,0.653,-2.38,3.845,0.122,1
3.030359,0.612,0.56,0.633,-2.319,5.004,0.671,1
3.039688,0.612,0.568,0.614,-2.563,6.042,1.403,1
3.046171,0.618,0.586,0.597,-2.502,6.958,1.77,1
3.052682,0.625,0.601,0.582,-1.586,7.507,2.197,1
3.06072,0.617,0.611,0.562,-0.854,8.056,2.075,1
3.068977,0.621,0.615,0.543,-1.403,8.666,2.624,1
3.076848,0.619,0.619,0.528,-2.441,9.582,2.868,1
3.085467,0.621,0.63,0.513,-2.868,10.07,3.051,1
3.092701,0.616,0.644,0.488,-1.831,10.681,3.356,1
3.1008,0.627,0.661,0.471,-0.061,10.864,3.845,1
3.108202,0.628,0.678,0.452,2.38,10.864,3.967,1
3.11624,0.625,0.695,0.42,4.821,10.803,4.089,1
3.122932,0.628,0.72,0.391,7.08,10.437,4.15,1
3.131182,0.633,0.735,0.363,8.239,9.765,3.906,1
3.138352,0.629,0.757,0.343,8.239,9.399,2.99,1
3.145917,0.627,0.767,0.326,5.615,8.728,2.136,1
3.154564,0.625,0.774,0.32,2.807,7.751,1.281,1
3.16042,0.625,0.768,0.313,0.732,6.958,0.244,1
3.169925,0.626,0.761,0.307,0.183,6.225,-0.427,1
3.175968,0.632,0.751,0.303,-0.549,5.004,-1.403,1
3.1844,0.626,0.734,0.31,-0.488,4.089,-2.136,1
3.192011,0.626,0.729,0.309,0.061,3.112,-2.563,1
3.198721,0.621,0.721,0.314,0.854,2.502,-2.746,1
3.206593,0.619,0.708,0.313,0.915,1.77,-2.99,1
3.21473,0.623,0.705,0.306,0.915,1.22,-3.295,1
3.222671,0.627,0.704,0.305,2.38,-0.122,-3.295,1
3.231092,0.631,0.692,0.307,4.577,-1.342,-3.356,1
3.237967,0.625,0.682,0.311,5.676,-2.014,-3.662,1
3.245483,0.622,0.676,0.326,5.615,-2.807,-3.906,1
3.254463,0.617,0.673,0.335,4.882,-3.601,-3.54,1
3.26161,0.615,0.674,0.354,3.845,-4.028,-3.417,1
3.270345,0.614,0.669,0.371,3.173,-4.577,-3.54,1
3.277223,0.605,0.664,0.381,2.38,-4.76,-3.234,1
3.284719,0.604,0.659,0.402,1.525,-4.76,-3.417,1
3.293751,0.606,0.651,0.423,0.732,-4.821,-3.356,1
3.301571,0.61,0.642,0.429,0.61,-4.943,-3.112,1
3.308918,0.622,0.635,0.438,0.305,-4.699,-2.929,1
3.316955,0.625,0.625,0.445,0.366,-4.516,-2.563,1
3.324196,0.634,0.623,0.447,1.281,-4.638,-2.441,1
3.333332,0.638,0.618,0.455,2.38,-4.76,-1.953,1
3.340253,0.642,0.615,0.468,2.685,-4.577,-1.831,1
3.348707,0.642,0.614,0.473,2.929,-4.577,-1.708,1
3.355684,0.648,0.608,0.487,2.868,-4.333,-1.403,1
3.364353,0.645,0.615,0.495,2.807,-4.028,-1.098,1
3.371708,0.643,0.618,0.503,3.112,-3.906,-0.976,1
3.381364,0.643,0.617,0.509,3.417,-3.601,-0.732,1
3.388255,0.64,0.618,0.512,2.441,-2.868,-0.488,1
3.395813,0.642,0.62,0.513,1.159,-2.258,-0.244,1
3.404397,0.637,0.627,0.504,1.098,-1.525,-0.061,1
3.411962,0.631,0.64,0.496,2.075,-1.281,0.061,1
3.420888,0.629,0.643,0.489,2.441,-1.22,0.122,1
3.428045,0.622,0.654,0.485,2.258,-1.281,0.183,1
3.435691,0.618,0.651,0.485,1.525,-1.037,0.305,1
3.443256,0.62,0.656,0.487,0.915,-0.793,0.366,1
3.452141,0.621,0.658,0.483,0.366,-0.61,0.122,1
3.459295,0.621,0.659,0.48,0.305,-0.366,0.061,1
3.466419,0.628,0.655,0.474,0.427,-0.366,0.183,1
3.473938,0.634,0.654,0.466,1.22,-0.427,0.0,1
3.482695,0.634,0.657,0.458,1.708,-0.305,0.183,1
3.488891,0.631,0.664,0.455,2.075,-0.549,0.061,1
3.497864,0.63,0.67,0.455,2.929,-0.549,-0.061,1
3.504672,0.622,0.675,0.454,3.723,-0.671,0.183,1
3.51325,0.618,0.681,0.452,4.089,-0.915,0.183,1
3.520072,0.616,0.69,0.458,4.028,-0.976,0.0,1
3.52901,0.609,0.699,0.46,3.54,-0.854,0.0,1
3.535895,0.604,0.709,0.461,2.746,-0.915,-0.427,1
3.544577,0.604,0.713,0.467,2.014,-0.671,-0.793,1
3.552386,0.616,0.708,0.473,1.159,-0.854,-1.159,1
3.559429,0.621,0.704,0.474,0.061,-0.976,-1.525,1
3.566679,0.626,0.697,0.475,-0.671,-0.732,-2.136,1
3.575674,0.629,0.691,0.482,-0.244,-0.854,-2.197,1
3.583908,0.633,0.68,0.479,0.549,-0.976,-2.624,1
3.593147,0.64,0.672,0.485,1.037,-0.793,-2.929,1
3.600838,0.639,0.661,0.49,1.831,-0.793,-3.051,1
3.608342,0.635,0.658,0.493,2.136,-0.488,-3.112,1
3.61754,0.638,0.651,0.499,2.136,-0.366,-3.051,1
3.625117,0.634,0.645,0.496,1.464,-0.122,-3.112,1
3.631923,0.636,0.643,0.489,0.976,0.244,-3.112,1
3.639795,0.642,0.636,0.49,0.915,0.366,-3.051,1
3.647616,0.636,0.63,0.486,1.159,0.61,-3.051,1
3.655701,0.637,0.625,0.48,1.281,1.098,-2.929,1
3.664112,0.637,0.623,0.472,1.22,1.098,-2.685,1
3.671511,0.64,0.617,0.468,0.732,1.22,-2.441,1
3.679751,0.636,0.621,0.467,0.732,1.403,-2.319,1
3.687339,0.631,0.63,0.458,0.671,1.647,-1.953,1
3.694374,0.626,0.63,0.449,-0.366,1.586,-1.708,1
3.702597,0.629,0.638,0.437,-1.037,1.708,-1.892,1
3.71094,0.632,0.63,0.434,-0.854,1.464,-1.831,1
3.717734,0.633,0.626,0.429,-0.671,1.342,-1.953,1
3.727182,0.634,0.624,0.43,-0.427,1.098,-1.586,1
3.732884,0.633,0.62,0.431,0.244,0.732,-1.403,1
3.741733,0.625,0.624,0.431,1.525,0.427,-0.976,1
3.748829,0.621,0.62,0.432,2.258,0.488,-0.915,1
3.757564,0.626,0.625,0.427,2.319,0.122,-0.427,1
3.764701,0.628,0.625,0.427,2.258,0.183,-0.366,1
3.773499,0.627,0.623,0.423,1.525,0.0,-0.244,1
3.781497,0.632,0.627,0.417,0.366,0.0,0.122,1
3.788448,0.628,0.638,0.419,0.122,-0.122,-0.183,1
3.79605,0.634,0.639,0.417,0.488,-0.488,0.0,1
3.804784,0.63,0.644,0.416,1.037,-0.854,-0.061,1
3.812312,0.633,0.638,0.415,0.183,-1.098,0.0,1
3.820873,0.63,0.639,0.416,-0.549,-1.403,0.061,1
3.828276,0.629,0.635,0.42,-0.671,-1.647,0.061,1
3.836993,0.632,0.635,0.427,-0.427,-1.892,0.305,1
3.843945,0.633,0.635,0.432,-0.671,-1.953,0.427,1
3.851852,0.636,0.641,0.433,-0.854,-1.77,0.488,1
3.861131,0.635,0.65,0.433,-0.976,-2.136,0.549,1
3.869869,0.636,0.659,0.435,-0.427,-2.319,0.549,1
3.877725,0.635,0.66,0.432,-0.122,-2.624,0.549,1
3.884757,0.626,0.669,0.441,-0.061,-3.112,0.427,1
3.893636,0.627,0.669,0.455,-0.366,-3.234,0.0,1
3.901124,0.627,0.665,0.464,-0.671,-3.417,-0.244,1
3.909598,0.626,0.668,0.478,-0.854,-3.356,-0.366,1
3.916597,0.63,0.67,0.482,-0.732,-3.112,-0.427,1
3.924307,0.631,0.664,0.488,-0.549,-2.868,-0.549,1
3.932959,0.633,0.666,0.486,-0.488,-2.502,-0.793,1
3.941041,0.639,0.664,0.487,0.305,-2.38,-0.61,1
3.949222,0.642,0.665,0.487,1.464,-2.319,-0.793,1
3.956925,0.637,0.668,0.488,1.892,-2.136,-0.854,1
3.963985,0.631,0.669,0.491,1.037,-2.075,-0.915,1
3.972668,0.626,0.668,0.497,0.793,-1.77,-1.037,1
3.979917,0.627,0.657,0.5,1.342,-1.892,-0.976,1
3.987858,0.631,0.648,0.506,1.342,-1.464,-1.037,1
3.995987,0.624,0.645,0.507,1.403,-1.403,-1.037,1
4.003477,0.625,0.641,0.507,1.037,-1.22,-0.976,1
4.012039,0.625,0.637,0.501,0.976,-0.732,-0.671,1
4.018997,0.621,0.631,0.507,0.183,-0.61,-0.854,1
4.02863,0.622,0.627,0.499,-0.061,0.0,-0.549,1
4.035134,0.622,0.628,0.496,0.0,0.244,-0.366,1
4.045106,0.626,0.63,0.49,0.488,0.183,-0.122,1
4.051654,0.627,0.624,0.485,0.671,0.671,-0.122,1
4.059853,0.63,0.619,0.48,0.427,0.61,0.183,1
4.066204,0.626,0.618,0.478,0.0,0.671,0.183,1
4.074429,0.626,0.613,0.475,0.793,0.61,0.61,1
4.082857,0.622,0.619,0.48,1.098,0.793,0.61,1
4.090461,0.619,0.62,0.477,0.0,0.793,0.732,1
4.099215,0.626,0.627,0.475,-1.281,1.098,0.854,1
4.105883,0.633,0.628,0.468,-0.915,1.098,1.037,1
4.113186,0.632,0.631,0.461,0.366,1.098,1.342,1
4.12078,0.631,0.636,0.459,1.037,0.915,1.464,1
4.128619,0.632,0.641,0.449,1.22,0.732,1.22,1
4.135749,0.63,0.645,0.448,0.976,0.854,1.464,1
4.144483,0.633,0.651,0.441,0.488,0.305,1.403,1
4.150793,0.631,0.649,0.441,0.305,0.366,1.159,1
4.159414,0.627,0.651,0.447,0.549,0.061,1.22,1
4.166268,0.624,0.653,0.45,0.915,-0.061,1.037,1
4.175002,0.627,0.653,0.455,1.281,-0.122,1.037,1
4.183408,0.623,0.65,0.456,0.671,-0.061,1.037,1
4.18957,0.627,0.653,0.455,-0.183,0.061,1.159,1
4.198685,0.626,0.653,0.452,-0.488,-0.061,1.281,1
4.205474,0.627,0.656,0.453,-0.305,-0.122,1.159,1
4.214315,0.633,0.657,0.449,0.122,-0.122,1.098,1
4.225726,0.633,0.659,0.447,0.061,-0.366,0.976,1
4.233465,0.64,0.665,0.443,0.122,-0.366,0.915,1
4.240811,0.636,0.671,0.446,0.61,-0.61,0.915,1
4.249456,0.634,0.671,0.446,1.098,-1.037,0.549,1
4.256829,0.626,0.674,0.444,1.342,-1.098,0.61,1
4.265313,0.628,0.67,0.453,0.549,-1.037,0.122,1
4.272753,0.626,0.666,0.458,-0.244,-0.976,0.366,1
4.280046,0.625,0.663,0.456,-0.366,-0.976,0.122,1
4.289128,0.624,0.663,0.451,0.122,-1.098,-0.183,1
4.296943,0.622,0.662,0.454,0.122,-1.22,-0.061,1
4.305251,0.618,0.659,0.451,0.0,-1.159,-0.244,1
4.312129,0.623,0.656,0.449,-0.244,-1.464,-0.244,1
4.319986,0.623,0.659,0.451,-0.244,-1.525,-0.305,1
4.328149,0.623,0.662,0.456,0.183,-1.647,-0.305,1
4.336074,0.619,0.659,0.458,0.244,-1.831,-0.305,1
4.34441,0.625,0.658,0.46,0.061,-1.77,-0.305,1
4.351736,0.625,0.657,0.463,-0.854,-1.586,-0.244,1
4.360925,0.629,0.657,0.466,-1.098,-1.708,-0.183,1
4.367997,0.634,0.651,0.464,-1.098,-1.77,-0.427,1
4.37681,0.626,0.65,0.46,-1.281,-1.647,-0.488,1
4.383581,0.633,0.65,0.464,-1.098,-1.525,-0.366,1
4.392736,0.634,0.648,0.466,-0.61,-1.831,-0.366,1
4.400343,0.629,0.651,0.464,-0.366,-1.953,-0.488,1
4.407652,0.627,0.653,0.47,-0.366,-1.77,-0.427,1
4.415578,0.629,0.656,0.471,-0.305,-1.831,-0.244,1
4.424854,0.627,0.659,0.472,0.061,-1.831,-0.549,1
4.432818,0.629,0.658,0.47,0.366,-2.014,-0.61,1
4.440623,0.634,0.656,0.467,0.0,-1.708,-0.732,1
4.448691,0.63,0.658,0.472,-0.976,-1.831,-0.793,1
4.457528,0.633,0.656,0.469,-1.342,-1.525,-0.854,1
4.46536,0.631,0.661,0.466,-1.892,-1.464,-0.854,1
4.473722,0.631,0.666,0.467,-2.38,-1.281,-0.976,1
4.481155,0.632,0.667,0.462,-2.014,-1.342,-1.037,1
4.488519,0.624,0.678,0.462,-1.22,-1.22,-1.037,1
4.49724,0.622,0.679,0.465,-0.427,-1.647,-1.342,1
4.505666,0.626,0.679,0.465,-0.183,-1.586,-1.403,1
4.512994,0.623,0.685,0.465,0.0,-1.708,-1.647,1
4.520573,0.624,0.683,0.463,-0.061,-1.831,-1.892,1
4.529512,0.622,0.68,0.465,0.244,-1.708,-2.258,1
4.536287,0.627,0.675,0.47,0.732,-1.831,-2.38,1
4.5445,0.627,0.674,0.467,0.488,-1.525,-2.685,1
4.554019,0.631,0.671,0.467,0.488,-1.77,-2.868,1
4.560598,0.631,0.667,0.463,0.793,-1.525,-3.051,1
4.569328,0.63,0.659,0.465,1.22,-1.831,-3.112,1
4.577821,0.632,0.653,0.465,0.61,-2.014,-3.234,1
4.584985,0.629,0.639,0.472,0.0,-2.075,-3.356,1
4.593271,0.631,0.635,0.479,-0.427,-2.014,-2.99,1
4.600835,0.629,0.629,0.484,-0.976,-1.892,-2.746,1
4.609338,0.632,0.623,0.487,-1.098,-1.77,-2.563,1
4.616822,0.626,0.618,0.493,-1.586,-1.403,-2.258,1
4.624225,0.622,0.615,0.493,-1.586,-1.342,-1.953,1
4.633331,0.626,0.616,0.493,-1.525,-1.037,-1.77,1
4.640848,0.625,0.621,0.483,-1.037,-0.732,-1.586,1
4.649096,0.627,0.617,0.477,-0.854,-0.61,-1.647,1
4.656621,0.624,0.623,0.472,-0.976,-0.366,-1.22,1
4.666233,0.622,0.62,0.467,-1.22,-0.732,-1.037,1
4.673287,0.627,0.619,0.465,-1.77,-0.61,-1.159,1
4.681994,0.622,0.618,0.465,-1.037,-0.915,-0.671,1
4.689144,0.617,0.612,0.466,-0.671,-0.732,-0.61,1
4.698078,0.619,0.608,0.467,-0.915,-1.098,-0.549,1
4.704713,0.615,0.611,0.473,-0.915,-0.976,-0.366,1
4.712529,0.621,0.606,0.471,-1.281,-1.037,-0.061,1
4.720221,0.614,0.608,0.476,-2.014,-0.549,0.244,1
4.728254,0.617,0.613,0.474,-0.976,-0.732,0.671,1
4.735777,0.615,0.61,0.474,-0.488,-0.732,0.915,1
4.743969,0.614,0.61,0.467,-0.549,-0.549,1.098,1
4.751424,0.622,0.613,0.464,-0.427,-0.549,1.403,1
4.760405,0.619,0.619,0.464,0.061,-0.793,1.586,1
4.767291,0.62,0.623,0.456,0.366,-0.732,1.708,1
4.775102,0.621,0.619,0.462,1.037,-1.098,1.892,1
4.78334,0.617,0.621,0.464,1.525,-1.159,1.892,1
4.791306,0.614,0.625,0.468,1.586,-1.403,2.136,1
4.797184,0.612,0.624,0.476,1.098,-1.281,2.197,1
4.804761,0.623,0.626,0.478,0.549,-1.281,2.563,1
4.813271,0.618,0.629,0.478,0.122,-1.342,2.624,1
4.820612,0.618,0.633,0.48,0.0,-0.976,2.685,1
4.828439,0.626,0.636,0.477,-0.305,-0.915,2.868,1
4.837514,0.625,0.646,0.479,0.183,-0.793,2.99,1
4.844683,0.621,0.654,0.479,0.488,-0.61,2.99,1
4.852006,0.628,0.653,0.478,0.427,-0.854,3.051,1
4.861117,0.629,0.655,0.474,0.854,-0.793,2.868,1
4.868116,0.629,0.661,0.472,0.915,-0.793,2.868,1
4.875569,0.625,0.662,0.475,0.854,-0.732,2.685,1
4.883212,0.631,0.663,0.475,0.915,-0.793,2.624,1
4.892106,0.623,0.671,0.476,1.159,-0.671,2.685,1
4.899061,0.625,0.668,0.471,1.098,-0.793,2.441,1
4.906581,0.623,0.67,0.475,0.854,-0.732,2.258,1
4.914873,0.623,0.665,0.469,0.915,-0.671,2.014,1
4.922149,0.626,0.669,0.474,1.403,-0.915,1.708,1
4.930457,0.626,0.669,0.478,1.403,-0.976,2.014,1
4.937853,0.618,0.671,0.479,0.122,-0.61,1.831,1
4.945632,0.621,0.675,0.482,-0.793,-0.488,1.77,1
4.953771,0.623,0.68,0.48,-0.793,-0.488,1.525,1
4.963057,0.626,0.68,0.48,-0.671,-0.427,1.281,1
4.970187,0.633,0.676,0.476,0.122,-0.122,1.342,1
4.977547,0.632,0.677,0.476,0.366,-0.244,1.037,1
4.986289,0.626,0.673,0.473,0.305,-0.305,0.671,1
4.994436,0.62,0.674,0.474,-0.061,-0.244,0.854,1
5.002662,0.626,0.68,0.469,-0.305,-0.061,0.488,1
5.010553,0.62,0.675,0.467,0.61,-0.183,0.488,1
5.018529,0.62,0.672,0.464,0.915,-0.122,0.366,1
5.025425,0.616,0.667,0.462,0.488,-0.488,0.122,1
5.032906,0.617,0.668,0.462,0.122,-0.244,0.122,1
5.041993,0.617,0.663,0.461,-0.427,-0.183,-0.122,1
5.048992,0.621,0.663,0.458,-1.403,-0.305,-0.122,1
5.057709,0.621,0.661,0.458,-1.098,-0.305,-0.122,1
5.065328,0.621,0.659,0.458,-0.427,-0.549,-0.061,1
5.073286,0.624,0.657,0.46,0.061,-0.732,-0.122,1
5.082057,0.619,0.656,0.464,0.061,-0.854,-0.061,1
5.088997,0.616,0.658,0.465,0.183,-0.488,-0.366,1
5.098217,0.62,0.656,0.471,0.61,-0.854,-0.488,1
5.106551,0.615,0.656,0.469,1.159,-0.549,-0.305,1
5.113619,0.62,0.652,0.466,0.976,-0.732,-0.183,1
5.120942,0.617,0.648,0.465,1.281,-0.854,-0.244,1
5.130789,0.625,0.647,0.463,1.098,-0.732,-0.183,1
5.136494,0.618,0.645,0.459,0.732,-0.854,-0.244,1
5.145842,0.618,0.645,0.459,0.854,-0.915,-0.061,1
5.152402,0.621,0.641,0.459,0.427,-1.281,-0.061,1
5.159177,0.616,0.646,0.465,0.488,-1.525,-0.122,1
5.168638,0.614,0.645,0.471,0.549,-1.586,-0.183,1
5.175624,0.608,0.644,0.472,0.244,-1.464,0.061,1
5.182743,0.614,0.645,0.474,-0.366,-1.281,0.061,1
5.192007,0.604,0.643,0.472,-0.244,-1.281,0.061,1
5.199039,0.608,0.645,0.472,-0.305,-1.159,0.0,1
5.206694,0.606,0.638,0.466,-0.244,-0.976,0.427,1
5.214425,0.614,0.639,0.458,0.732,-1.342,0.488,1
5.222147,0.609,0.635,0.45,1.159,-1.647,0.793,1
5.230319,0.607,0.634,0.448,0.976,-1.708,0.488,1
5.23855,0.605,0.639,0.457,0.549,-2.075,0.488,1
5.245908,0.611,0.638,0.461,0.366,-2.136,0.854,1
5.252965,0.608,0.632,0.465,0.732,-2.319,0.915,1
5.260579,0.601,0.636,0.474,1.342,-2.258,0.915,1
5.269663,0.604,0.631,0.471,0.976,-2.38,1.342,1
5.276671,0.6,0.629,0.475,0.61,-2.38,1.464,1
5.283944,0.607,0.622,0.475,0.366,-2.197,1.464,1
5.291848,0.605,0.621,0.478,0.732,-2.075,1.831,1
5.299671,0.605,0.615,0.477,0.732,-2.014,2.197,1
5.307399,0.613,0.613,0.474,0.732,-2.38,2.319,1
5.316421,0.608,0.62,0.471,0.854,-2.075,2.563,1
5.323322,0.61,0.625,0.478,1.464,-2.197,3.112,1
5.33072,0.608,0.622,0.485,2.258,-2.258,3.173,1
5.338395,0.613,0.625,0.484,2.319,-2.38,3.356,1
5.347567,0.614,0.631,0.495,2.075,-2.38,3.356,1
5.354723,0.614,0.634,0.509,2.136,-2.197,3.479,1
5.362215,0.613,0.643,0.527,2.685,-2.258,3.356,1
5.370099,0.61,0.647,0.539,2.441,-1.831,3.173,1
5.377694,0.607,0.646,0.554,1.831,-1.342,3.234,1
5.385347,0.604,0.645,0.565,1.708,-0.732,3.173,1
5.394564,0.601,0.643,0.575,1.708,-0.183,2.929,1
5.401927,0.596,0.637,0.585,2.014,0.366,3.051,1
5.410018,0.589,0.626,0.598,2.563,0.854,3.295,1
5.417079,0.581,0.622,0.611,4.333,1.281,3.295,1
5.424342,0.573,0.615,0.636,6.164,1.525,3.784,1
5.431884,0.563,0.61,0.674,7.995,2.014,4.028,1
5.441008,0.551,0.603,0.706,8.911,2.868,4.699,1
5.448182,0.547,0.596,0.742,8.666,3.967,4.76,1
5.455929,0.545,0.586,0.78,8.544,5.249,5.249,1
5.462932,0.549,0.574,0.82,9.094,6.652,5.676,1
5.470425,0.544,0.564,0.848,9.521,8.361,6.408,1
5.478148,0.541,0.543,0.895,9.704,10.314,6.835,1
5.486878,0.54,0.525,0.93,9.765,12.451,7.446,1
5.494054,0.53,0.51,0.97,9.948,14.709,8.422,1
5.502081,0.531,0.494,1.011,11.474,17.028,9.277,1
5.50911,0.523,0.479,1.052,14.343,20.507,10.559,1
5.517133,0.525,0.464,1.096,17.028,23.864,11.901,1
5.524964,0.514,0.455,1.133,18.615,27.526,13.427,1
5.531996,0.511,0.437,1.166,20.263,31.494,14.709,1
5.539538,0.506,0.428,1.202,22.277,35.461,16.174,1
5.547034,0.495,0.415,1.236,25.329,39.55,17.883,1
5.554545,0.483,0.402,1.268,27.404,43.823,19.592,1
5.563406,0.479,0.381,1.301,28.32,48.278,21.362,1
5.570701,0.477,0.36,1.324,28.808,53.71,23.925,1
5.577411,0.46,0.365,1.333,27.893,59.082,26.733,1
5.586294,0.441,0.375,1.334,26.428,64.208,28.991,1
5.592579,0.434,0.386,1.325,26.977,69.152,30.883,1
5.600141,0.425,0.401,1.311,29.663,73.791,32.897,1
5.607151,0.414,0.401,1.305,31.616,78.491,35.278,1
5.61538,0.392,0.408,1.286,31.921,83.007,37.109,1
5.623255,0.372,0.414,1.276,32.897,87.585,39.001,1
5.631251,0.347,0.425,1.261,34.912,91.796,41.137,1
5.638794,0.319,0.44,1.238,36.437,96.069,43.518,1
5.645699,0.285,0.461,1.217,38.085,100.28,45.166,1
5.654368,0.254,0.481,1.197,40.039,104.37,47.18,1
5.66144,0.226,0.499,1.176,41.748,108.154,49.072,1
5.668903,0.2,0.521,1.152,43.212,111.816,50.842,1
5.676387,0.168,0.553,1.123,44.677,115.722,52.551,1
5.684857,0.149,0.585,1.1,46.569,119.14,54.138,1
5.69286,0.131,0.611,1.081,50.476,122.436,55.541,1
5.699753,0.117,0.63,1.062,53.222,126.098,57.067,1
5.708823,0.102,0.647,1.051,53.833,129.577,58.593,1
5.715924,0.081,0.67,1.033,52.856,133.483,60.363,1
5.724066,0.058,0.703,1.008,52.124,137.084,61.706,1
5.730323,0.041,0.737,0.979,52.612,140.258,62.438,1
5.738482,0.032,0.764,0.954,54.138,143.676,63.293,1
5.745632,0.023,0.793,0.923,56.091,146.423,64.27,1
5.752885,0.02,0.827,0.891,57.617,149.475,65.002,1
5.761674,0.011,0.861,0.858,58.41,152.343,65.612,1
5.769601,0.005,0.883,0.827,58.288,155.273,65.795,1
5.777451,-0.003,0.912,0.8,57.617,157.958,65.795,1
5.785412,-0.02,0.95,0.76,57.128,160.827,65.917,1
5.792846,-0.032,0.992,0.721,56.945,163.085,65.734,1
5.800072,-0.039,1.034,0.69,57.373,165.649,65.246,1
5.80743,-0.044,1.071,0.653,57.556,167.541,64.27,1
5.816542,-0.052,1.103,0.619,57.556,169.677,63.293,1
5.823452,-0.056,1.137,0.571,57.006,171.997,62.499,1
5.831103,-0.059,1.184,0.496,54.26,174.56,60.913,1
5.838911,-0.056,1.226,0.418,52.246,175.964,59.143,1
5.846582,-0.056,1.266,0.345,53.1,176.635,57.006,1
5.854513,-0.05,1.296,0.283,56.152,176.818,54.626,1
5.862203,-0.042,1.312,0.223,59.326,176.574,52.551,1
5.870021,-0.045,1.332,0.159,59.448,176.513,50.415,1
5.877631,-0.052,1.364,0.09,57.8,175.598,47.851,1
5.886264,-0.054,1.368,0.061,56.457,174.316,44.921,1
5.893382,-0.047,1.37,0.023,56.701,172.668,41.809,1
5.902576,-0.045,1.372,-0.007,57.434,171.081,39.611,1
5.911048,-0.023,1.372,-0.044,58.349,169.555,36.743,1
5.918324,0.003,1.378,-0.067,58.715,167.541,34.362,1
5.925718,0.022,1.382,-0.101,59.326,166.259,31.921,1
5.935197,0.031,1.383,-0.13,57.495,164.55,29.541,1
5.94188,0.04,1.386,-0.146,55.358,162.536,26.672,1
5.949805,0.059,1.374,-0.162,54.321,161.071,24.23,1
5.957638,0.067,1.363,-0.177,53.71,160.034,21.85,1
5.965125,0.062,1.36,-0.199,53.527,158.142,19.592,1
5.973841,0.053,1.361,-0.232,52.246,156.86,17.15,1
5.981085,0.061,1.352,-0.265,50.781,154.846,14.465,1
5.988515,0.071,1.346,-0.291,50.17,153.076,12.145,1
5.996227,0.09,1.342,-0.306,49.56,151.062,9.704,1
6.004961,0.106,1.329,-0.314,50.17,148.681,7.324,1
6.011887,0.137,1.292,-0.314,49.987,146.545,5.31,1
6.019308,0.147,1.272,-0.318,48.706,145.324,3.234,1
6.026922,0.164,1.257,-0.346,46.569,143.554,1.098,1
6.035184,0.186,1.253,-0.356,46.081,141.357,-1.159,1
6.042794,0.192,1.235,-0.39,46.752,139.709,-3.112,1
6.052027,0.207,1.221,-0.428,45.776,137.756,-5.065,1
6.059163,0.225,1.194,-0.459,42.846,135.131,-7.263,1
6.066552,0.244,1.167,-0.474,40.588,132.995,-9.033,1
6.074503,0.26,1.134,-0.486,40.283,130.798,-10.62,1
6.08378,0.284,1.104,-0.504,40.832,128.356,-11.657,1
6.091356,0.296,1.09,-0.543,39.978,126.22,-12.756,1
6.09843,0.295,1.08,-0.588,36.926,123.046,-14.221,1
6.107873,0.308,1.073,-0.627,35.339,119.812,-15.502,1
6.114566,0.319,1.059,-0.666,34.362,116.516,-16.906,1
6.121905,0.344,1.037,-0.703,33.447,112.06,-18.493,1
6.13039,0.363,1.006,-0.729,32.836,107.971,-19.592,1
6.138015,0.384,0.974,-0.74,32.47,104.003,-20.202,1
6.146826,0.418,0.936,-0.752,32.043,100.036,-20.996,1
6.155145,0.441,0.915,-0.749,31.616,95.031,-21.118,1
6.16375,0.458,0.896,-0.743,32.043,91.674,-21.484,1
6.17071,0.463,0.869,-0.757,29.602,87.097,-21.545,1
6.17893,0.477,0.854,-0.767,26.123,83.557,-21.728,1
6.187195,0.486,0.844,-0.784,23.559,79.711,-21.85,1
6.193932,0.509,0.823,-0.791,22.338,75.866,-22.094,1
6.201947,0.52,0.803,-0.792,23.376,71.472,-21.667,1
6.209636,0.535,0.776,-0.785,24.597,66.711,-21.484,1
6.218747,0.55,0.749,-0.777,25.329,62.866,-21.362,1
6.225679,0.57,0.723,-0.766,24.719,59.326,-21.057,1
6.233259,0.577,0.704,-0.754,22.888,56.152,-20.568,1
6.240826,0.591,0.691,-0.747,20.935,52.429,-19.958,1
6.250655,0.594,0.679,-0.745,18.859,49.133,-19.165,1
6.256633,0.597,0.665,-0.744,15.93,46.142,-18.798,1
6.265355,0.602,0.656,-0.744,12.878,43.09,-18.188,1
6.273733,0.615,0.645,-0.742,10.314,39.916,-17.883,1
6.28092,0.619,0.629,-0.738,7.873,36.071,-17.272,1
6.289407,0.623,0.608,-0.729,7.263,32.897,-16.479,1
6.29689,0.635,0.583,-0.719,7.202,28.93,-15.686,1
6.305663,0.637,0.569,-0.686,8.3,25.634,-14.587,1
6.312826,0.626,0.561,-0.667,10.62,22.827,-13.122,1
6.322116,0.626,0.545,-0.649,11.596,19.775,-11.535,1
6.329105,0.621,0.537,-0.64,10.009,17.578,-10.192,1
6.337351,0.625,0.544,-0.625,7.873,15.136,-8.911,1
6.346015,0.627,0.561,-0.615,6.164,12.268,-7.446,1
6.352305,0.628,0.572,-0.602,4.638,9.643,-6.286,1
6.360476,0.626,0.576,-0.583,3.234,7.69,-5.432,1
6.367593,0.633,0.588,-0.563,2.197,5.065,-4.333,1
6.375426,0.638,0.601,-0.533,2.38,2.258,-3.173,1
6.385201,0.639,0.617,-0.503,3.967,-0.488,-2.38,1
6.391427,0.641,0.627,-0.458,5.31,-2.197,-1.342,1
6.400722,0.643,0.637,-0.418,5.065,-4.15,-0.976,1
6.408435,0.656,0.641,-0.375,5.126,-5.371,-0.183,1
6.416555,0.666,0.645,-0.336,3.967,-6.286,0.366,1
6.423528,0.677,0.644,-0.306,2.319,-6.53,0.793,1
6.432156,0.686,0.649,-0.288,0.732,-6.896,1.403,1
6.441266,0.691,0.664,-0.254,0.183,-7.324,1.77,1
6.447429,0.688,0.678,-0.225,2.441,-7.507,1.953,1
6.456479,0.689,0.675,-0.206,4.394,-7.751,2.38,1
6.463534,0.69,0.682,-0.192,3.723,-7.69,2.563,1
6.471283,0.683,0.684,-0.184,1.892,-7.08,2.441,1
6.480186,0.681,0.693,-0.172,1.159,-7.08,2.685,1
6.487468,0.68,0.712,-0.154,2.319,-7.385,2.807,1
6.496618,0.678,0.72,-0.141,3.662,-7.324,2.624,1
6.503907,0.674,0.723,-0.13,2.319,-6.774,2.441,1
6.512325,0.681,0.728,-0.125,-0.122,-6.225,2.441,1
6.519754,0.683,0.742,-0.115,-1.159,-5.737,2.014,1
6.528923,0.679,0.744,-0.106,-1.22,-5.187,2.014,1
6.536716,0.683,0.749,-0.11,-2.319,-4.577,1.77,1
6.543826,0.686,0.75,-0.119,-4.089,-4.15,1.647,1
6.552203,0.687,0.75,-0.131,-5.187,-3.784,1.159,1
6.560581,0.693,0.763,-0.142,-4.821,-3.967,0.854,1
6.56967,0.696,0.766,-0.148,-2.99,-4.272,0.427,1
6.576929,0.695,0.758,-0.146,-2.502,-4.821,0.061,1
6.586047,0.699,0.752,-0.145,-3.234,-4.882,-0.183,1
6.592973,0.699,0.745,-0.139,-4.089,-4.699,-0.488,1
6.602056,0.701,0.74,-0.133,-5.371,-4.76,-0.549,1
6.610185,0.7,0.743,-0.125,-5.859,-4.699,-0.793,1
6.617145,0.705,0.751,-0.118,-4.455,-4.76,-0.732,1
6.627414,0.703,0.748,-0.111,-2.502,-4.882,-0.854,1
6.634249,0.7,0.745,-0.108,-1.586,-4.821,-1.037,1
6.642164,0.698,0.74,-0.094,-2.38,-4.211,-1.098,1
6.650578,0.69,0.733,-0.103,-4.577,-3.723,-1.037,1
6.658915,0.685,0.731,-0.102,-5.859,-3.601,-1.098,1
6.667798,0.686,0.732,-0.105,-4.211,-3.662,-1.037,1
6.674437,0.687,0.732,-0.106,-2.685,-3.906,-1.281,1
6.682943,0.689,0.721,-0.106,-1.77,-3.479,-1.098,1
6.69146,0.686,0.718,-0.1,-1.831,-3.479,-0.976,1
6.70094,0.685,0.71,-0.102,-1.77,-3.356,-0.915,1
6.7114,0.689,0.708,-0.098,-1.953,-2.868,-0.793,1
6.719033,0.678,0.703,-0.094,-1.77,-2.868,-0.488,1
6.727007,0.683,0.701,-0.09,-1.281,-2.136,-0.305,1
6.734703,0.68,0.697,-0.091,-1.525,-1.892,0.0,1
6.744103,0.673,0.689,-0.093,-1.892,-1.525,0.244,1
6.751205,0.678,0.693,-0.093,-1.647,-1.342,0.305,1
6.75884,0.679,0.687,-0.092,-1.953,-0.854,0.732,1
6.767908,0.688,0.694,-0.085,-2.624,-0.793,0.976,1
6.775486,0.686,0.702,-0.075,-2.807,-0.183,1.159,1
6.78262,0.685,0.706,-0.073,-3.051,0.427,1.525,1
6.790871,0.683,0.709,-0.067,-2.99,1.098,1.525,1
6.799128,0.684,0.717,-0.067,-2.685,1.464,1.586,1
6.806433,0.684,0.72,-0.069,-2.746,1.953,1.647,1
6.814429,0.679,0.729,-0.073,-2.258,2.685,1.708,1
6.821731,0.68,0.735,-0.08,-1.037,2.807,1.77,1
6.829225,0.675,0.735,-0.089,0.061,3.417,1.647,1
6.836953,0.672,0.733,-0.092,0.183,3.723,1.77,1
6.845398,0.672,0.738,-0.106,-0.122,4.211,1.525,1
6.854575,0.672,0.739,-0.117,-0.549,4.455,1.22,1
6.861297,0.677,0.737,-0.129,-0.854,4.394,1.22,1
6.870558,0.678,0.738,-0.133,-0.671,4.577,1.159,1
6.877467,0.671,0.732,-0.138,-0.732,4.577,1.159,1
6.884978,0.677,0.729,-0.138,-1.403,4.76,1.098,1
6.894364,0.674,0.73,-0.14,-2.014,5.126,1.037,1
6.901218,0.674,0.734,-0.138,-2.258,5.126,1.159,1
6.908715,0.672,0.743,-0.144,-2.075,5.126,0.976,1
6.916242,0.676,0.744,-0.142,-1.281,5.371,1.159,1
6.925549,0.675,0.746,-0.149,-1.037,5.432,1.037,1
6.932529,0.677,0.752,-0.154,-1.22,5.371,0.915,1
6.940139,0.68,0.75,-0.169,-1.403,5.615,0.671,1
6.947823,0.683,0.75,-0.176,-0.915,5.371,0.671,1
6.955009,0.689,0.752,-0.189,-0.427,5.065,0.366,1
6.962223,0.688,0.746,-0.2,-0.305,4.882,0.366,1
6.970259,0.691,0.736,-0.202,-0.305,4.516,0.305,1
6.97688,0.688,0.736,-0.207,0.122,4.211,0.244,1
6.985164,0.691,0.732,-0.21,0.671,3.784,0.061,1
6.991907,0.685,0.732,-0.209,1.525,3.173,0.0,1
7.000462,0.685,0.734,-0.212,2.014,3.051,0.122,1
7.008092,0.68,0.734,-0.214,2.502,2.685,0.305,1
7.017362,0.676,0.736,-0.215,1.77,2.197,0.122,1
7.024871,0.674,0.729,-0.221,0.61,1.892,-0.122,1
7.034024,0.67,0.736,-0.214,0.366,1.342,-0.061,1
7.042382,0.667,0.732,-0.214,0.854,0.976,-0.183,1
7.05074,0.674,0.718,-0.213,1.281,0.61,-0.244,1
7.05819,0.676,0.716,-0.209,0.549,0.427,0.0,1
7.065236,0.679,0.715,-0.207,0.488,0.122,-0.122,1
7.074355,0.683,0.712,-0.203,1.281,-0.244,0.122,1
7.081369,0.684,0.724,-0.2,2.136,-0.427,0.549,1
7.090494,0.685,0.723,-0.2,1.953,-0.854,0.488,1
7.097233,0.684,0.723,-0.199,1.342,-1.098,0.732,1
7.105381,0.684,0.725,-0.195,0.0,-0.976,0.793,1
7.113776,0.683,0.726,-0.192,-0.549,-1.22,0.732,1
7.121842,0.684,0.729,-0.189,-0.122,-1.525,0.854,1
7.12847,0.681,0.728,-0.186,0.0,-1.586,0.61,1
7.137812,0.677,0.726,-0.185,0.732,-2.075,0.427,1
7.144352,0.677,0.725,-0.176,1.037,-2.136,0.488,1
7.153523,0.674,0.726,-0.176,0.732,-2.258,0.732,1
7.160377,0.672,0.725,-0.173,-0.183,-2.441,0.61,1
7.169271,0.671,0.728,-0.164,-0.244,-2.441,0.671,1
7.176795,0.677,0.726,-0.162,-0.122,-2.38,0.61,1
7.183821,0.678,0.728,-0.155,0.427,-2.746,0.549,1
7.191087,0.677,0.727,-0.154,0.183,-2.441,0.732,1
7.200281,0.674,0.735,-0.146,0.244,-2.502,0.671,1
7.207336,0.674,0.737,-0.142,0.854,-2.563,0.61,1
7.21417,0.678,0.742,-0.142,0.488,-2.258,0.671,1
7.220892,0.679,0.741,-0.142,0.305,-2.685,0.976,1
7.229447,0.677,0.741,-0.137,0.488,-2.38,0.61,1
7.236774,0.678,0.743,-0.14,0.488,-2.075,0.671,1
7.245008,0.678,0.739,-0.133,0.793,-1.892,0.427,1
7.253621,0.681,0.737,-0.131,1.098,-1.892,0.366,1
7.261671,0.681,0.736,-0.135,0.793,-1.647,0.305,1
7.268709,0.68,0.733,-0.129,0.305,-1.708,0.366,1
7.276226,0.681,0.734,-0.122,-0.183,-1.464,0.366,1
7.284003,0.676,0.737,-0.121,-0.427,-1.22,0.305,1
7.293124,0.674,0.736,-0.116,-0.427,-1.037,0.244,1
7.301144,0.676,0.736,-0.115,-0.366,-0.793,0.549,1
7.307949,0.671,0.741,-0.116,-0.183,-0.488,0.305,1
7.317041,0.667,0.739,-0.117,0.488,-0.305,0.366,1
7.323758,0.669,0.742,-0.123,0.61,0.0,0.122,1
7.331262,0.666,0.744,-0.126,0.183,0.122,0.244,1
7.338932,0.665,0.745,-0.127,-0.61,0.366,0.122,1
7.348208,0.674,0.744,-0.139,-0.915,0.671,-0.183,1
7.355304,0.676,0.739,-0.146,-0.671,0.61,0.0,1
7.363445,0.685,0.738,-0.147,0.366,0.549,-0.122,1
7.370902,0.686,0.738,-0.147,1.281,0.671,0.061,1
7.379139,0.678,0.737,-0.151,1.831,0.549,-0.183,1
7.386985,0.684,0.737,-0.146,1.708,0.488,-0.244,1
7.394454,0.687,0.738,-0.144,1.22,0.427,-0.183,1
7.403592,0.68,0.737,-0.148,0.427,0.854,-0.244,1
7.410984,0.678,0.736,-0.138,0.305,0.549,-0.122,1
7.417976,0.68,0.739,-0.142,0.488,0.793,-0.305,1
7.427107,0.683,0.735,-0.138,0.732,0.976,-0.244,1
7.434154,0.683,0.732,-0.138,0.793,0.976,-0.488,1
7.443077,0.678,0.723,-0.142,0.183,1.22,-0.549,1
7.449686,0.684,0.727,-0.141,0.366,1.342,-0.244,1
7.458938,0.68,0.731,-0.143,0.854,1.281,-0.366,1
7.466657,0.679,0.736,-0.141,1.098,1.281,-0.305,1
7.473376,0.679,0.735,-0.145,0.549,1.403,-0.427,1
7.483139,0.675,0.735,-0.146,-0.305,1.77,-0.549,1
7.490119,0.669,0.733,-0.149,-0.244,1.953,-0.366,1
7.498238,0.679,0.735,-0.157,0.122,1.708,-0.366,1
7.50724,0.673,0.734,-0.165,0.366,1.647,-0.549,1
7.514747,0.681,0.734,-0.169,0.793,1.586,-0.366,1
7.522812,0.677,0.727,-0.168,0.061,1.403,-0.366,1
7.530221,0.683,0.727,-0.169,-0.549,1.525,-0.61,1
7.538337,0.679,0.727,-0.171,-0.61,1.098,-0.61,1
7.547054,0.687,0.729,-0.173,0.854,0.915,-0.549,1
7.554475,0.687,0.727,-0.169,2.258,0.366,-0.366,1
7.561381,0.684,0.728,-0.166,2.624,0.549,-0.366,1
7.570573,0.678,0.73,-0.162,1.22,0.732,-0.488,1
7.57788,0.673,0.729,-0.166,0.0,0.793,-0.244,1
7.585466,0.674,0.734,-0.164,-0.122,0.915,-0.427,1
7.59492,0.67,0.735,-0.166,0.427,0.671,-0.244,1
7.602103,0.676,0.73,-0.165,0.915,0.366,-0.549,1
7.609718,0.672,0.732,-0.166,0.305,0.305,-0.366,1
7.618937,0.672,0.727,-0.164,-0.732,0.427,-0.427,1
7.627191,0.671,0.723,-0.165,-1.464,0.305,-0.427,1
7.634182,0.67,0.726,-0.166,-1.953,0.427,-0.61,1
7.641894,0.673,0.724,-0.167,-2.258,0.061,-0.122,1
7.651343,0.673,0.722,-0.166,-2.258,0.122,-0.183,1
7.657987,0.671,0.718,-0.163,-1.892,0.366,-0.061,1
7.666025,0.675,0.709,-0.171,-2.014,0.366,0.061,1
7.673552,0.679,0.71,-0.172,-2.38,0.427,0.244,1
7.682309,0.676,0.705,-0.177,-2.868,0.305,0.244,1
7.689206,0.676,0.705,-0.186,-2.99,0.122,0.671,1
7.697561,0.683,0.702,-0.191,-3.479,0.122,0.671,1
7.705991,0.685,0.707,-0.19,-3.479,-0.183,1.098,1
7.714699,0.682,0.708,-0.191,-3.356,-0.549,1.098,1
7.722695,0.686,0.711,-0.188,-3.662,-0.793,1.403,1
7.729642,0.681,0.713,-0.188,-3.417,-0.915,1.464,1
7.738331,0.683,0.718,-0.18,-2.014,-1.403,1.281,1
7.746424,0.678,0.72,-0.175,-0.732,-1.77,1.647,1
7.753906,0.676,0.719,-0.167,-0.061,-1.831,1.525,1
7.763233,0.672,0.724,-0.163,-0.061,-1.708,1.77,1
7.770235,0.666,0.729,-0.154,-0.122,-1.647,1.708,1
7.779375,0.669,0.725,-0.155,-0.183,-1.525,1.464,1
7.786093,0.664,0.73,-0.153,0.427,-1.342,1.586,1
7.7952,0.666,0.733,-0.155,1.037,-1.586,1.831,1
7.802716,0.668,0.735,-0.15,1.037,-1.525,1.647,1
7.810886,0.668,0.738,-0.156,0.305,-1.403,1.586,1
7.817318,0.669,0.739,-0.154,-0.671,-1.342,1.464,1
7.825433,0.67,0.74,-0.148,-0.976,-1.342,1.342,1
7.834958,0.677,0.738,-0.149,-0.549,-1.464,1.159,1
7.842458,0.683,0.733,-0.144,0.488,-1.403,1.281,1
7.850546,0.683,0.735,-0.133,1.403,-1.159,1.159,1
7.857826,0.681,0.731,-0.134,1.464,-1.281,1.525,1
7.865756,0.678,0.734,-0.121,0.915,-0.976,1.464,1
7.87507,0.681,0.738,-0.119,0.61,-0.61,1.647,1
7.881979,0.68,0.741,-0.115,0.793,-0.366,1.708,1
7.891138,0.676,0.74,-0.115,0.427,-0.122,1.525,1
7.897387,0.679,0.745,-0.113,0.0,0.0,1.647,1
7.906163,0.676,0.743,-0.113,-0.366,0.366,1.159,1
7.913058,0.675,0.747,-0.111,0.0,0.671,0.976,1
7.921702,0.67,0.746,-0.11,0.732,0.793,0.976,1
7.928388,0.671,0.746,-0.105,1.159,1.037,1.098,1
7.935827,0.677,0.745,-0.106,0.976,1.464,0.732,1
7.943831,0.676,0.741,-0.106,0.793,1.831,0.671,1
7.951157,0.676,0.743,-0.103,1.22,2.136,0.915,1
7.958975,0.676,0.742,-0.101,1.403,2.502,0.793,1
7.965741,0.682,0.739,-0.101,1.647,2.929,0.61,1
7.97373,0.672,0.74,-0.104,1.586,3.417,0.671,1
7.981005,0.672,0.736,-0.107,1.22,3.723,0.549,1
7.989659,0.669,0.733,-0.114,0.732,4.211,0.61,1
7.997506,0.666,0.738,-0.122,-0.427,3.967,0.793,1
8.006072,0.668,0.735,-0.133,-2.075,4.577,0.793,1
8.013011,0.664,0.741,-0.142,-2.929,4.699,0.61,1
8.020395,0.667,0.742,-0.147,-2.258,4.821,0.671,1
8.029188,0.666,0.735,-0.154,-1.159,4.638,0.549,1
8.038434,0.674,0.729,-0.152,-0.427,4.394,0.488,1
8.045882,0.669,0.727,-0.156,-0.366,4.516,0.732,1
8.05285,0.67,0.728,-0.154,-0.366,4.516,0.793,1
8.061588,0.675,0.725,-0.159,-0.061,4.455,0.854,1
8.068993,0.667,0.729,-0.162,0.183,4.699,1.037,1
8.077929,0.667,0.731,-0.166,0.366,4.516,1.098,1
8.086554,0.667,0.73,-0.168,0.488,4.577,1.037,1
8.093911,0.672,0.736,-0.172,0.793,4.455,1.342,1
8.101101,0.67,0.732,-0.175,1.342,4.516,0.976,1
8.109917,0.667,0.736,-0.178,1.464,4.272,0.915,1
8.116761,0.663,0.732,-0.18,1.403,4.089,0.915,1
8.125805,0.665,0.727,-0.174,1.159,3.967,1.159,1
8.132442,0.666,0.726,-0.172,1.342,4.211,1.037,1
8.141304,0.666,0.72,-0.167,1.281,4.089,1.037,1
8.149487,0.667,0.721,-0.165,1.586,4.15,1.098,1
8.157407,0.667,0.724,-0.164,1.525,4.028,1.403,1
8.165855,0.66,0.729,-0.16,1.586,3.906,1.525,1
8.171684,0.657,0.729,-0.165,1.586,3.967,1.525,1
8.181014,0.66,0.729,-0.163,0.976,4.272,1.281,1
8.187913,0.656,0.73,-0.161,1.22,3.845,1.647,1
8.196915,0.661,0.731,-0.161,1.647,3.906,1.586,1
8.203327,0.664,0.727,-0.16,2.319,3.967,1.647,1
8.212439,0.666,0.731,-0.161,3.234,4.028,1.708,1
8.218501,0.666,0.729,-0.163,3.845,4.089,2.014,1
8.227842,0.663,0.729,-0.166,3.784,4.333,1.77,1
8.234195,0.66,0.731,-0.17,3.479,4.516,1.647,1
8.242915,0.663,0.729,-0.178,2.929,4.333,1.647,1
8.25059,0.664,0.724,-0.178,2.258,4.333,1.831,1
8.257777,0.663,0.724,-0.181,1.22,4.699,1.525,1
8.264385,0.662,0.724,-0.18,0.915,4.638,1.77,1
8.272594,0.653,0.725,-0.18,1.159,4.76,1.708,1
8.279765,0.648,0.723,-0.177,0.61,4.821,1.953,1
8.288226,0.644,0.724,-0.181,-0.061,4.943,1.77,1
8.29726,0.639,0.725,-0.187,-0.854,5.065,1.77,1
8.304084,0.639,0.724,-0.19,-2.014,5.249,1.831,1
8.312933,0.644,0.718,-0.196,-3.601,5.432,1.647,1
8.31959,0.635,0.712,-0.2,-4.943,5.615,1.77,1
8.32883,0.637,0.716,-0.203,-5.676,5.981,1.892,1
8.334994,0.636,0.709,-0.209,-6.347,6.225,1.831,1
8.344309,0.63,0.708,-0.221,-6.774,6.408,2.197,1
8.349864,0.632,0.698,-0.236,-7.08,6.835,2.319,1
8.359184,0.629,0.701,-0.255,-7.568,6.958,2.563,1
8.366552,0.633,0.699,-0.278,-7.019,6.835,2.807,1
8.375336,0.622,0.692,-0.307,-6.835,6.53,3.356,1
8.383572,0.624,0.686,-0.334,-7.141,6.164,3.723,1
8.390456,0.621,0.671,-0.37,-8.239,5.615,4.089,1
8.399355,0.625,0.667,-0.399,-9.582,4.638,4.638,1
8.407355,0.626,0.662,-0.43,-10.437,4.028,5.31,1
8.41569,0.624,0.652,-0.468,-12.145,2.746,6.042,1
8.423022,0.619,0.644,-0.492,-13.793,1.403,6.591,1
8.430935,0.61,0.645,-0.524,-15.563,-0.122,7.629,1
8.438195,0.602,0.645,-0.554,-16.662,-1.586,7.995,1
8.447124,0.597,0.644,-0.592,-16.601,-3.723,8.972,1
8.454741,0.592,0.644,-0.625,-16.906,-5.859,9.582,1
8.462419,0.585,0.642,-0.66,-17.211,-8.117,10.07,1
8.471706,0.581,0.642,-0.695,-18.127,-11.108,11.047,1
8.479156,0.577,0.643,-0.738,-19.653,-13.854,11.901,1
8.486594,0.572,0.645,-0.779,-20.507,-17.272,12.451,1
8.494966,0.564,0.65,-0.816,-20.935,-20.935,13.366,1
8.502623,0.563,0.647,-0.857,-21.789,-24.597,14.099,1
8.511493,0.559,0.645,-0.895,-24.108,-28.991,15.258,1
8.519115,0.548,0.643,-0.914,-25.939,-33.264,16.601,1
8.527729,0.54,0.648,-0.954,-29.174,-37.719,18.188,1
8.53546,0.526,0.659,-0.991,-32.592,-41.748,18.981,1
8.543003,0.506,0.667,-1.032,-35.278,-46.386,20.08,1
8.552161,0.497,0.678,-1.076,-36.682,-51.818,21.545,1
8.559782,0.479,0.692,-1.117,-36.926,-56.823,22.399,1
8.567357,0.449,0.714,-1.169,-38.818,-63.293,23.864,1
8.576583,0.429,0.744,-1.212,-41.625,-68.908,24.78,1
8.583477,0.409,0.776,-1.262,-44.494,-74.829,25.451,1
8.592306,0.383,0.824,-1.312,-49.682,-81.909,25.939,1
8.600948,0.372,0.863,-1.348,-54.199,-88.439,26.184,1
8.608015,0.337,0.907,-1.381,-57.922,-95.214,26.733,1
8.616853,0.318,0.938,-1.4,-61.645,-103.454,26.733,1
8.623991,0.296,0.968,-1.406,-62.683,-110.778,26.672,1
8.633117,0.279,0.993,-1.414,-61.279,-118.347,26.611,1
8.64008,0.251,1.012,-1.416,-59.387,-127.136,26.55,1
8.647708,0.22,1.043,-1.405,-59.875,-134.582,26.428,1
8.656629,0.188,1.076,-1.396,-62.927,-141.845,26.184,1
8.664148,0.153,1.125,-1.373,-66.65,-150.024,25.634,1
8.672897,0.103,1.166,-1.343,-69.885,-157.348,25.146,1
8.680719,0.06,1.216,-1.307,-72.265,-165.649,24.169,1
8.688627,0.017,1.27,-1.262,-72.265,-172.79,23.01,1
8.696849,-0.037,1.323,-1.197,-73.303,-179.687,21.606,1
8.70562,-0.074,1.369,-1.124,-73.974,-186.584,19.531,1
8.714477,-0.104,1.401,-1.073,-73.608,-193.42,16.906,1
8.721735,-0.146,1.429,-1.006,-71.472,-199.096,14.77,1
8.729679,-0.19,1.437,-0.938,-71.166,-204.04,12.207,1
8.738357,-0.225,1.456,-0.876,-73.303,-209.655,9.216,1
8.747453,-0.285,1.47,-0.811,-74.157,-213.684,7.141,1
8.754514,-0.338,1.482,-0.729,-74.157,-218.933,4.272,1
8.762816,-0.387,1.47,-0.656,-71.899,-223.449,1.831,1
8.771894,-0.431,1.455,-0.584,-72.326,-227.111,-0.61,1
8.780696,-0.482,1.459,-0.494,-75.134,-230.529,-2.807,1
8.789485,-0.524,1.481,-0.379,-75.195,-234.313,-5.493,1
8.796784,-0.581,1.51,-0.233,-68.542,-237.365,-8.239,1
8.805936,-0.611,1.509,-0.096,-62.988,-239.318,-10.742,1
8.814356,-0.641,1.5,0.066,-61.584,-239.685,-13.977,1
8.821499,-0.643,1.489,0.189,-62.133,-238.708,-16.54,1
8.829488,-0.642,1.478,0.302,-63.171,-237.67,-19.409,1
8.837415,-0.627,1.473,0.431,-62.316,-235.412,-22.399,1
8.845949,-0.62,1.464,0.533,-59.692,-233.703,-24.658,1
8.854807,-0.587,1.444,0.654,-55.236,-231.567,-27.099,1
8.861958,-0.557,1.424,0.771,-49.255,-228.515,-30.334,1
8.870998,-0.518,1.403,0.916,-42.724,-224.365,-33.386,1
8.879729,-0.484,1.375,1.046,-40.1,-219.543,-36.132,1
8.88654,-0.442,1.344,1.172,-41.931,-212.463,-39.062,1
8.895846,-0.376,1.325,1.269,-45.532,-205.078,-41.564,1
8.902891,-0.312,1.305,1.353,-48.278,-196.838,-44.128,1
8.911368,-0.25,1.274,1.405,-47.485,-189.636,-46.325,1
8.919661,-0.156,1.209,1.441,-46.874,-180.847,-48.583,1
8.928603,-0.085,1.166,1.471,-47.851,-173.767,-50.109,1
8.937365,-0.029,1.122,1.5,-46.325,-165.466,-51.94,1
8.94448,0.037,1.074,1.548,-41.442,-158.325,-53.161,1
8.953373,0.091,1.019,1.573,-36.926,-149.719,-54.26,1
8.960547,0.136,0.965,1.58,-35.949,-141.845,-54.687,1
8.968555,0.199,0.916,1.584,-36.682,-132.812,-55.236,1
8.976251,0.242,0.878,1.578,-37.414,-124.694,-55.236,1
8.985717,0.273,0.84,1.56,-38.33,-117.126,-55.236,1
8.994137,0.317,0.777,1.521,-40.71,-108.337,-54.931,1
9.00153,0.359,0.742,1.47,-43.945,-101.013,-54.382,1
9.009875,0.396,0.723,1.412,-44.677,-94.787,-53.894,1
9.016921,0.413,0.698,1.374,-40.649,-88.439,-53.344,1
9.025934,0.426,0.672,1.333,-38.452,-83.251,-52.795,1
9.032899,0.441,0.634,1.305,-38.635,-78.063,-52.612,1
9.042014,0.451,0.619,1.283,-37.963,-71.96,-51.635,1
9.050621,0.46,0.599,1.255,-36.01,-67.321,-50.659,1
9.059108,0.466,0.576,1.232,-33.142,-61.584,-49.621,1
9.066127,0.479,0.564,1.194,-32.226,-56.335,-48.4,1
9.075194,0.481,0.547,1.16,-33.386,-51.879,-47.607,1
9.082259,0.494,0.527,1.11,-35.705,-46.936,-46.386,1
9.090808,0.507,0.52,1.066,-35.4,-43.029,-45.043,1
9.098796,0.52,0.506,1.034,-32.104,-39.855,-43.701,1
9.10731,0.53,0.488,1.001,-27.648,-36.254,-41.931,1
9.114732,0.539,0.473,0.973,-25.756,-32.47,-40.222,1
9.123232,0.545,0.461,0.955,-23.925,-29.296,-38.696,1
9.132432,0.552,0.446,0.934,-23.132,-26.367,-37.292,1
9.139375,0.555,0.443,0.917,-23.498,-22.827,-34.973,1
9.148499,0.557,0.441,0.895,-22.827,-19.897,-33.508,1
9.155176,0.563,0.437,0.856,-21.24,-17.211,-31.738,1
9.164261,0.568,0.435,0.814,-20.385,-14.16,-29.418,1
9.172377,0.579,0.422,0.767,-20.385,-11.962,-28.076,1
9.180032,0.594,0.416,0.729,-20.507,-9.826,-26.367,1
9.187749,0.605,0.416,0.686,-19.775,-8.3,-24.902,1
9.197217,0.62,0.412,0.666,-17.517,-7.08,-23.193,1
9.205163,0.63,0.411,0.645,-14.953,-5.798,-21.362,1
9.212406,0.642,0.409,0.634,-12.756,-4.577,-19.531,1
9.220884,0.652,0.409,0.618,-11.291,-3.479,-18.127,1
9.228625,0.652,0.421,0.601,-10.437,-2.014,-16.235,1
9.236598,0.66,0.435,0.584,-9.521,-0.915,-14.892,1
9.244371,0.668,0.439,0.565,-8.911,0.122,-13.61,1
9.252764,0.669,0.443,0.543,-8.972,1.281,-12.39,1
9.260023,0.664,0.447,0.51,-9.643,2.136,-11.108,1
9.269045,0.673,0.457,0.5,-9.399,3.112,-9.643,1
9.276972,0.667,0.459,0.488,-7.873,3.356,-8.728,1
9.284903,0.663,0.461,0.479,-6.835,3.784,-7.507,1
9.292872,0.659,0.465,0.471,-5.126,4.333,-6.225,1
9.299949,0.648,0.474,0.46,-4.028,5.187,-4.882,1
9.308471,0.641,0.487,0.438,-4.028,5.493,-3.479,1
9.315739,0.643,0.498,0.416,-3.601,5.798,-2.502,1
9.324315,0.644,0.517,0.387,-2.136,5.981,-1.281,1
9.332259,0.645,0.511,0.369,-1.708,5.981,-0.732,1
9.339398,0.649,0.516,0.353,-2.197,5.798,0.427,1
9.348644,0.655,0.528,0.341,-3.479,5.676,0.976,1
9.356345,0.658,0.539,0.335,-2.746,5.493,2.136,1
9.362573,0.66,0.55,0.337,-0.915,4.943,2.807,1
9.370478,0.661,0.56,0.338,0.305,4.882,3.601,1
9.377786,0.661,0.568,0.342,0.244,4.882,4.028,1
9.386479,0.664,0.567,0.343,-0.061,4.638,4.455,1
9.394046,0.671,0.578,0.353,0.427,4.821,5.187,1
9.40207,0.678,0.583,0.348,0.915,5.065,5.737,1
9.40891,0.682,0.588,0.35,1.281,5.187,6.469,1
9.416464,0.686,0.604,0.339,1.464,5.187,6.896,1
9.42542,0.689,0.621,0.336,0.854,5.31,7.202,1
9.432828,0.699,0.625,0.332,0.793,5.31,7.69,1
9.44092,0.704,0.635,0.323,0.244,5.249,7.995,1
9.448678,0.702,0.653,0.312,0.427,5.126,8.239,1
9.455853,0.705,0.67,0.312,1.525,4.943,8.117,1
9.463346,0.699,0.686,0.307,2.807,4.455,8.178,1
9.470512,0.699,0.701,0.305,3.356,4.089,7.873,1
9.47801,0.698,0.708,0.302,2.746,3.967,7.629,1
9.486546,0.691,0.717,0.306,1.892,4.028,7.202,1
9.493906,0.696,0.722,0.307,1.403,3.906,6.53,1
9.501653,0.692,0.721,0.306,1.708,3.662,6.347,1
9.510293,0.687,0.724,0.306,1.525,3.54,5.859,1
9.516444,0.689,0.723,0.298,2.258,3.417,5.554,1
9.524069,0.69,0.722,0.294,2.563,3.173,5.493,1
9.530818,0.688,0.726,0.287,2.38,2.807,4.943,1
9.539428,0.694,0.734,0.284,2.502,2.319,4.821,1
9.545695,0.69,0.743,0.285,3.356,2.014,4.394,1
9.553134,0.694,0.75,0.285,3.967,1.281,3.967,1
9.56119,0.693,0.753,0.283,4.272,0.976,3.479,1
9.569153,0.697,0.753,0.286,5.065,0.549,2.807,1
9.576265,0.692,0.748,0.286,5.187,-0.061,2.197,1
9.58392,0.701,0.743,0.292,4.821,-0.305,1.647,1
9.591597,0.704,0.73,0.297,3.845,-0.549,0.732,1
9.600781,0.707,0.724,0.309,3.54,-0.793,0.488,1
9.60808,0.704,0.717,0.313,3.601,-0.854,0.061,1
9.615814,0.71,0.712,0.319,3.662,-1.159,-0.366,1
9.625172,0.709,0.709,0.325,4.028,-1.159,-0.732,1
9.63197,0.711,0.701,0.324,4.028,-1.22,-1.037,1
9.64121,0.716,0.7,0.326,3.173,-1.22,-1.037,1
9.648082,0.717,0.701,0.32,2.441,-1.281,-1.464,1
9.655622,0.714,0.707,0.32,2.38,-1.403,-1.831,1
9.663969,0.709,0.706,0.318,3.173,-1.953,-2.258,1
9.671878,0.704,0.698,0.315,3.112,-2.136,-2.807,1
9.680833,0.703,0.695,0.316,3.356,-2.624,-2.99,1
9.688018,0.696,0.691,0.323,3.601,-2.868,-3.234,1
9.696718,0.686,0.687,0.333,3.417,-3.295,-3.784,1
9.704255,0.683,0.674,0.339,2.929,-3.051,-3.967,1
9.712075,0.684,0.669,0.342,2.868,-2.99,-4.028,1
9.721377,0.682,0.669,0.344,2.746,-3.051,-4.028,1
9.728702,0.685,0.672,0.342,2.746,-2.99,-3.967,1
9.735886,0.688,0.666,0.344,2.685,-3.234,-4.028,1
9.744962,0.689,0.658,0.346,2.685,-3.234,-4.272,1
9.752323,0.694,0.655,0.347,2.746,-3.479,-4.211,1
9.759153,0.692,0.649,0.352,3.356,-3.662,-4.211,1
9.768773,0.689,0.636,0.351,3.051,-3.601,-3.906,1
9.776498,0.685,0.637,0.356,1.464,-3.54,-4.272,1
9.783766,0.691,0.634,0.358,0.366,-3.417,-3.967,1
9.792664,0.687,0.631,0.366,0.793,-3.54,-3.967,1
9.799713,0.691,0.621,0.369,1.403,-3.54,-3.784,1
9.808308,0.69,0.611,0.375,1.647,-3.601,-3.601,1
9.815202,0.69,0.609,0.378,2.075,-3.356,-3.295,1
9.823906,0.688,0.609,0.377,1.953,-3.173,-3.112,1
9.831932,0.693,0.607,0.379,1.464,-3.051,-2.685,1
9.839993,0.693,0.61,0.381,0.244,-2.502,-2.258,1
9.84788,0.692,0.604,0.382,-0.427,-2.502,-2.136,1
9.856654,0.693,0.605,0.386,-1.77,-2.014,-1.953,1
9.864686,0.694,0.604,0.388,-1.708,-1.525,-1.708,1
9.872669,0.693,0.601,0.399,-0.976,-1.586,-1.342,1
9.880897,0.698,0.593,0.409,0.183,-1.098,-1.037,1
9.887249,0.691,0.593,0.415,-0.915,-0.305,-0.305,1
9.896505,0.7,0.594,0.42,-2.136,0.122,-0.061,1
9.903178,0.711,0.6,0.421,-1.892,0.488,0.244,1
9.910697,0.708,0.615,0.422,-1.525,0.732,0.244,1
9.919591,0.707,0.618,0.416,-0.793,1.22,0.61,1
9.926886,0.703,0.624,0.414,-1.22,1.403,0.793,1
9.934457,0.699,0.63,0.406,-2.441,1.831,0.915,1
9.941757,0.693,0.638,0.399,-2.38,2.014,0.854,1
9.949411,0.694,0.641,0.399,-0.976,2.014,0.732,1
9.957985,0.698,0.639,0.401,0.366,1.831,0.305,1
9.965032,0.689,0.637,0.407,1.22,2.136,0.549,1
9.97261,0.682,0.633,0.412,1.159,2.502,0.732,1
9.979895,0.683,0.631,0.418,1.525,2.99,0.854,1
9.98897,0.69,0.63,0.425,1.77,3.356,0.793,1
9.995634,0.69,0.632,0.413,0.976,3.54,1.159,1
