timestamp_s,ax,ay,az,gx,gy,gz,label
0.005496,0.686,0.714,-0.206,1.953,1.586,-0.793,1
0.014171,0.684,0.707,-0.211,1.953,1.342,-0.732,1
0.020721,0.673,0.704,-0.22,1.647,1.22,-0.305,1
0.028843,0.664,0.701,-0.225,1.77,0.976,0.0,1
0.035648,0.662,0.701,-0.231,1.77,0.793,0.488,1
0.042613,0.651,0.7,-0.233,1.647,0.488,0.488,1
0.050274,0.65,0.704,-0.234,1.892,0.305,0.61,1
0.058291,0.646,0.717,-0.235,1.953,0.183,0.976,1
0.067096,0.644,0.718,-0.236,1.708,0.061,0.854,1
0.074188,0.644,0.717,-0.229,1.464,-0.366,1.098,1
0.080225,0.641,0.721,-0.229,0.976,0.0,1.098,1
0.088789,0.647,0.718,-0.226,0.793,-0.244,1.159,1
0.095937,0.652,0.722,-0.221,0.854,0.0,0.976,1
0.103514,0.654,0.726,-0.216,0.854,0.0,1.281,1
0.112745,0.663,0.722,-0.208,1.098,0.061,1.22,1
0.120236,0.665,0.723,-0.213,1.22,0.305,1.22,1
0.127453,0.667,0.72,-0.208,0.976,0.366,1.342,1
0.134921,0.675,0.721,-0.208,0.793,0.488,1.403,1
0.143875,0.679,0.728,-0.208,1.037,0.427,1.403,1
0.150349,0.675,0.729,-0.213,1.281,0.671,1.586,1
0.158201,0.682,0.732,-0.214,1.342,0.366,1.708,1
0.165935,0.68,0.73,-0.218,0.854,0.427,1.708,1
0.173435,0.677,0.735,-0.218,0.305,0.427,1.464,1
0.182002,0.675,0.73,-0.223,-0.122,0.183,1.464,1
0.189242,0.67,0.735,-0.225,-0.427,0.122,1.77,1
0.198249,0.67,0.738,-0.229,-1.464,0.061,1.342,1
0.205259,0.667,0.745,-0.233,-1.831,-0.244,1.403,1
0.21456,0.667,0.753,-0.233,-1.525,-0.244,1.281,1
0.221571,0.662,0.763,-0.232,-1.22,-0.488,1.037,1
0.229224,0.662,0.767,-0.232,-1.22,-0.671,0.793,1
0.238144,0.664,0.768,-0.232,-1.708,-0.976,0.305,1
0.245777,0.667,0.77,-0.227,-2.441,-0.854,0.0,1
0.254888,0.667,0.771,-0.228,-2.746,-1.159,-0.305,1
0.262462,0.669,0.77,-0.228,-3.234,-1.342,-0.854,1
0.270238,0.675,0.768,-0.228,-3.845,-1.403,-1.098,1
0.279485,0.676,0.767,-0.218,-3.173,-1.586,-1.342,1
0.286295,0.675,0.765,-0.219,-2.136,-1.831,-1.647,1
0.295564,0.68,0.762,-0.215,-0.976,-1.892,-1.892,1
0.303725,0.679,0.753,-0.205,0.061,-2.197,-1.77,1
0.311366,0.682,0.746,-0.207,0.549,-2.014,-2.014,1
0.321391,0.679,0.743,-0.198,1.037,-2.258,-2.197,1
0.32833,0.678,0.733,-0.194,1.159,-2.075,-2.075,1
0.33632,0.681,0.729,-0.19,1.22,-2.075,-2.319,1
0.344957,0.675,0.726,-0.181,0.732,-1.77,-2.563,1
0.353995,0.674,0.724,-0.177,0.366,-1.525,-2.502,1
0.362734,0.677,0.723,-0.159,-0.061,-1.22,-2.563,1
0.369177,0.676,0.727,-0.15,0.122,-0.732,-2.502,1
0.378256,0.674,0.727,-0.14,0.488,-0.122,-3.051,1
0.385331,0.674,0.727,-0.142,0.183,0.244,-3.173,1
0.392813,0.674,0.722,-0.138,-0.183,1.037,-3.54,1
0.401211,0.679,0.717,-0.134,-0.183,1.647,-3.723,1
0.409979,0.678,0.706,-0.146,-0.366,2.014,-3.723,1
0.417622,0.68,0.699,-0.153,-0.366,2.258,-3.54,1
0.426918,0.683,0.694,-0.163,-0.122,2.685,-3.723,1
0.434565,0.686,0.69,-0.17,1.22,2.38,-3.051,1
0.44291,0.685,0.681,-0.175,2.075,2.319,-2.502,1
0.451525,0.687,0.677,-0.189,1.831,2.319,-2.197,1
0.459372,0.678,0.676,-0.2,0.976,2.258,-1.647,1
0.466437,0.671,0.679,-0.215,-0.122,2.441,-1.281,1
0.474271,0.658,0.678,-0.221,-0.366,2.258,-0.915,1
0.482875,0.655,0.678,-0.223,-0.244,2.075,-0.183,1
0.491065,0.652,0.675,-0.229,0.427,1.831,0.122,1
0.497406,0.644,0.676,-0.227,1.037,1.708,0.244,1
0.506656,0.637,0.68,-0.231,1.098,1.525,0.732,1
0.513161,0.644,0.685,-0.23,0.671,1.525,1.037,1
0.521829,0.643,0.686,-0.23,0.183,1.525,1.403,1
0.530831,0.643,0.694,-0.229,-0.244,1.708,1.525,1
0.537199,0.651,0.691,-0.232,-0.61,1.77,1.77,1
0.545656,0.651,0.698,-0.235,-0.183,1.708,1.953,1
0.554775,0.661,0.702,-0.227,0.305,1.892,1.892,1
0.562174,0.668,0.708,-0.233,0.488,2.014,2.197,1
0.569013,0.672,0.713,-0.233,0.976,1.892,2.075,1
0.57664,0.672,0.72,-0.236,1.22,1.831,2.197,1
0.585552,0.681,0.726,-0.235,0.976,1.831,2.136,1
0.592579,0.682,0.736,-0.242,0.366,1.708,1.892,1
0.600707,0.687,0.739,-0.245,0.0,1.464,1.892,1
0.607321,0.686,0.738,-0.245,-0.122,1.464,1.586,1
0.615741,0.69,0.743,-0.247,0.183,1.037,1.647,1
0.622577,0.687,0.741,-0.246,0.488,0.793,1.525,1
0.631014,0.687,0.751,-0.245,0.915,0.305,1.403,1
0.63747,0.681,0.757,-0.247,0.854,0.183,1.22,1
0.645648,0.681,0.759,-0.244,0.549,-0.061,0.793,1
0.652287,0.676,0.758,-0.246,-0.122,-0.305,0.732,1
0.660674,0.671,0.762,-0.246,-0.488,-0.488,0.305,1
0.669,0.672,0.761,-0.246,-0.549,-0.793,0.122,1
0.677387,0.668,0.762,-0.246,-0.305,-1.281,-0.305,1
0.683687,0.664,0.756,-0.237,-0.061,-1.464,-0.61,1
0.691869,0.664,0.753,-0.233,0.427,-1.708,-0.427,1
0.700654,0.665,0.748,-0.228,0.305,-1.647,-0.976,1
0.707555,0.664,0.746,-0.221,0.122,-1.892,-1.037,1
0.715951,0.665,0.737,-0.217,-0.061,-1.953,-1.342,1
0.725218,0.672,0.733,-0.206,-0.305,-1.953,-1.525,1
0.73354,0.667,0.726,-0.2,-0.244,-1.647,-1.586,1
0.740403,0.672,0.719,-0.196,0.061,-1.708,-1.892,1
0.748319,0.675,0.715,-0.187,0.183,-1.464,-1.647,1
0.75772,0.678,0.712,-0.181,0.671,-1.342,-1.708,1
0.76449,0.682,0.711,-0.178,1.22,-1.098,-1.525,1
0.772858,0.68,0.706,-0.171,1.281,-0.732,-1.464,1
0.781686,0.679,0.7,-0.164,1.22,-0.671,-1.403,1
0.788926,0.675,0.698,-0.16,0.427,0.0,-1.464,1
0.798226,0.678,0.692,-0.161,-0.244,0.305,-1.403,1
0.805215,0.675,0.694,-0.163,-0.061,0.854,-1.22,1
0.81271,0.672,0.688,-0.164,0.244,1.098,-0.976,1
0.821552,0.669,0.684,-0.166,0.671,1.342,-0.61,1
0.828199,0.666,0.685,-0.168,1.525,1.647,-0.305,1
0.836413,0.664,0.681,-0.175,1.708,1.831,-0.305,1
0.844793,0.659,0.681,-0.181,1.525,1.831,0.305,1
0.851571,0.655,0.679,-0.189,0.976,2.319,0.793,1
0.860244,0.652,0.682,-0.197,0.061,2.258,0.671,1
0.868489,0.652,0.686,-0.208,-0.305,2.197,1.281,1
0.87566,0.651,0.69,-0.224,-0.488,2.075,1.647,1
0.884498,0.65,0.693,-0.231,-0.366,1.831,2.136,1
0.892754,0.645,0.693,-0.241,0.427,1.831,2.014,1
0.900814,0.647,0.702,-0.246,0.854,1.403,2.624,1
0.909172,0.649,0.706,-0.254,1.22,0.793,2.807,1
0.916412,0.647,0.702,-0.257,0.976,0.549,2.99,1
0.923487,0.648,0.709,-0.259,0.854,0.549,3.112,1
0.932755,0.655,0.711,-0.264,0.427,0.244,3.112,1
0.940257,0.657,0.724,-0.26,0.732,-0.305,3.54,1
0.948086,0.662,0.729,-0.259,0.915,-0.549,3.295,1
0.95721,0.664,0.735,-0.253,0.915,-0.976,3.295,1
0.964735,0.671,0.741,-0.25,1.342,-1.159,3.356,1
0.9717,0.676,0.746,-0.244,1.647,-1.586,3.173,1
0.979555,0.678,0.75,-0.239,1.647,-1.525,2.685,1
0.987798,0.679,0.753,-0.232,2.014,-2.014,2.38,1
0.995688,0.687,0.761,-0.225,2.136,-2.075,2.319,1
1.004305,0.691,0.769,-0.218,2.258,-2.075,1.953,1
1.012489,0.692,0.773,-0.21,2.624,-2.197,1.647,1
1.018801,0.693,0.774,-0.203,2.807,-2.197,1.281,1
1.027388,0.695,0.781,-0.196,2.563,-2.197,0.732,1
1.034153,0.694,0.784,-0.189,1.586,-2.38,0.61,1
1.042381,0.692,0.784,-0.187,1.403,-1.77,-0.122,1
1.050462,0.691,0.78,-0.186,0.915,-1.708,-0.427,1
1.057581,0.687,0.775,-0.183,0.854,-1.77,-0.549,1
1.065474,0.684,0.775,-0.176,0.61,-1.77,-1.098,1
1.072061,0.682,0.775,-0.174,0.488,-1.281,-1.464,1
1.079954,0.675,0.772,-0.17,0.549,-1.22,-1.77,1
1.08817,0.671,0.772,-0.171,0.915,-1.159,-2.014,1
1.095211,0.665,0.761,-0.169,0.305,-0.732,-2.197,1
1.103329,0.662,0.756,-0.164,-0.183,-0.244,-2.319,1
1.112122,0.657,0.751,-0.163,-0.61,0.122,-2.502,1
1.118828,0.65,0.742,-0.166,-0.488,0.305,-2.502,1
1.127687,0.654,0.738,-0.169,-0.366,0.732,-2.441,1
1.134903,0.651,0.729,-0.172,-0.488,0.854,-2.624,1
1.143251,0.651,0.723,-0.173,-0.061,1.22,-2.746,1
1.151896,0.654,0.713,-0.173,0.427,1.342,-2.563,1
1.159131,0.657,0.709,-0.183,0.549,1.831,-2.319,1
1.168039,0.656,0.701,-0.185,0.61,1.708,-2.258,1
1.175419,0.658,0.697,-0.187,0.61,2.258,-1.892,1
1.184093,0.661,0.69,-0.195,0.427,2.258,-1.77,1
1.191892,0.661,0.684,-0.205,0.0,2.441,-1.464,1
1.199097,0.668,0.687,-0.21,-0.305,2.258,-1.22,1
1.207957,0.666,0.687,-0.217,0.0,2.075,-0.854,1
1.215688,0.667,0.688,-0.227,0.427,1.953,-0.732,1
1.223503,0.666,0.691,-0.229,0.793,1.708,-0.549,1
1.230545,0.666,0.685,-0.234,0.793,1.403,-0.122,1
1.23936,0.665,0.688,-0.238,0.366,1.342,0.061,1
1.246528,0.659,0.687,-0.247,0.122,0.976,0.244,1
1.254081,0.663,0.686,-0.247,-0.244,0.854,0.549,1
1.26324,0.661,0.695,-0.25,-0.244,0.549,0.732,1
1.270614,0.66,0.695,-0.249,0.0,0.244,1.037,1
1.27883,0.662,0.697,-0.244,0.122,-0.183,1.098,1
1.287201,0.665,0.703,-0.245,-0.122,-0.244,1.098,1
1.293983,0.667,0.708,-0.243,-0.671,-0.549,1.281,1
1.302495,0.669,0.714,-0.241,-0.671,-0.854,1.464,1
1.310852,0.668,0.714,-0.238,-0.61,-0.976,1.525,1
1.319525,0.666,0.722,-0.229,-0.305,-1.281,1.647,1
1.32637,0.668,0.727,-0.229,0.183,-1.586,1.647,1
1.334729,0.672,0.732,-0.227,0.549,-1.708,1.464,1
1.342009,0.673,0.739,-0.219,1.281,-1.708,1.586,1
1.351191,0.672,0.745,-0.216,2.197,-2.014,1.525,1
1.358345,0.68,0.75,-0.214,2.685,-1.708,1.464,1
1.366033,0.672,0.754,-0.214,2.502,-1.586,1.037,1
1.3746,0.675,0.757,-0.213,2.136,-1.464,0.976,1
1.382984,0.678,0.755,-0.218,1.159,-1.647,0.854,1
1.390612,0.671,0.753,-0.213,0.305,-1.831,0.427,1
1.398162,0.674,0.752,-0.209,-0.122,-1.708,0.183,1
1.405657,0.677,0.752,-0.204,0.061,-1.953,0.061,1
1.414082,0.672,0.749,-0.199,0.549,-1.892,0.061,1
1.422753,0.668,0.748,-0.193,0.793,-2.014,-0.305,1
1.430395,0.67,0.745,-0.186,0.732,-1.953,-0.427,1
1.439533,0.671,0.745,-0.175,0.427,-1.647,-0.366,1
1.447209,0.672,0.741,-0.167,0.976,-1.403,-0.427,1
1.454676,0.673,0.738,-0.165,1.22,-1.159,-0.366,1
1.463866,0.668,0.738,-0.161,1.098,-0.976,-0.671,1
1.470822,0.67,0.742,-0.162,0.549,-0.732,-0.61,1
1.478694,0.673,0.742,-0.161,0.427,-0.427,-0.793,1
1.48656,0.668,0.746,-0.159,-0.061,0.061,-0.671,1
1.495895,0.669,0.746,-0.164,-0.549,0.427,-0.915,1
1.502374,0.671,0.748,-0.17,-0.488,0.488,-1.037,1
1.511535,0.67,0.748,-0.174,-0.366,0.854,-1.22,1
1.518368,0.67,0.743,-0.18,-0.305,1.159,-1.342,1
1.527141,0.67,0.739,-0.18,0.0,1.098,-1.464,1
1.535782,0.67,0.732,-0.187,-0.061,1.403,-1.831,1
1.541911,0.671,0.725,-0.191,0.0,1.464,-1.831,1
1.550894,0.677,0.724,-0.199,-0.183,1.647,-1.586,1
1.558691,0.672,0.724,-0.2,-0.61,1.77,-1.77,1
1.567147,0.674,0.722,-0.204,-0.427,1.708,-1.586,1
1.57384,0.666,0.716,-0.207,-0.671,1.708,-1.892,1
1.582183,0.668,0.717,-0.208,-0.793,1.831,-1.77,1
1.590785,0.666,0.709,-0.214,-1.159,1.647,-1.708,1
1.59814,0.663,0.705,-0.22,-1.403,1.708,-1.464,1
1.605873,0.664,0.701,-0.22,-0.793,1.525,-1.159,1
1.614149,0.664,0.697,-0.22,-0.244,1.464,-1.037,1
1.622129,0.663,0.699,-0.22,0.427,1.159,-0.915,1
1.628857,0.661,0.696,-0.223,0.61,1.22,-0.793,1
1.637742,0.665,0.693,-0.219,0.671,0.793,-0.488,1
1.643481,0.662,0.686,-0.219,0.427,0.976,-0.366,1
1.6513,0.663,0.688,-0.225,0.061,0.854,-0.183,1
1.658803,0.664,0.688,-0.222,-0.122,0.671,0.244,1
1.667709,0.657,0.689,-0.22,-0.183,0.61,0.488,1
1.67658,0.659,0.687,-0.222,-0.061,0.732,0.671,1
1.68264,0.658,0.688,-0.221,0.0,0.183,1.098,1
1.690896,0.653,0.697,-0.222,0.305,0.183,1.281,1
1.698405,0.663,0.703,-0.221,0.183,0.244,1.159,1
1.70688,0.661,0.712,-0.221,0.427,-0.061,1.525,1
1.714476,0.666,0.71,-0.216,0.488,-0.183,1.647,1
1.723412,0.667,0.71,-0.212,0.427,-0.122,1.647,1
1.730598,0.666,0.716,-0.21,0.549,0.0,1.831,1
1.739366,0.668,0.718,-0.207,0.854,-0.061,1.892,1
1.7469,0.666,0.724,-0.207,1.098,-0.061,1.892,1
1.755089,0.67,0.727,-0.208,1.22,-0.122,2.075,1
1.762478,0.669,0.736,-0.2,1.281,0.0,1.708,1
1.771501,0.666,0.74,-0.198,1.342,0.061,1.953,1
1.778253,0.67,0.74,-0.196,1.403,0.0,1.708,1
1.786496,0.666,0.742,-0.196,1.525,0.183,1.586,1
1.794052,0.666,0.737,-0.193,1.403,0.427,1.403,1
1.801609,0.668,0.739,-0.192,0.915,0.366,1.403,1
1.809841,0.669,0.744,-0.197,0.854,0.61,1.22,1
1.818085,0.67,0.744,-0.2,0.732,0.671,1.098,1
1.826037,0.666,0.749,-0.203,0.61,0.549,0.976,1
1.832935,0.669,0.745,-0.202,0.488,0.427,1.159,1
1.841819,0.675,0.749,-0.196,0.488,0.793,0.915,1
1.848289,0.68,0.749,-0.197,0.854,0.305,0.976,1
1.85572,0.682,0.75,-0.191,0.854,0.915,0.793,1
1.863195,0.686,0.755,-0.19,0.671,0.854,0.488,1
1.872184,0.685,0.759,-0.192,0.549,0.793,0.244,1
1.879818,0.689,0.766,-0.193,0.366,0.732,0.305,1
1.88747,0.687,0.772,-0.18,-0.854,0.976,-0.427,1
1.896428,0.687,0.78,-0.167,-3.051,1.22,-0.854,1
1.903319,0.701,0.796,-0.141,-5.187,1.281,-1.403,1
1.912215,0.708,0.816,-0.104,-6.164,1.647,-1.831,1
1.920918,0.709,0.844,-0.062,-4.272,2.136,-2.38,1
1.927549,0.721,0.86,-0.03,0.427,2.807,-3.295,1
1.934253,0.721,0.875,-0.007,3.601,3.906,-3.906,1
1.942053,0.727,0.892,0.015,5.004,5.004,-4.76,1
1.949588,0.738,0.925,0.039,6.225,6.469,-5.92,1
1.95714,0.752,0.96,0.07,10.07,7.873,-7.446,1
1.964505,0.761,0.993,0.097,16.052,9.399,-8.666,1
1.973048,0.779,1.033,0.129,24.841,11.047,-10.864,1
1.980598,0.796,1.056,0.166,36.254,12.817,-12.878,1
1.98901,0.816,1.067,0.204,50.231,15.197,-15.319,1
1.996087,0.831,1.069,0.245,64.697,17.639,-17.883,1
2.00465,0.818,1.046,0.274,76.66,20.874,-20.141,1
2.012437,0.823,1.004,0.287,82.275,24.597,-22.033,1
2.019492,0.7,0.735,0.219,51.696,30.7,-19.165,1
2.027703,0.958,0.94,0.263,24.353,38.146,-24.047,1
2.034901,0.72,0.943,0.321,16.601,40.649,-25.573,1
2.044134,0.728,1.002,0.337,20.019,45.898,-27.832,1
2.05083,0.747,0.96,0.348,18.798,47.363,-29.113,1
2.058153,0.754,0.977,0.331,19.592,52.978,-31.372,1
2.065556,0.7,0.971,0.325,17.15,56.335,-32.775,1
2.072999,0.699,0.957,0.296,12.023,60.729,-34.24,1
2.080047,0.7,0.943,0.27,4.699,63.415,-35.888,1
2.087642,0.667,0.938,0.242,-2.075,67.687,-37.475,1
2.09576,0.651,0.933,0.201,-7.934,70.983,-39.489,1
2.103668,0.657,0.912,0.152,-12.023,74.279,-41.259,1
2.111992,0.638,0.909,0.11,-20.141,77.697,-43.884,1
2.119732,0.627,0.904,0.078,-27.526,81.115,-46.02,1
2.129056,0.622,0.888,0.008,-31.799,83.557,-48.583,1
2.136536,0.621,0.867,-0.05,-30.151,85.327,-50.537,1
2.144416,0.598,0.835,-0.107,-23.681,86.181,-52.49,1
2.153758,0.575,0.775,-0.16,-16.906,87.158,-53.527,1
2.161596,0.554,0.701,-0.23,-10.925,87.951,-54.382,1
2.169021,0.529,0.621,-0.28,-5.92,88.928,-54.138,1
2.178299,0.492,0.517,-0.341,-2.197,89.355,-53.039,1
2.185474,0.463,0.427,-0.384,-0.549,90.637,-50.781,1
2.194363,0.434,0.347,-0.403,-5.676,92.163,-48.4,1
2.201677,0.376,0.3,-0.408,-15.808,95.825,-45.166,1
2.210752,0.348,0.26,-0.45,-17.272,97.045,-42.114,1
2.217728,0.299,0.201,-0.487,-15.441,99.243,-38.818,1
2.226107,0.253,0.142,-0.543,-21.789,101.196,-34.24,1
2.235087,0.222,0.098,-0.6,-33.203,103.637,-30.029,1
2.242155,0.189,0.047,-0.694,-45.837,104.797,-25.024,1
2.251353,0.156,0.006,-0.784,-48.217,104.675,-20.385,1
2.25859,0.102,-0.033,-0.847,-46.752,102.905,-14.526,1
2.267008,0.077,-0.084,-0.904,-42.297,101.257,-9.094,1
2.275299,0.061,-0.158,-0.971,-40.344,98.937,-2.014,1
2.284379,0.041,-0.209,-1.027,-43.518,97.045,4.272,1
2.292867,0.036,-0.243,-1.113,-51.696,94.726,12.023,1
2.299816,0.022,-0.258,-1.206,-60.974,92.163,18.981,1
2.308329,-0.003,-0.261,-1.316,-67.504,88.073,25.634,1
2.316201,-0.032,-0.266,-1.464,-67.626,81.481,33.935,1
2.324863,-0.015,-0.294,-1.613,-65.917,74.646,41.381,1
2.332787,0.0,-0.322,-1.802,-67.26,65.002,50.415,1
2.340604,0.006,-0.321,-1.952,-66.955,54.443,58.105,1
2.349945,-0.014,-0.314,-2.115,-63.903,43.64,65.917,1
2.3569,0.03,-0.324,-2.32,-68.054,29.479,75.256,1
2.366283,-0.08,-0.303,-2.446,-84.411,16.174,84.838,1
2.374087,-0.085,-0.259,-2.615,-94.543,1.098,92.102,1
2.382205,-0.166,-0.233,-2.737,-90.515,-16.479,101.928,1
2.389919,-0.187,-0.227,-2.868,-80.139,-34.24,110.717,1
2.398309,-0.254,-0.211,-2.974,-65.856,-56.091,120.666,1
2.406446,-0.307,-0.192,-3.062,-59.997,-74.951,129.638,1
2.415069,-0.385,-0.161,-3.131,-58.044,-97.595,140.075,1
2.423466,-0.465,-0.099,-3.174,-56.274,-117.187,148.864,1
2.432007,-0.593,-0.024,-3.186,-50.781,-140.869,158.142,1
2.438976,-0.703,0.048,-3.162,-44.006,-160.522,165.71,1
2.447712,-0.829,0.145,-3.098,-35.705,-184.082,173.461,1
2.456745,-0.958,0.227,-3.018,-30.944,-203.124,179.138,1
2.463626,-1.12,0.349,-2.895,-33.142,-224.243,185.058,1
2.472166,-1.292,0.527,-2.761,-37.597,-241.027,189.392,1
2.48112,-1.458,0.693,-2.618,-40.954,-260.131,193.359,1
2.488761,-1.653,0.874,-2.447,-41.259,-277.709,195.8,1
2.497699,-1.781,1.018,-2.281,-42.297,-292.053,196.472,1
2.505466,-1.905,1.183,-2.099,-45.898,-306.274,196.533,1
2.514659,-2.095,1.379,-1.883,-47.363,-319.702,196.35,1
2.521979,-2.134,1.56,-1.731,-44.433,-331.115,194.824,1
2.530778,-2.224,1.763,-1.514,-36.132,-343.383,191.162,1
2.538398,-2.323,1.926,-1.335,-30.273,-353.027,186.645,1
2.547741,-2.377,2.109,-1.116,-30.883,-361.145,180.603,1
2.555427,-2.388,2.266,-0.925,-31.677,-369.201,172.302,1
2.564215,-2.38,2.457,-0.676,-29.357,-375.488,163.818,1
2.571667,-2.371,2.655,-0.44,-23.864,-380.859,151.611,1
2.580809,-2.393,2.843,-0.202,-17.944,-384.643,139.587,1
2.586956,-2.321,3.047,0.111,-7.995,-386.718,122.68,1
2.596441,-2.22,3.202,0.38,6.347,-385.803,106.079,1
2.602667,-2.105,3.272,0.65,21.972,-383.972,87.219,1
2.611109,-1.995,3.277,0.887,27.343,-379.943,67.321,1
2.618541,-1.863,3.252,1.135,30.09,-372.68,43.945,1
2.627683,-1.711,3.176,1.338,29.602,-364.074,24.475,1
2.63626,-1.577,3.1,1.526,25.817,-354.248,5.676,1
2.643015,-1.45,2.964,1.717,20.324,-341.308,-15.136,1
2.651929,-1.339,2.814,1.819,9.277,-328.857,-31.005,1
2.658901,-1.214,2.671,1.92,-1.281,-316.589,-45.593,1
2.667999,-1.081,2.478,2.029,-1.342,-301.818,-60.852,1
2.676403,-0.958,2.268,2.037,-1.037,-288.696,-72.265,1
2.683647,-0.829,2.019,2.009,-8.666,-274.23,-83.618,1
2.691819,-0.729,1.827,1.997,-13.183,-262.084,-91.308,1
2.701343,-0.643,1.598,2.007,-12.756,-248.901,-98.693,1
2.709157,-0.561,1.363,2.008,-10.07,-236.083,-103.698,1
2.716974,-0.477,1.158,1.995,-10.131,-224.426,-106.75,1
2.725834,-0.414,0.947,1.976,-18.066,-210.388,-108.398,1
2.734857,-0.343,0.723,1.964,-32.47,-197.875,-107.482,1
2.741618,-0.277,0.64,1.966,-47.424,-182.739,-105.895,1
2.750175,-0.154,0.513,1.965,-43.579,-172.302,-103.637,1
2.75936,-0.069,0.416,1.944,-30.944,-159.729,-100.585,1
2.766253,-0.005,0.338,1.921,-20.263,-150.512,-98.144,1
2.774757,0.097,0.249,1.911,-8.178,-138.977,-95.031,1
2.782472,0.163,0.146,1.859,-4.821,-129.089,-91.796,1
2.792478,0.234,0.083,1.825,-11.047,-116.333,-87.28,1
2.799406,0.283,0.046,1.766,-16.052,-106.628,-82.763,1
2.807247,0.319,0.033,1.695,-17.639,-95.642,-76.843,1
2.814645,0.333,0.074,1.612,-12.39,-88.439,-72.326,1
2.824094,0.342,0.068,1.559,-4.76,-81.481,-68.481,1
2.830883,0.387,0.025,1.481,-7.934,-73.608,-63.842,1
2.838594,0.427,0.018,1.438,-25.756,-64.086,-57.617,1
2.847703,0.406,0.066,1.418,-30.761,-57.006,-52.673,1
2.855223,0.448,0.1,1.374,-20.629,-50.537,-46.081,1
2.862456,0.462,0.131,1.344,-9.277,-44.677,-41.564,1
2.871745,0.478,0.131,1.28,-3.784,-39.123,-37.414,1
2.879218,0.521,0.141,1.228,-4.516,-32.897,-32.714,1
2.887549,0.542,0.17,1.166,-7.08,-27.282,-28.747,1
2.894375,0.561,0.216,1.104,-6.347,-22.766,-25.268,1
2.902938,0.577,0.246,1.047,-3.784,-18.554,-22.338,1
2.91029,0.586,0.285,0.979,-0.854,-14.16,-19.226,1
2.918583,0.604,0.313,0.905,-2.258,-9.704,-16.845,1
2.926804,0.638,0.34,0.83,-10.192,-5.859,-15.136,1
2.935048,0.653,0.382,0.761,-19.653,-2.685,-13.61,1
2.943735,0.662,0.416,0.709,-24.475,0.122,-12.207,1
2.950598,0.661,0.45,0.672,-22.277,1.342,-11.047,1
2.95912,0.657,0.476,0.637,-15.991,2.624,-9.887,1
2.965489,0.649,0.499,0.598,-8.056,3.051,-8.666,1
2.973796,0.644,0.513,0.551,0.061,3.417,-7.568,1
2.980798,0.649,0.53,0.504,4.577,3.967,-6.774,1
2.988813,0.658,0.533,0.463,2.807,4.882,-5.676,1
2.998061,0.674,0.539,0.417,-4.15,6.103,-4.882,1
3.004565,0.687,0.557,0.369,-11.779,6.835,-4.028,1
3.01303,0.691,0.587,0.33,-15.991,6.347,-3.54,1
3.021348,0.7,0.612,0.289,-16.418,5.187,-2.929,1
3.029054,0.7,0.63,0.258,-14.282,3.784,-2.929,1
3.037768,0.698,0.65,0.232,-12.145,2.136,-2.929,1
3.045556,0.694,0.662,0.21,-11.718,0.427,-3.173,1
3.052994,0.703,0.666,0.189,-13.061,-1.159,-3.295,1
3.061933,0.718,0.675,0.177,-14.404,-3.54,-3.479,1
3.068963,0.725,0.672,0.19,-13.61,-5.493,-3.845,1
3.078057,0.737,0.666,0.206,-10.62,-7.202,-4.028,1
3.085234,0.746,0.66,0.228,-7.446,-9.155,-4.638,1
3.093547,0.746,0.649,0.246,-7.08,-10.192,-4.76,1
3.101514,0.747,0.646,0.268,-8.911,-10.803,-4.943,1
3.109219,0.752,0.647,0.291,-11.23,-11.474,-5.065,1
3.11682,0.755,0.646,0.298,-12.756,-11.291,-5.554,1
3.126344,0.761,0.644,0.31,-14.404,-11.535,-5.432,1
3.133189,0.762,0.64,0.319,-16.723,-11.291,-5.737,1
3.141887,0.758,0.637,0.326,-17.883,-11.23,-5.92,1
3.150088,0.751,0.626,0.344,-16.845,-11.291,-5.798,1
3.158724,0.741,0.617,0.36,-14.892,-11.413,-5.676,1
3.167579,0.722,0.615,0.379,-13.061,-11.108,-5.676,1
3.174654,0.708,0.605,0.388,-12.512,-10.803,-5.126,1
3.182753,0.709,0.607,0.394,-12.756,-10.375,-4.882,1
3.190058,0.7,0.603,0.402,-13.671,-9.582,-4.333,1
3.197726,0.705,0.599,0.412,-13.061,-9.094,-4.028,1
3.206301,0.708,0.596,0.425,-10.192,-8.911,-3.479,1
3.213029,0.702,0.59,0.434,-7.324,-8.361,-3.051,1
3.222122,0.696,0.581,0.441,-6.042,-7.629,-2.441,1
3.229169,0.692,0.582,0.444,-5.92,-6.835,-1.77,1
3.238791,0.683,0.589,0.436,-6.652,-5.737,-1.037,1
3.24628,0.678,0.601,0.435,-6.469,-5.004,-0.549,1
3.253704,0.678,0.603,0.43,-6.103,-4.577,-0.061,1
3.261188,0.687,0.609,0.423,-6.286,-3.967,0.122,1
3.269254,0.683,0.616,0.417,-7.08,-3.295,0.366,1
3.276897,0.687,0.617,0.409,-8.789,-2.685,0.793,1
3.28627,0.695,0.62,0.4,-10.437,-2.014,1.22,1
3.294611,0.695,0.621,0.39,-11.474,-1.586,1.525,1
3.300692,0.698,0.622,0.395,-12.512,-1.281,1.77,1
3.309615,0.688,0.62,0.399,-13.61,-0.976,2.197,1
3.318102,0.687,0.621,0.404,-14.404,-0.183,2.319,1
3.325071,0.692,0.625,0.41,-13.793,0.061,2.563,1
3.332723,0.694,0.625,0.41,-11.779,0.549,2.99,1
3.341356,0.688,0.626,0.403,-9.582,1.098,3.173,1
3.347875,0.695,0.633,0.388,-8.728,1.647,3.601,1
3.356768,0.698,0.648,0.38,-7.202,1.708,3.662,1
3.362847,0.7,0.659,0.369,-5.004,2.075,4.272,1
3.371528,0.688,0.677,0.362,-4.882,2.441,3.967,1
3.378567,0.683,0.686,0.352,-5.798,2.685,4.028,1
3.386254,0.684,0.698,0.346,-6.591,2.746,3.662,1
3.39409,0.684,0.698,0.344,-6.225,2.929,3.356,1
3.401597,0.679,0.702,0.343,-4.516,2.99,3.051,1
3.411129,0.678,0.704,0.343,-2.807,2.99,2.868,1
3.418095,0.675,0.714,0.337,-1.098,2.807,2.685,1
3.425236,0.668,0.719,0.332,1.831,2.99,2.319,1
3.433767,0.675,0.726,0.329,4.15,2.99,2.136,1
3.44215,0.68,0.73,0.326,4.882,3.112,1.525,1
3.44871,0.678,0.726,0.311,3.173,3.173,1.281,1
3.456217,0.688,0.729,0.305,0.671,3.295,0.854,1
3.465,0.687,0.732,0.304,-1.892,3.051,0.488,1
3.472093,0.687,0.73,0.306,-2.99,3.479,0.061,1
3.480057,0.686,0.729,0.312,-2.624,3.234,-0.122,1
3.487033,0.69,0.726,0.311,-1.953,3.112,-0.427,1
3.496303,0.698,0.721,0.314,-1.159,2.99,-0.366,1
3.504512,0.702,0.715,0.322,-0.549,2.807,-0.549,1
3.511393,0.701,0.711,0.328,-0.061,3.112,-0.427,1
3.520578,0.707,0.716,0.333,0.366,3.295,-0.549,1
3.52701,0.709,0.717,0.331,1.525,3.784,-0.793,1
3.536059,0.71,0.718,0.323,2.258,3.906,-0.854,1
3.543395,0.71,0.719,0.312,2.197,4.15,-1.159,1
3.550804,0.71,0.715,0.301,2.014,4.272,-1.403,1
3.559045,0.708,0.712,0.29,0.793,4.333,-1.525,1
3.566183,0.705,0.72,0.276,0.0,4.272,-1.708,1
3.57549,0.703,0.724,0.27,0.488,3.906,-2.38,1
3.583159,0.701,0.721,0.261,0.732,3.54,-2.502,1
3.590041,0.698,0.721,0.254,0.183,3.295,-2.99,1
3.598909,0.695,0.719,0.243,-0.793,2.746,-3.173,1
3.606242,0.686,0.721,0.242,-1.464,2.075,-3.601,1
3.615679,0.687,0.717,0.245,-1.037,1.708,-4.028,1
3.622728,0.685,0.707,0.247,-0.244,0.854,-4.333,1
3.631812,0.686,0.701,0.25,0.061,0.488,-4.516,1
3.639054,0.684,0.693,0.254,0.488,0.244,-4.516,1
3.646326,0.684,0.687,0.256,0.549,-0.305,-4.699,1
3.653959,0.684,0.679,0.265,0.305,-0.427,-4.76,1
3.662025,0.689,0.67,0.262,-0.305,-0.61,-4.516,1
3.670901,0.686,0.662,0.265,-0.854,-1.098,-4.272,1
3.678868,0.684,0.666,0.265,-1.159,-1.342,-4.272,1
3.686526,0.68,0.66,0.271,-1.525,-1.708,-4.272,1
3.69525,0.681,0.655,0.278,-1.586,-1.953,-4.272,1
3.70261,0.687,0.647,0.288,-1.953,-2.38,-3.906,1
3.710243,0.69,0.645,0.295,-2.685,-2.502,-3.784,1
3.719136,0.694,0.635,0.304,-2.685,-2.38,-3.906,1
3.727404,0.697,0.632,0.312,-2.136,-2.502,-3.417,1
3.735089,0.703,0.623,0.318,-1.586,-2.502,-3.356,1
3.74281,0.703,0.624,0.325,-1.77,-2.502,-3.112,1
3.750398,0.705,0.62,0.333,-2.319,-2.258,-2.624,1
3.758158,0.702,0.619,0.333,-2.868,-1.953,-2.319,1
3.767344,0.703,0.627,0.335,-3.173,-1.586,-2.136,1
3.775929,0.71,0.627,0.328,-3.479,-1.22,-1.708,1
3.782838,0.706,0.637,0.327,-3.723,-1.342,-1.586,1
3.791762,0.71,0.636,0.327,-3.356,-1.342,-1.464,1
3.799818,0.712,0.638,0.324,-2.685,-1.342,-1.098,1
3.807797,0.703,0.642,0.316,-1.037,-1.525,-0.976,1
3.815057,0.705,0.647,0.323,-0.366,-1.403,-0.732,1
3.823984,0.699,0.647,0.328,-0.671,-1.525,-0.61,1
3.831101,0.698,0.654,0.327,-0.671,-1.342,-0.732,1
3.84006,0.69,0.655,0.334,-0.549,-1.342,-0.732,1
3.847155,0.687,0.658,0.338,-1.22,-1.22,-0.793,1
3.856101,0.681,0.666,0.334,-1.037,-0.732,-0.915,1
3.863729,0.679,0.668,0.325,-1.098,-0.732,-1.037,1
3.871563,0.687,0.666,0.32,-2.197,-0.854,-1.22,1
3.878743,0.684,0.669,0.316,-3.54,-0.427,-0.976,1
3.887018,0.683,0.672,0.318,-3.723,-0.61,-1.098,1
3.894182,0.685,0.671,0.315,-3.051,-0.732,-1.281,1
3.902134,0.683,0.67,0.32,-2.685,-1.098,-1.22,1
3.910945,0.686,0.669,0.325,-2.563,-1.037,-0.915,1
3.918228,0.688,0.674,0.329,-2.746,-0.976,-1.037,1
3.927821,0.697,0.673,0.334,-2.136,-0.732,-1.098,1
3.934641,0.7,0.68,0.336,-1.403,-0.549,-0.793,1
3.942504,0.699,0.684,0.335,-0.305,-0.488,-1.159,1
3.949743,0.703,0.679,0.338,0.305,-0.122,-0.976,1
3.958534,0.703,0.688,0.326,-0.366,0.0,-1.281,1
3.965326,0.704,0.687,0.32,-0.549,0.366,-1.403,1
3.9742,0.702,0.689,0.318,-0.732,0.427,-1.525,1
3.982135,0.708,0.684,0.312,-0.122,0.305,-1.647,1
3.990601,0.705,0.683,0.306,0.244,0.366,-1.831,1
3.998145,0.703,0.677,0.298,-0.122,0.366,-1.953,1
4.004769,0.702,0.674,0.296,-0.671,0.427,-2.075,1
4.013346,0.712,0.674,0.293,-0.488,0.122,-1.77,1
4.02065,0.708,0.676,0.291,-0.488,0.061,-2.197,1
4.027895,0.706,0.68,0.286,-0.244,0.0,-1.953,1
4.035484,0.702,0.681,0.283,-0.549,-0.244,-1.831,1
4.044718,0.704,0.681,0.28,-0.732,-0.366,-2.014,1
4.052266,0.702,0.678,0.277,-1.403,-0.732,-2.258,1
4.059705,0.697,0.676,0.273,-3.479,-0.793,-2.685,1
4.068108,0.7,0.684,0.267,-4.272,-0.915,-2.746,1
4.075949,0.7,0.684,0.266,-4.394,-1.098,-2.868,1
4.083556,0.701,0.688,0.266,-3.112,-1.464,-2.99,1
4.092527,0.699,0.685,0.269,-2.197,-1.953,-3.051,1
4.101169,0.706,0.679,0.273,-2.136,-2.075,-3.234,1
4.108276,0.7,0.678,0.276,-2.99,-2.38,-3.112,1
4.114946,0.707,0.675,0.274,-4.211,-2.441,-3.356,1
4.124756,0.712,0.674,0.276,-3.601,-2.99,-3.356,1
4.131564,0.712,0.67,0.288,-2.075,-2.868,-3.295,1
4.13847,0.708,0.67,0.282,-1.525,-3.417,-3.479,1
4.146411,0.705,0.667,0.288,-1.159,-3.601,-3.417,1
4.155084,0.708,0.666,0.291,-0.732,-3.967,-3.784,1
4.162533,0.708,0.663,0.302,-0.244,-4.089,-3.54,1
4.171578,0.712,0.67,0.312,0.122,-4.089,-3.417,1
4.178651,0.714,0.672,0.314,0.61,-4.028,-3.417,1
4.1864,0.716,0.684,0.319,2.441,-4.394,-3.601,1
4.195122,0.715,0.691,0.325,4.821,-4.516,-3.479,1
4.202067,0.713,0.69,0.332,6.774,-4.394,-3.906,1
4.210462,0.708,0.696,0.34,7.507,-4.577,-4.15,1
4.218013,0.707,0.701,0.341,7.69,-4.15,-4.394,1
4.226601,0.707,0.707,0.346,8.239,-4.333,-4.76,1
4.233801,0.705,0.705,0.354,8.728,-4.15,-5.187,1
4.24238,0.704,0.701,0.356,7.751,-3.662,-5.31,1
4.250629,0.703,0.7,0.36,5.432,-3.173,-5.493,1
4.257761,0.704,0.708,0.365,3.967,-2.807,-5.859,1
4.265568,0.71,0.706,0.369,3.54,-2.624,-6.225,1
4.273583,0.714,0.702,0.38,3.234,-2.136,-6.408,1
4.282926,0.711,0.692,0.381,2.99,-1.647,-6.835,1
4.289592,0.716,0.689,0.394,3.54,-1.159,-6.896,1
4.29714,0.724,0.686,0.394,4.394,-0.854,-7.141,1
4.30498,0.732,0.685,0.403,5.615,-0.366,-7.507,1
4.31405,0.735,0.674,0.413,5.676,0.793,-7.812,1
4.321365,0.744,0.664,0.428,4.028,1.342,-7.751,1
4.329415,0.745,0.659,0.45,3.051,2.38,-7.812,1
4.336576,0.745,0.651,0.467,2.258,3.601,-7.751,1
4.344206,0.751,0.652,0.471,1.953,5.187,-7.995,1
4.351916,0.775,0.652,0.476,3.112,6.53,-8.117,1
4.360931,0.804,0.657,0.48,4.821,7.812,-7.995,1
4.368753,0.819,0.667,0.471,5.676,9.033,-7.873,1
4.376084,0.814,0.68,0.464,5.615,10.131,-8.239,1
4.384533,0.806,0.707,0.469,8.239,11.901,-8.422,1
4.391319,0.81,0.724,0.445,11.108,12.512,-8.728,1
4.398915,0.812,0.734,0.44,14.099,12.817,-8.544,1
4.40696,0.809,0.746,0.43,15.991,13.488,-8.544,1
4.414919,0.804,0.767,0.421,16.296,14.16,-8.728,1
4.421692,0.797,0.79,0.415,16.052,14.709,-9.033,1
4.430965,0.8,0.803,0.424,15.624,16.296,-9.826,1
4.437704,0.79,0.829,0.426,14.953,17.639,-10.803,1
4.445428,0.757,0.84,0.41,11.779,19.165,-12.39,1
4.454093,0.745,0.841,0.405,8.3,20.629,-13.854,1
4.461257,0.746,0.829,0.381,3.784,22.094,-15.624,1
4.470449,0.733,0.811,0.357,-1.464,23.376,-17.089,1
4.477624,0.723,0.799,0.331,-7.019,24.353,-19.104,1
4.484815,0.718,0.783,0.306,-9.765,24.963,-20.507,1
4.492697,0.724,0.763,0.288,-9.033,25.024,-21.728,1
4.500511,0.721,0.739,0.257,-7.202,24.841,-23.193,1
4.508347,0.712,0.712,0.218,-7.08,24.23,-24.291,1
4.517711,0.715,0.693,0.182,-8.483,23.254,-25.39,1
4.525087,0.729,0.674,0.168,-10.314,22.644,-25.878,1
4.532416,0.726,0.646,0.144,-12.695,21.301,-26.55,1
4.541265,0.728,0.631,0.13,-14.343,20.263,-27.038,1
4.548326,0.725,0.629,0.097,-14.953,18.615,-27.465,1
4.556246,0.717,0.614,0.083,-14.099,16.784,-27.526,1
4.56395,0.722,0.587,0.059,-12.268,14.77,-27.709,1
4.573069,0.731,0.575,0.027,-11.779,12.634,-27.526,1
4.579571,0.734,0.565,0.0,-12.145,9.948,-27.16,1
4.587839,0.729,0.561,-0.024,-12.023,7.507,-27.099,1
4.595179,0.741,0.555,-0.036,-10.498,4.699,-26.672,1
4.604095,0.751,0.542,-0.038,-8.117,1.77,-26.55,1
4.612454,0.744,0.531,-0.036,-6.225,-1.159,-26.184,1
4.619383,0.732,0.531,-0.034,-6.286,-3.356,-25.878,1
4.628665,0.728,0.528,-0.029,-7.08,-5.615,-25.634,1
4.635956,0.727,0.528,-0.019,-7.263,-8.239,-25.512,1
4.643754,0.719,0.516,0.0,-6.53,-10.07,-25.207,1
4.653061,0.711,0.511,0.005,-6.042,-12.512,-24.963,1
4.66004,0.711,0.51,0.018,-4.821,-14.648,-24.719,1
4.669125,0.721,0.509,0.034,-3.356,-16.906,-24.353,1
4.677034,0.728,0.5,0.056,-2.502,-18.31,-24.169,1
4.68427,0.726,0.495,0.074,-2.258,-20.202,-23.62,1
4.693149,0.732,0.492,0.092,-4.394,-21.484,-23.193,1
4.700713,0.729,0.5,0.11,-4.821,-22.216,-23.071,1
4.709838,0.732,0.495,0.132,-4.638,-23.681,-22.338,1
4.71759,0.738,0.479,0.149,-3.417,-24.536,-22.094,1
4.724562,0.752,0.462,0.173,-1.647,-25.695,-21.423,1
4.732648,0.756,0.446,0.186,0.0,-26.428,-20.385,1
4.740767,0.769,0.436,0.204,1.159,-26.977,-19.042,1
4.74803,0.781,0.429,0.226,2.563,-27.343,-18.066,1
4.756968,0.783,0.419,0.249,3.662,-27.954,-16.723,1
4.764596,0.796,0.415,0.273,5.126,-27.893,-15.747,1
4.771972,0.795,0.412,0.306,5.371,-27.893,-14.16,1
4.78025,0.792,0.418,0.321,4.943,-27.526,-13.244,1
4.788373,0.802,0.42,0.342,4.089,-26.977,-12.145,1
4.795402,0.802,0.418,0.373,3.417,-26.916,-11.352,1
4.803684,0.81,0.403,0.404,2.38,-25.756,-10.559,1
4.810744,0.802,0.395,0.431,0.854,-24.902,-9.826,1
4.819173,0.797,0.394,0.448,-0.366,-23.498,-8.85,1
4.826891,0.791,0.401,0.462,-0.427,-22.399,-8.3,1
4.833702,0.781,0.406,0.475,0.793,-21.423,-7.629,1
4.841615,0.778,0.406,0.486,1.281,-20.202,-6.713,1
4.849641,0.776,0.406,0.497,0.427,-18.798,-6.164,1
4.857109,0.77,0.411,0.496,-2.197,-17.089,-5.371,1
4.86667,0.771,0.422,0.493,-4.76,-15.319,-4.577,1
4.873391,0.781,0.427,0.488,-4.577,-14.221,-4.028,1
4.882751,0.775,0.428,0.486,-3.845,-13.366,-3.662,1
4.890708,0.782,0.426,0.479,-2.99,-12.268,-2.868,1
4.898031,0.779,0.436,0.472,-2.319,-11.291,-1.831,1
4.907342,0.776,0.449,0.469,-1.22,-10.559,-1.342,1
4.914389,0.77,0.455,0.471,-0.549,-10.131,-0.61,1
4.922932,0.769,0.46,0.469,-0.549,-9.338,-0.061,1
4.930094,0.772,0.453,0.466,-0.793,-8.422,0.305,1
4.938203,0.771,0.459,0.456,-1.892,-7.446,0.976,1
4.946693,0.771,0.47,0.449,-2.502,-6.713,1.464,1
4.954545,0.772,0.477,0.438,-1.159,-6.286,1.647,1
4.962377,0.77,0.485,0.44,0.488,-5.981,2.075,1
4.969186,0.76,0.48,0.438,2.197,-5.432,2.319,1
4.976721,0.757,0.486,0.429,1.892,-4.577,2.685,1
4.984215,0.751,0.499,0.406,0.183,-3.906,2.99,1
4.993227,0.75,0.508,0.391,-1.342,-3.723,2.929,1
5.001245,0.753,0.515,0.37,-2.502,-3.479,2.685,1
5.008274,0.755,0.523,0.352,-3.234,-3.54,2.807,1
5.017398,0.759,0.526,0.332,-2.929,-3.54,2.685,1
5.025131,0.756,0.531,0.312,-1.586,-3.967,2.746,1
5.031045,0.753,0.531,0.298,-0.488,-4.699,2.441,1
5.039901,0.758,0.532,0.294,1.037,-5.31,2.502,1
5.047384,0.757,0.527,0.282,1.037,-5.798,2.38,1
5.054279,0.754,0.526,0.266,0.305,-6.835,2.624,1
5.063203,0.757,0.528,0.262,0.854,-7.751,2.685,1
5.071122,0.755,0.525,0.248,1.77,-8.544,2.38,1
5.079356,0.754,0.523,0.237,0.915,-9.582,2.441,1
5.086717,0.759,0.515,0.223,-0.976,-10.07,2.38,1
5.095411,0.75,0.519,0.21,-3.234,-11.23,2.624,1
5.103435,0.756,0.519,0.202,-4.76,-12.329,2.563,1
5.110578,0.757,0.52,0.198,-5.432,-13.61,2.624,1
5.119281,0.759,0.514,0.193,-5.187,-15.075,2.807,1
5.126053,0.768,0.505,0.19,-4.821,-16.601,2.868,1
5.133468,0.76,0.5,0.189,-3.906,-18.005,3.295,1
5.141687,0.762,0.49,0.18,-3.723,-19.714,3.234,1
5.149106,0.763,0.463,0.173,-2.929,-21.484,3.601,1
5.157493,0.761,0.44,0.171,-2.319,-23.559,3.845,1
5.165577,0.755,0.413,0.168,-3.234,-26.306,4.272,1
5.172693,0.756,0.387,0.174,-4.333,-28.808,4.821,1
5.181527,0.752,0.355,0.192,-4.821,-31.616,5.676,1
5.190658,0.752,0.307,0.224,-5.432,-33.996,6.652,1
5.197343,0.764,0.237,0.276,-8.789,-37.048,8.361,1
5.204545,0.789,0.173,0.331,-15.869,-39.489,10.314,1
5.212136,0.776,0.09,0.412,-25.634,-41.503,13.977,1
5.21974,0.758,0.041,0.534,-34.057,-42.541,18.249,1
5.227718,0.72,0.038,0.718,-32.592,-43.945,22.46,1
5.237104,0.652,0.039,0.898,-9.155,-45.898,25.146,1
5.244226,0.651,-0.018,1.084,17.883,-47.668,27.587,1
5.251482,0.706,-0.106,1.38,43.395,-48.156,30.456,1
5.259617,0.733,-0.209,1.707,67.932,-47.058,33.63,1
5.267855,0.69,-0.312,2.091,94.787,-40.954,39.001,1
5.276833,0.571,-0.442,2.468,101.379,-30.822,44.128,1
5.283535,0.404,-0.541,2.925,93.933,-14.648,50.354,1
5.290856,0.331,-0.604,3.22,78.552,6.652,57.434,1
5.300071,0.302,-0.658,3.49,68.603,28.32,64.758,1
5.306901,0.263,-0.687,3.67,65.246,49.377,72.509,1
5.314519,0.165,-0.69,3.852,67.26,68.115,79.65,1
5.32127,0.027,-0.659,3.959,69.091,94.97,90.27,1
5.329287,-0.103,-0.602,4.07,70.739,118.469,99.121,1
5.33847,-0.264,-0.547,4.102,71.228,142.822,108.215,1
5.345578,-0.427,-0.509,4.101,66.04,166.015,117.248,1
5.353941,-0.651,-0.444,4.104,59.57,193.847,129.089,1
5.363162,-0.924,-0.366,4.066,58.593,216.064,139.892,1
5.370947,-1.15,-0.253,3.993,63.781,241.516,153.259,1
5.37939,-1.359,-0.11,3.873,70.068,260.986,165.344,1
5.385563,-1.692,0.131,3.754,79.772,280.09,178.039,1
5.393134,-1.946,0.425,3.522,93.383,296.203,189.086,1
5.40085,-2.144,0.681,3.354,102.294,311.767,198.974,1
5.409753,-2.385,0.966,3.188,97.473,330.444,207.885,1
5.417031,-2.561,1.256,2.998,90.637,346.557,211.853,1
5.424678,-2.73,1.529,2.756,81.359,361.572,212.768,1
5.432129,-2.859,1.827,2.536,78.002,375.793,210.571,1
5.441176,-3.002,2.132,2.246,80.749,388.0,205.993,1
5.447977,-3.072,2.35,1.961,77.941,401.916,197.875,1
5.456143,-3.122,2.572,1.619,65.063,412.536,187.927,1
5.464465,-3.099,2.82,1.302,46.936,419.189,175.903,1
5.472211,-3.241,3.144,1.024,44.982,427.917,159.912,1
5.480748,-3.26,3.354,0.658,36.254,430.053,141.418,1
5.487698,-3.238,3.586,0.418,33.203,435.058,117.431,1
5.497403,-3.145,3.737,0.156,40.649,433.593,95.886,1
5.504514,-3.085,3.778,0.043,55.541,432.434,72.448,1
5.513205,-2.987,3.756,-0.136,65.368,429.687,54.077,1
5.52189,-2.903,3.718,-0.333,65.856,428.344,36.743,1
5.529322,-2.828,3.721,-0.563,58.349,423.706,17.211,1
5.536989,-2.785,3.718,-0.787,51.452,418.64,-0.183,1
5.544501,-2.709,3.673,-0.988,34.973,411.071,-20.385,1
5.552308,-2.641,3.599,-1.138,15.991,403.686,-37.78,1
5.561246,-2.513,3.472,-1.318,1.037,395.324,-55.175,1
5.570287,-2.412,3.322,-1.435,-2.685,382.934,-74.157,1
5.577689,-2.287,3.086,-1.556,8.789,369.323,-91.369,1
5.585773,-2.201,2.851,-1.651,22.46,356.75,-103.332,1
5.594161,-2.119,2.596,-1.743,31.86,344.909,-113.159,1
5.601675,-2.033,2.382,-1.835,35.217,333.312,-120.91,1
5.608656,-1.944,2.196,-1.93,39.245,320.922,-127.258,1
5.615352,-1.848,2.031,-1.998,44.799,307.189,-132.629,1
5.623379,-1.757,1.867,-2.034,48.4,293.701,-136.535,1
5.632792,-1.62,1.674,-2.046,41.992,278.381,-139.892,1
5.639876,-1.517,1.549,-2.037,34.179,266.052,-142.578,1
5.649131,-1.428,1.43,-2.0,36.437,251.464,-144.958,1
5.656982,-1.358,1.299,-2.021,41.442,240.783,-145.996,1
5.6642,-1.263,1.163,-2.087,36.621,230.957,-146.545,1
5.673166,-1.164,1.028,-2.162,24.475,220.092,-145.874,1
5.680501,-1.068,0.935,-2.236,17.578,209.838,-145.08,1
5.689506,-0.977,0.845,-2.32,17.456,196.96,-142.761,1
5.696664,-0.898,0.764,-2.399,18.31,185.241,-140.441,1
5.705529,-0.804,0.666,-2.455,16.845,171.386,-137.146,1
5.713019,-0.718,0.587,-2.473,15.869,158.691,-133.605,1
5.721207,-0.619,0.509,-2.473,14.404,145.019,-129.943,1
5.728495,-0.515,0.447,-2.43,10.192,131.835,-125.549,1
5.738069,-0.415,0.386,-2.372,1.22,116.577,-120.666,1
5.744728,-0.327,0.35,-2.308,-6.591,103.21,-115.905,1
5.753486,-0.257,0.314,-2.246,-5.798,86.486,-110.839,1
5.762785,-0.202,0.279,-2.158,0.793,69.091,-105.163,1
5.770005,-0.172,0.248,-2.062,7.141,55.48,-100.341,1
5.778983,-0.147,0.221,-1.943,12.451,43.09,-95.52,1
5.786102,-0.126,0.193,-1.843,19.958,30.029,-89.416,1
5.794083,-0.082,0.168,-1.749,25.024,20.08,-84.228,1
5.802058,-0.048,0.146,-1.643,28.442,11.23,-78.735,1
5.809546,0.004,0.129,-1.526,28.869,2.624,-72.57,1
5.818398,0.036,0.126,-1.423,27.77,-3.601,-67.138,1
5.826378,0.077,0.138,-1.312,25.939,-9.887,-61.279,1
5.834846,0.112,0.145,-1.219,24.597,-14.709,-56.396,1
5.843227,0.144,0.153,-1.134,22.888,-18.615,-52.062,1
5.850827,0.173,0.163,-1.041,19.836,-22.46,-47.363,1
5.85914,0.194,0.183,-0.978,15.136,-24.902,-43.334,1
5.865614,0.213,0.197,-0.917,10.131,-26.855,-39.672,1
5.87361,0.221,0.217,-0.854,7.141,-29.052,-36.437,1
5.882006,0.232,0.255,-0.779,8.666,-30.944,-33.142,1
5.891807,0.262,0.273,-0.719,15.93,-33.142,-29.541,1
5.898817,0.32,0.3,-0.657,23.132,-34.729,-26.306,1
5.907746,0.33,0.317,-0.614,26.367,-35.583,-23.01,1
5.916217,0.364,0.347,-0.567,25.024,-35.217,-20.568,1
5.922979,0.395,0.356,-0.531,22.094,-34.667,-17.883,1
5.932149,0.423,0.382,-0.494,19.775,-33.996,-15.991,1
5.939443,0.444,0.399,-0.466,19.042,-33.142,-13.916,1
5.94768,0.468,0.412,-0.442,19.226,-32.165,-12.145,1
5.955786,0.493,0.432,-0.425,18.188,-31.066,-10.498,1
5.963364,0.506,0.446,-0.415,13.854,-29.235,-8.972,1
5.971294,0.517,0.465,-0.403,9.704,-27.893,-7.995,1
5.979638,0.533,0.489,-0.377,8.605,-26.855,-7.141,1
5.988027,0.56,0.517,-0.356,13.244,-25.695,-6.042,1
5.99663,0.571,0.524,-0.335,17.028,-24.719,-5.432,1
6.003395,0.583,0.536,-0.323,17.944,-22.705,-4.943,1
6.011024,0.588,0.545,-0.309,17.211,-20.69,-4.211,1
6.0201,0.587,0.557,-0.305,17.089,-18.676,-4.15,1
6.02708,0.595,0.56,-0.307,16.784,-16.845,-3.417,1
6.035808,0.603,0.556,-0.325,11.535,-14.404,-2.99,1
6.044773,0.608,0.572,-0.335,4.15,-12.512,-2.258,1
6.051605,0.605,0.592,-0.339,0.427,-10.62,-2.014,1
6.060238,0.598,0.606,-0.344,2.807,-9.765,-1.586,1
6.06907,0.587,0.608,-0.341,8.605,-8.728,-1.342,1
6.076306,0.597,0.604,-0.352,11.779,-7.873,-0.793,1
6.083663,0.603,0.604,-0.358,10.314,-6.469,-0.549,1
6.091436,0.596,0.616,-0.364,6.652,-5.249,0.0,1
6.100725,0.597,0.625,-0.367,5.615,-3.967,0.183,1
6.107667,0.588,0.628,-0.376,7.568,-3.417,0.366,1
6.115741,0.594,0.621,-0.398,10.437,-2.746,0.366,1
6.123495,0.608,0.607,-0.421,11.291,-2.441,0.793,1
6.131532,0.612,0.605,-0.443,7.08,-1.953,1.281,1
6.13966,0.615,0.614,-0.457,2.624,-1.77,1.525,1
6.148838,0.625,0.631,-0.473,1.098,-1.892,1.77,1
6.156888,0.627,0.642,-0.488,1.953,-2.197,1.831,1
6.163658,0.627,0.636,-0.504,3.112,-2.685,1.708,1
6.172589,0.624,0.638,-0.515,3.479,-3.051,1.647,1
6.1796,0.62,0.63,-0.524,2.868,-3.417,1.403,1
6.189072,0.636,0.627,-0.526,3.295,-3.601,1.586,1
6.195476,0.637,0.617,-0.525,5.92,-4.089,1.403,1
6.203802,0.649,0.605,-0.517,8.483,-4.76,1.403,1
6.212364,0.654,0.592,-0.518,10.803,-5.065,1.77,1
6.220076,0.655,0.583,-0.516,12.329,-5.737,1.892,1
6.228847,0.657,0.571,-0.514,12.634,-5.798,2.563,1
6.236009,0.655,0.561,-0.516,10.559,-5.432,2.685,1
6.24366,0.656,0.558,-0.502,6.958,-5.432,2.99,1
6.251222,0.655,0.563,-0.494,4.455,-4.882,3.54,1
6.260362,0.648,0.579,-0.486,2.258,-4.821,4.089,1
6.267522,0.633,0.593,-0.479,0.732,-4.943,4.516,1
6.276778,0.635,0.604,-0.481,-0.793,-4.394,4.699,1
6.284471,0.629,0.612,-0.479,-2.136,-4.577,5.065,1
6.292792,0.631,0.625,-0.471,-3.173,-4.516,5.31,1
6.300022,0.638,0.629,-0.462,-3.417,-4.455,5.31,1
6.308303,0.64,0.642,-0.46,-2.319,-4.943,5.554,1
6.316288,0.641,0.65,-0.458,-0.244,-5.249,5.798,1
6.323638,0.636,0.654,-0.449,2.685,-5.737,6.103,1
6.332637,0.623,0.659,-0.45,3.845,-5.737,6.347,1
6.340111,0.676,0.662,-0.448,2.746,-5.859,6.53,1
6.348226,0.657,0.678,-0.458,-0.366,-6.225,6.347,1
6.356829,0.656,0.686,-0.451,-2.624,-6.591,6.347,1
6.363701,0.657,0.702,-0.444,-3.112,-7.141,5.92,1
6.373089,0.649,0.718,-0.434,-0.244,-7.69,5.676,1
6.379197,0.663,0.722,-0.426,3.479,-8.3,4.943,1
6.387015,0.657,0.732,-0.42,5.737,-8.85,4.333,1
6.395249,0.657,0.739,-0.41,6.958,-8.972,3.662,1
6.40219,0.657,0.737,-0.401,6.286,-8.85,2.807,1
6.410316,0.666,0.743,-0.394,4.028,-8.789,1.831,1
6.418558,0.672,0.753,-0.394,0.61,-8.605,0.793,1
6.426508,0.673,0.763,-0.393,-3.662,-7.934,-0.427,1
6.435044,0.671,0.77,-0.39,-10.314,-7.812,-1.708,1
6.442846,0.669,0.78,-0.382,-11.108,-7.69,-3.173,1
6.451525,0.669,0.773,-0.376,-9.338,-7.568,-4.394,1
6.458649,0.675,0.755,-0.375,-7.934,-8.117,-5.31,1
6.466249,0.668,0.75,-0.365,-6.042,-7.873,-6.469,1
6.475494,0.665,0.742,-0.359,-3.112,-7.69,-6.958,1
6.482558,0.669,0.724,-0.347,1.342,-7.568,-7.507,1
6.491685,0.675,0.713,-0.333,4.943,-7.08,-7.812,1
6.499087,0.678,0.698,-0.325,6.713,-6.652,-8.117,1
6.506306,0.681,0.69,-0.317,6.835,-5.737,-8.117,1
6.515817,0.687,0.678,-0.31,6.286,-4.882,-8.361,1
6.522911,0.696,0.668,-0.308,5.554,-3.906,-8.361,1
6.532402,0.706,0.66,-0.307,4.516,-2.929,-7.934,1
6.539196,0.712,0.666,-0.313,2.441,-2.258,-7.812,1
6.548314,0.708,0.667,-0.323,-0.854,-1.159,-7.69,1
6.555939,0.701,0.672,-0.325,-2.502,-0.427,-7.507,1
6.564761,0.692,0.677,-0.326,-2.197,0.183,-7.446,1
6.571746,0.679,0.681,-0.33,-0.305,0.61,-7.873,1
6.57966,0.671,0.684,-0.329,3.295,0.793,-7.751,1
6.587507,0.666,0.678,-0.327,5.187,1.403,-8.3,1
6.595459,0.671,0.667,-0.328,6.103,2.319,-8.3,1
6.604562,0.673,0.656,-0.318,6.713,2.807,-8.422,1
6.611982,0.676,0.644,-0.312,6.53,3.662,-8.483,1
6.62084,0.674,0.641,-0.306,6.774,4.455,-8.605,1
6.628384,0.668,0.651,-0.306,7.324,5.065,-8.544,1
6.635345,0.665,0.65,-0.314,7.812,5.92,-8.666,1
6.644214,0.666,0.65,-0.32,5.737,6.896,-8.911,1
6.651213,0.669,0.651,-0.33,2.99,7.69,-8.666,1
6.660433,0.669,0.663,-0.335,0.915,8.239,-8.85,1
6.667319,0.674,0.659,-0.342,0.366,8.911,-9.155,1
6.675957,0.673,0.656,-0.347,0.305,9.277,-9.338,1
6.684747,0.675,0.654,-0.362,0.549,9.643,-9.399,1
6.69334,0.677,0.654,-0.37,1.403,10.009,-9.704,1
6.700867,0.662,0.649,-0.376,2.441,10.009,-9.521,1
6.708483,0.662,0.646,-0.385,2.746,10.009,-9.765,1
6.715408,0.659,0.638,-0.392,2.746,10.314,-9.704,1
6.724821,0.655,0.633,-0.392,2.563,10.375,-9.46,1
6.731778,0.655,0.631,-0.395,2.807,10.498,-9.521,1
6.741098,0.649,0.632,-0.39,3.051,10.803,-9.46,1
6.748964,0.648,0.625,-0.399,3.601,10.864,-9.338,1
6.756164,0.649,0.623,-0.408,2.868,11.047,-9.399,1
6.763899,0.642,0.619,-0.417,1.464,11.413,-9.399,1
6.772583,0.64,0.616,-0.424,-0.671,11.657,-9.643,1
6.781437,0.642,0.609,-0.433,-1.647,11.596,-9.765,1
6.789031,0.641,0.604,-0.447,-1.77,11.474,-9.887,1
6.795764,0.64,0.602,-0.452,-0.305,10.986,-9.704,1
6.804593,0.643,0.597,-0.459,1.281,10.559,-9.765,1
6.812827,0.639,0.594,-0.463,2.685,9.948,-9.338,1
6.820351,0.641,0.592,-0.464,3.112,9.46,-9.46,1
6.828197,0.642,0.583,-0.471,1.953,9.094,-9.033,1
6.836445,0.649,0.577,-0.469,-0.183,8.728,-8.605,1
6.843497,0.655,0.577,-0.463,-1.403,8.666,-8.178,1
6.851526,0.661,0.575,-0.455,-1.525,8.3,-7.812,1
6.860285,0.663,0.575,-0.445,-0.366,7.873,-7.141,1
6.869575,0.667,0.576,-0.437,2.624,7.568,-6.896,1
6.876514,0.665,0.576,-0.436,5.004,7.324,-6.164,1
6.884856,0.669,0.576,-0.441,5.493,7.324,-5.493,1
6.89216,0.67,0.583,-0.45,4.089,7.324,-5.31,1
6.900208,0.666,0.584,-0.458,3.051,7.141,-5.126,1
6.908395,0.673,0.594,-0.461,1.953,6.896,-4.943,1
6.91736,0.674,0.599,-0.458,0.732,6.835,-4.76,1
6.924183,0.669,0.597,-0.457,0.488,6.835,-4.638,1
6.932963,0.672,0.602,-0.451,0.793,6.835,-4.516,1
6.941329,0.665,0.592,-0.445,1.831,6.774,-4.455,1
6.948161,0.66,0.583,-0.442,2.563,6.958,-4.516,1
6.955797,0.654,0.568,-0.432,2.38,7.324,-4.394,1
6.965161,0.653,0.553,-0.423,1.525,8.056,-4.394,1
6.971916,0.651,0.539,-0.415,0.915,8.911,-4.15,1
6.98006,0.655,0.527,-0.407,1.037,9.46,-3.601,1
6.989594,0.644,0.517,-0.391,1.342,10.437,-2.685,1
6.99656,0.636,0.508,-0.382,2.197,11.352,-1.831,1
7.003265,0.622,0.499,-0.376,2.868,12.329,-0.976,1
7.010389,0.61,0.486,-0.37,3.356,13.549,0.122,1
7.019055,0.604,0.467,-0.364,3.601,14.709,1.403,1
7.02657,0.603,0.465,-0.358,3.601,15.93,2.746,1
7.035336,0.596,0.455,-0.348,3.784,17.333,4.272,1
7.042603,0.602,0.46,-0.337,3.906,18.615,6.347,1
7.050099,0.603,0.466,-0.335,4.028,19.836,7.995,1
7.058208,0.614,0.47,-0.354,2.624,21.362,9.643,1
7.067221,0.616,0.485,-0.367,-0.793,22.583,10.681,1
7.073976,0.619,0.5,-0.379,-4.699,24.169,11.901,1
7.082921,0.647,0.522,-0.404,-7.08,24.78,12.634,1
7.090299,0.664,0.563,-0.423,-6.591,25.573,13.061,1
7.09751,0.701,0.613,-0.477,-5.676,25.39,13.488,1
7.106856,0.721,0.663,-0.517,-6.347,24.719,13.183,1
7.113904,0.746,0.729,-0.565,-7.446,23.376,12.39,1
7.122549,0.753,0.789,-0.589,-8.239,21.24,10.864,1
7.129366,0.746,0.854,-0.604,-6.896,18.432,8.3,1
7.137315,0.756,0.906,-0.601,-3.723,15.502,5.981,1
7.145056,0.76,0.966,-0.589,2.38,12.451,3.662,1
7.154131,0.761,1.018,-0.564,9.948,9.582,0.854,1
7.163013,0.763,1.049,-0.526,15.38,7.141,-2.197,1
7.168711,0.753,1.071,-0.493,15.563,5.92,-5.981,1
7.176938,0.747,1.082,-0.472,11.291,5.31,-9.399,1
7.185645,0.757,1.094,-0.462,5.798,5.126,-12.939,1
7.192589,0.754,1.113,-0.452,3.967,4.577,-16.601,1
7.19953,0.76,1.12,-0.438,7.751,3.967,-20.08,1
7.20868,0.756,1.107,-0.437,12.695,3.356,-23.681,1
7.217037,0.75,1.083,-0.436,15.502,2.99,-27.709,1
7.223899,0.742,1.051,-0.45,14.038,3.051,-31.188,1
7.232568,0.732,1.027,-0.454,11.535,3.051,-34.118,1
7.239177,0.728,0.997,-0.454,10.559,2.929,-37.292,1
7.248246,0.714,0.97,-0.446,12.268,2.258,-40.161,1
7.255152,0.704,0.942,-0.443,15.197,1.953,-43.273,1
7.262679,0.682,0.894,-0.438,15.747,2.38,-45.837,1
7.271375,0.664,0.848,-0.439,12.573,3.417,-48.278,1
7.278711,0.648,0.793,-0.444,5.859,4.699,-49.926,1
7.286358,0.637,0.737,-0.467,-4.089,6.713,-52.062,1
7.295958,0.628,0.698,-0.477,-10.742,7.995,-53.1,1
7.302632,0.627,0.654,-0.487,-14.587,9.216,-54.016,1
7.310962,0.622,0.613,-0.489,-14.221,9.765,-54.077,1
7.319312,0.626,0.588,-0.488,-11.291,10.009,-53.588,1
7.327572,0.621,0.548,-0.48,-7.019,10.253,-52.856,1
7.335746,0.621,0.515,-0.475,-4.76,10.681,-52.001,1
7.343263,0.616,0.478,-0.474,-3.417,11.047,-50.537,1
7.352418,0.6,0.438,-0.461,-4.455,12.207,-49.255,1
7.360509,0.586,0.407,-0.454,-6.225,12.634,-47.729,1
7.368119,0.572,0.38,-0.443,-7.263,13.244,-45.654,1
7.374747,0.576,0.346,-0.447,-8.911,13.916,-43.518,1
7.382948,0.577,0.32,-0.441,-9.826,14.16,-41.198,1
7.391644,0.575,0.302,-0.44,-9.155,14.465,-38.818,1
7.398681,0.569,0.288,-0.438,-7.568,14.465,-36.132,1
7.40767,0.574,0.269,-0.449,-5.31,14.343,-33.203,1
7.414934,0.578,0.253,-0.457,-4.76,14.648,-30.151,1
7.423417,0.576,0.234,-0.457,-6.042,15.014,-27.038,1
7.430505,0.568,0.234,-0.468,-8.178,15.502,-23.925,1
7.437704,0.558,0.242,-0.472,-9.643,16.113,-20.263,1
7.446914,0.564,0.248,-0.492,-10.192,16.113,-17.639,1
7.453976,0.564,0.255,-0.499,-10.986,16.296,-15.136,1
7.463111,0.561,0.258,-0.522,-12.329,16.235,-12.756,1
7.471729,0.562,0.268,-0.528,-13.0,16.479,-10.437,1
7.479104,0.568,0.273,-0.532,-11.535,15.869,-8.544,1
7.486258,0.568,0.285,-0.536,-8.483,15.258,-6.286,1
7.495426,0.577,0.284,-0.544,-6.652,14.648,-4.882,1
7.504326,0.577,0.288,-0.547,-5.92,14.465,-3.173,1
7.51105,0.583,0.295,-0.551,-6.286,13.916,-1.831,1
7.51996,0.592,0.312,-0.557,-7.141,13.366,-0.305,1
7.526862,0.594,0.335,-0.568,-6.713,13.0,0.61,1
7.536089,0.601,0.341,-0.583,-7.385,12.39,1.22,1
7.5435,0.611,0.354,-0.595,-8.911,11.962,1.586,1
7.550824,0.62,0.364,-0.601,-9.826,10.925,2.197,1
7.558863,0.633,0.372,-0.608,-8.239,9.765,2.807,1
7.567785,0.637,0.383,-0.612,-4.943,8.544,3.295,1
7.574915,0.644,0.39,-0.615,-0.671,6.896,3.906,1
7.582261,0.646,0.4,-0.613,2.136,5.371,4.333,1
7.589907,0.654,0.403,-0.617,3.784,4.333,5.004,1
7.599474,0.663,0.418,-0.615,4.272,3.051,5.737,1
7.606772,0.667,0.44,-0.612,5.126,1.953,6.103,1
7.614275,0.675,0.452,-0.612,7.751,0.488,6.469,1
7.622802,0.679,0.464,-0.608,10.375,-0.61,6.774,1
7.631268,0.68,0.473,-0.603,13.122,-1.892,6.896,1
7.638064,0.682,0.479,-0.599,14.526,-2.929,6.958,1
7.64713,0.692,0.479,-0.603,13.366,-3.295,7.263,1
7.65402,0.692,0.479,-0.602,10.681,-3.662,7.69,1
7.662975,0.7,0.485,-0.589,7.812,-4.15,7.507,1
7.669751,0.694,0.498,-0.579,7.019,-4.76,7.934,1
7.677873,0.691,0.5,-0.571,5.859,-5.004,7.934,1
7.685806,0.683,0.501,-0.565,4.211,-4.943,7.812,1
7.693432,0.677,0.511,-0.565,2.502,-4.76,7.69,1
7.700891,0.675,0.513,-0.561,2.136,-4.821,7.446,1
7.709945,0.673,0.508,-0.555,1.892,-4.76,7.08,1
7.717022,0.672,0.506,-0.544,2.624,-4.943,7.08,1
7.725705,0.66,0.501,-0.53,4.211,-5.249,6.896,1
7.733613,0.657,0.491,-0.511,5.676,-4.699,6.896,1
7.74066,0.642,0.476,-0.495,6.347,-4.089,6.774,1
7.749819,0.623,0.46,-0.478,6.347,-3.356,6.835,1
7.757192,0.6,0.438,-0.462,6.103,-2.136,7.507,1
7.764482,0.577,0.417,-0.442,4.638,-0.305,7.812,1
7.772149,0.546,0.396,-0.424,2.258,1.831,8.361,1
7.781176,0.521,0.363,-0.404,-1.22,4.394,9.521,1
7.788211,0.484,0.335,-0.377,-5.859,7.507,10.437,1
7.795939,0.437,0.309,-0.357,-11.779,11.84,11.718,1
7.804202,0.39,0.279,-0.342,-17.15,15.869,13.183,1
7.813057,0.326,0.25,-0.322,-24.719,20.874,14.404,1
7.820378,0.264,0.226,-0.311,-33.447,26.794,16.418,1
7.827987,0.212,0.208,-0.293,-38.33,32.104,17.883,1
7.836996,0.169,0.174,-0.281,-41.503,37.231,20.08,1
7.844005,0.121,0.145,-0.262,-41.564,44.006,22.705,1
7.851997,0.083,0.118,-0.266,-37.902,49.377,25.451,1
7.861154,0.048,0.084,-0.286,-33.386,54.138,29.052,1
7.868293,0.01,0.042,-0.314,-31.066,59.326,33.447,1
7.87583,-0.025,0.017,-0.362,-34.301,64.88,39.489,1
7.883545,-0.084,0.0,-0.401,-40.71,70.129,44.738,1
7.892615,-0.205,0.001,-0.436,-50.537,75.988,49.804,1
7.900068,-0.151,-0.021,-0.513,-75.073,83.679,56.091,1
7.908181,-0.101,-0.03,-0.616,-97.106,88.562,62.255,1
7.916018,-0.125,-0.023,-0.714,-108.337,91.613,69.58,1
7.92448,-0.159,-0.034,-0.846,-103.332,92.285,76.171,1
7.933171,-0.203,-0.074,-1.008,-92.102,91.125,84.045,1
7.940318,-0.231,-0.131,-1.17,-82.031,88.623,93.994,1
7.94905,-0.25,-0.18,-1.346,-80.322,85.327,102.478,1
7.956737,-0.286,-0.226,-1.558,-85.937,81.604,110.229,1
7.966767,-0.312,-0.257,-1.758,-103.454,75.805,119.628,1
7.97326,-0.331,-0.283,-1.989,-124.511,67.932,128.601,1
7.982016,-0.342,-0.289,-2.202,-129.028,57.983,136.718,1
7.988972,-0.426,-0.306,-2.456,-116.943,44.311,145.141,1
7.997287,-0.48,-0.339,-2.68,-89.538,24.475,156.066,1
8.005178,-0.547,-0.388,-2.881,-62.744,3.845,166.076,1
8.014116,-0.576,-0.441,-3.062,-39.733,-17.028,176.086,1
8.022288,-0.627,-0.455,-3.255,-25.573,-43.884,188.964,1
8.031084,-0.708,-0.406,-3.379,-18.615,-67.871,199.523,1
8.039119,-0.836,-0.334,-3.482,-19.042,-95.642,210.815,1
8.047183,-1.042,-0.256,-3.54,-31.616,-123.229,221.435,1
8.055886,-1.216,-0.165,-3.531,-40.405,-147.033,230.163,1
8.064137,-1.428,-0.043,-3.468,-37.597,-170.837,238.22,1
8.072476,-1.63,0.062,-3.385,-24.169,-199.279,246.887,1
8.080661,-1.841,0.218,-3.276,-13.549,-227.294,254.455,1
8.089223,-2.032,0.38,-3.162,-7.995,-250.183,260.131,1
8.097599,-2.244,0.602,-3.0,-1.708,-275.756,265.747,1
8.104407,-2.447,0.867,-2.832,1.159,-296.264,269.531,1
8.112737,-2.612,1.133,-2.677,3.112,-318.603,272.216,1
8.121044,-2.815,1.436,-2.492,6.835,-337.219,272.46,1
8.130247,-2.985,1.668,-2.325,11.901,-357.482,270.629,1
8.136888,-3.146,1.913,-2.122,13.61,-373.229,266.601,1
8.145155,-3.195,2.116,-1.92,9.765,-389.099,260.742,1
8.15383,-3.228,2.35,-1.702,0.061,-400.146,254.028,1
8.161383,-3.325,2.663,-1.416,-8.422,-409.728,246.032,1
8.170287,-3.39,2.904,-1.156,-13.671,-417.602,233.032,1
8.178303,-3.357,3.161,-0.847,-14.099,-423.461,219.848,1
8.186123,-3.37,3.38,-0.57,-7.141,-428.466,202.697,1
8.193901,-3.363,3.547,-0.318,3.906,-431.396,186.157,1
8.201096,-3.225,3.578,-0.174,9.033,-433.471,167.541,1
8.209402,-3.054,3.541,-0.019,8.911,-432.861,148.437,1
8.216611,-2.874,3.477,0.003,-3.723,-430.603,125.305,1
8.225058,-2.682,3.403,0.083,-32.287,-430.541,107.666,1
8.2341,-2.64,3.467,0.309,-40.222,-429.077,91.613,1
8.242792,-2.563,3.45,0.592,-34.118,-426.086,71.228,1
8.24962,-2.508,3.356,0.822,-39.428,-419.555,54.565,1
8.258788,-2.396,3.267,0.961,-46.02,-410.705,35.339,1
8.267591,-2.24,3.111,1.082,-45.593,-402.709,19.531,1
8.274543,-2.137,2.907,1.111,-48.217,-392.028,1.831,1
8.283148,-1.943,2.621,1.097,-63.903,-382.263,-11.84,1
8.29176,-1.761,2.38,1.053,-87.768,-372.009,-25.878,1
8.29956,-1.648,2.087,0.983,-98.571,-364.685,-34.912,1
8.308065,-1.583,1.892,0.946,-91.857,-362.06,-41.32,1
8.316124,-1.547,1.738,1.091,-60.668,-360.595,-44.677,1
8.325045,-1.52,1.597,1.169,-40.527,-360.534,-46.142,1
8.333235,-1.476,1.514,1.452,-34.179,-356.201,-45.166,1
8.340913,-1.434,1.52,1.712,-20.69,-349.731,-42.053,1
8.34993,-1.355,1.585,1.97,-7.08,-341.979,-39.123,1
8.357286,-1.319,1.697,2.205,6.896,-331.481,-37.658,1
8.36552,-1.313,1.802,2.382,18.676,-318.725,-39.306,1
8.372986,-1.214,1.844,2.5,19.897,-305.542,-43.945,1
8.381627,-1.095,1.87,2.624,20.263,-288.146,-51.879,1
8.387813,-1.022,1.848,2.744,30.273,-272.033,-61.157,1
8.396823,-0.928,1.757,2.795,35.095,-254.638,-71.472,1
8.40485,-0.823,1.594,2.811,27.343,-231.872,-83.801,1
8.413635,-0.704,1.437,2.79,11.535,-213.012,-93.505,1
8.421073,-0.491,1.255,2.779,-4.577,-189.453,-103.149,1
8.430069,-0.27,1.088,2.719,-14.892,-171.752,-110.351,1
8.437047,-0.089,0.948,2.689,-14.343,-152.526,-117.553,1
8.445628,0.041,0.806,2.649,-7.446,-137.39,-121.887,1
8.454812,0.178,0.654,2.565,-1.159,-119.995,-125.061,1
8.461994,0.222,0.549,2.469,-2.807,-106.018,-125.793,1
8.471047,0.361,0.355,2.419,-13.183,-94.055,-124.938,1
8.477955,0.439,0.219,2.374,-23.62,-76.538,-120.422,1
8.486549,0.499,0.134,2.282,-28.808,-64.697,-115.112,1
8.493968,0.549,0.091,2.139,-21.911,-50.964,-108.459,1
8.5027,0.554,0.091,1.967,-11.962,-43.09,-103.637,1
8.510125,0.545,0.083,1.844,-4.394,-34.973,-98.571,1
8.518794,0.529,0.061,1.726,-9.643,-24.291,-93.078,1
8.528275,0.514,0.073,1.65,-19.104,-15.808,-88.562,1
8.53542,0.509,0.092,1.554,-20.69,-5.554,-82.885,1
8.543346,0.518,0.098,1.462,-16.784,0.427,-78.796,1
8.551061,0.524,0.067,1.327,-12.695,6.469,-74.584,1
8.559751,0.536,0.024,1.238,-18.249,14.099,-70.434,1
8.566539,0.548,0.013,1.125,-29.357,19.714,-65.979,1
8.574783,0.562,0.065,1.018,-34.057,25.451,-61.706,1
8.582274,0.562,0.057,0.866,-31.677,28.564,-57.312,1
8.58965,0.587,0.058,0.749,-29.785,31.738,-54.382,1
8.597467,0.589,0.101,0.642,-30.334,32.47,-51.635,1
8.605147,0.594,0.128,0.599,-27.709,34.484,-49.133,1
8.614319,0.622,0.109,0.506,-24.23,33.874,-46.203,1
8.621308,0.63,0.094,0.491,-18.737,33.691,-42.907,1
8.628856,0.631,0.078,0.427,-14.099,33.386,-39.184,1
8.636746,0.652,0.075,0.401,-11.962,32.775,-35.644,1
8.646152,0.659,0.085,0.362,-12.268,32.226,-32.287,1
8.652598,0.678,0.075,0.337,-14.77,32.47,-28.625,1
8.661726,0.704,0.09,0.317,-17.211,32.043,-24.719,1
8.669202,0.722,0.116,0.286,-15.014,31.005,-21.362,1
8.676696,0.724,0.143,0.252,-11.047,29.907,-18.371,1
8.684641,0.726,0.165,0.211,-6.652,28.076,-14.953,1
8.693954,0.727,0.192,0.186,-3.417,26.428,-12.268,1
8.701715,0.734,0.21,0.158,-2.563,25.085,-10.07,1
8.710226,0.742,0.224,0.141,-4.455,23.559,-7.629,1
8.718092,0.752,0.246,0.142,-5.737,22.277,-5.615,1
8.725512,0.758,0.266,0.142,-5.554,21.24,-4.211,1
8.732985,0.777,0.278,0.14,-5.92,19.531,-2.746,1
8.741135,0.789,0.29,0.13,-7.324,18.92,-0.854,1
8.748939,0.804,0.308,0.135,-9.216,17.822,0.366,1
8.75606,0.811,0.329,0.139,-9.826,16.906,2.136,1
8.76421,0.812,0.355,0.134,-9.887,15.319,3.417,1
8.772499,0.812,0.387,0.138,-8.789,13.916,4.76,1
8.779145,0.813,0.408,0.14,-8.178,12.329,5.31,1
8.786329,0.812,0.419,0.135,-6.042,11.535,6.408,1
8.793968,0.796,0.436,0.132,-3.967,9.643,6.958,1
8.802728,0.791,0.44,0.134,-2.563,8.972,7.812,1
8.809866,0.794,0.437,0.113,-2.929,7.751,8.422,1
8.817377,0.781,0.451,0.128,-2.807,6.896,9.643,1
8.825004,0.775,0.468,0.12,-2.563,6.469,10.742,1
8.833877,0.771,0.484,0.118,-2.685,5.615,11.047,1
8.840975,0.763,0.502,0.114,-3.295,5.371,11.779,1
8.848502,0.765,0.52,0.099,-5.065,4.394,11.901,1
8.856075,0.767,0.531,0.088,-6.408,3.784,11.657,1
8.864778,0.776,0.545,0.076,-7.446,2.258,11.291,1
8.872066,0.781,0.553,0.078,-6.225,0.732,11.169,1
8.879654,0.792,0.551,0.077,-4.638,-1.159,10.803,1
8.888492,0.794,0.549,0.095,-2.624,-2.319,10.742,1
8.895562,0.8,0.545,0.103,-1.892,-3.479,10.498,1
8.903567,0.795,0.543,0.124,-2.38,-4.333,10.498,1
8.912741,0.783,0.544,0.138,-2.502,-5.126,10.498,1
8.920273,0.777,0.545,0.157,-2.502,-5.554,10.314,1
8.927558,0.785,0.553,0.158,-3.051,-6.103,10.742,1
8.935956,0.798,0.564,0.162,-3.234,-6.591,11.108,1
8.94357,0.805,0.588,0.173,-1.953,-7.873,11.352,1
8.95265,0.804,0.607,0.197,1.586,-8.728,11.23,1
8.959282,0.803,0.627,0.23,7.507,-9.765,11.169,1
8.968531,0.807,0.633,0.258,12.512,-9.948,10.925,1
8.975319,0.808,0.639,0.269,12.023,-10.07,10.253,1
8.983656,0.8,0.645,0.285,8.239,-9.582,10.131,1
8.990895,0.806,0.66,0.295,4.272,-9.155,9.338,1
8.999321,0.832,0.663,0.298,2.319,-8.85,8.422,1
9.006649,0.846,0.668,0.309,1.647,-8.972,7.873,1
9.014142,0.854,0.666,0.318,2.685,-8.728,6.713,1
9.02141,0.854,0.661,0.331,3.173,-8.422,5.798,1
9.030298,0.852,0.657,0.353,3.479,-8.178,5.065,1
9.037451,0.851,0.657,0.383,3.967,-7.141,4.516,1
9.044871,0.851,0.647,0.408,2.624,-6.225,3.967,1
9.054007,0.849,0.64,0.422,1.403,-4.821,3.234,1
9.061402,0.842,0.632,0.442,0.793,-3.295,2.99,1
9.068696,0.833,0.622,0.448,0.244,-1.708,2.502,1
9.077247,0.832,0.611,0.45,-1.22,0.305,2.197,1
9.084825,0.824,0.602,0.434,-2.258,1.586,2.075,1
9.091319,0.825,0.597,0.415,-3.051,3.051,1.831,1
9.100118,0.82,0.597,0.391,-2.929,3.662,1.953,1
9.107792,0.818,0.6,0.375,-2.136,4.028,1.831,1
9.115314,0.811,0.605,0.363,0.854,3.967,1.525,1
9.122766,0.801,0.596,0.347,3.112,4.211,1.281,1
9.13124,0.8,0.591,0.339,2.136,4.516,1.037,1
9.138429,0.791,0.586,0.333,0.793,5.065,1.281,1
9.145605,0.797,0.587,0.32,-0.183,5.432,1.403,1
9.153694,0.787,0.594,0.303,-0.488,5.859,1.098,1
9.161666,0.776,0.599,0.285,-0.061,5.92,1.22,1
9.168885,0.77,0.606,0.261,-0.122,5.737,1.098,1
9.1771,0.775,0.603,0.251,0.488,5.676,0.793,1
9.184212,0.778,0.599,0.234,0.915,5.126,0.61,1
9.19312,0.77,0.612,0.221,1.281,4.821,0.793,1
9.200555,0.78,0.614,0.212,1.708,4.089,0.244,1
9.207884,0.776,0.612,0.206,0.915,3.479,-0.061,1
9.216827,0.775,0.608,0.202,-0.549,2.624,-0.244,1
9.223107,0.782,0.601,0.204,-1.159,2.197,-0.854,1
9.231686,0.787,0.592,0.212,-0.244,1.464,-0.732,1
9.238399,0.788,0.58,0.218,0.671,0.671,-0.976,1
9.248053,0.786,0.569,0.232,1.892,0.366,-0.793,1
9.255179,0.787,0.562,0.243,2.197,0.122,-0.915,1
9.263039,0.797,0.556,0.259,2.014,-0.366,-0.61,1
9.271207,0.795,0.552,0.27,0.671,-0.549,-0.549,1
9.278981,0.794,0.543,0.279,-0.244,-0.061,-0.183,1
9.287807,0.796,0.541,0.299,-0.549,-0.183,-0.061,1
9.295231,0.793,0.541,0.315,0.671,0.122,0.366,1
9.301929,0.792,0.541,0.314,1.77,0.549,0.427,1
9.310467,0.798,0.54,0.315,2.075,1.159,0.793,1
9.317834,0.804,0.542,0.3,1.281,1.892,1.098,1
9.325299,0.809,0.54,0.288,0.122,2.258,1.098,1
9.334576,0.808,0.539,0.27,-0.549,2.014,1.403,1
9.341561,0.805,0.545,0.261,-1.159,1.953,1.464,1
9.349069,0.805,0.546,0.253,-1.342,1.525,1.586,1
9.356642,0.798,0.55,0.258,-0.488,1.037,1.953,1
9.36589,0.782,0.556,0.274,1.647,0.854,2.502,1
9.373267,0.779,0.556,0.282,3.54,0.488,2.502,1
9.380305,0.778,0.56,0.282,3.356,0.793,2.746,1
9.38784,0.769,0.564,0.285,2.258,1.281,2.99,1
9.396834,0.764,0.58,0.272,1.586,1.342,2.929,1
9.403895,0.773,0.597,0.261,1.77,1.342,2.685,1
9.411121,0.776,0.602,0.246,2.441,1.098,3.051,1
9.420082,0.787,0.616,0.23,2.38,0.793,2.624,1
9.428213,0.789,0.618,0.225,2.319,0.305,2.441,1
9.435162,0.785,0.624,0.229,2.502,-0.305,2.197,1
9.444072,0.785,0.626,0.237,2.807,-0.793,1.708,1
9.451425,0.787,0.624,0.252,3.784,-1.098,1.281,1
9.460137,0.786,0.607,0.257,3.601,-1.342,0.732,1
9.467773,0.792,0.59,0.262,2.136,-1.281,0.61,1
9.47504,0.797,0.585,0.26,0.488,-1.098,0.549,1
9.484184,0.798,0.581,0.259,-0.122,-1.22,0.671,1
9.490853,0.798,0.58,0.257,0.183,-1.098,0.488,1
9.498475,0.798,0.577,0.257,1.464,-1.22,0.488,1
9.50591,0.795,0.577,0.251,1.403,-1.525,0.488,1
9.513844,0.791,0.574,0.249,0.915,-1.831,0.61,1
9.522428,0.782,0.576,0.26,1.037,-2.258,0.732,1
9.529642,0.781,0.579,0.27,2.014,-2.441,0.854,1
9.537123,0.783,0.576,0.272,2.807,-2.563,0.793,1
9.545284,0.784,0.574,0.278,2.563,-2.746,0.915,1
9.553266,0.789,0.569,0.292,2.319,-2.624,0.915,1
9.560416,0.792,0.571,0.299,2.136,-2.746,0.976,1
9.568563,0.788,0.573,0.312,2.319,-2.441,1.037,1
9.57644,0.791,0.57,0.321,1.586,-1.892,1.037,1
9.583615,0.795,0.568,0.323,0.244,-1.22,1.281,1
9.59141,0.825,0.56,0.327,0.183,-0.915,1.525,1
9.598992,0.774,0.568,0.317,0.183,-0.671,1.403,1
9.605871,0.774,0.572,0.336,1.586,-0.549,1.464,1
9.614497,0.772,0.556,0.319,1.098,0.305,1.403,1
9.621458,0.771,0.559,0.318,-2.258,0.671,1.708,1
9.629206,0.79,0.571,0.309,-1.831,1.159,1.708,1
9.638492,0.801,0.571,0.29,-1.831,1.098,1.831,1
9.645719,0.799,0.578,0.281,-1.831,1.281,1.892,1
9.652814,0.791,0.588,0.274,-1.892,1.159,1.708,1
9.661845,0.782,0.586,0.275,-1.892,0.854,2.014,1
9.669216,0.782,0.584,0.271,-2.319,1.098,1.831,1
9.676465,0.785,0.59,0.266,-2.502,0.854,1.953,1
9.684346,0.781,0.59,0.263,-2.075,0.732,1.892,1
9.693112,0.785,0.592,0.258,-1.892,0.732,1.586,1
9.700975,0.786,0.594,0.258,-2.014,0.732,1.77,1
9.708338,0.786,0.594,0.263,-2.014,0.549,1.647,1
9.715969,0.785,0.597,0.265,-1.708,0.549,1.22,1
9.723133,0.779,0.597,0.27,-1.464,0.305,1.281,1
9.730696,0.785,0.595,0.278,-0.793,0.122,1.22,1
9.738937,0.79,0.594,0.275,-0.244,0.366,1.281,1
9.746662,0.787,0.591,0.269,0.488,0.366,1.281,1
9.754155,0.789,0.59,0.265,0.183,0.244,1.281,1
9.762993,0.785,0.596,0.265,0.183,0.183,0.854,1
9.770833,0.785,0.595,0.261,0.793,0.0,0.915,1
9.778711,0.789,0.596,0.258,0.671,-0.122,0.854,1
9.786317,0.79,0.591,0.265,-0.305,-0.305,0.732,1
9.795114,0.78,0.599,0.272,-0.488,-0.671,0.854,1
9.803136,0.781,0.602,0.277,-0.061,-0.488,0.915,1
9.81116,0.782,0.598,0.283,1.647,-0.427,0.732,1
9.818159,0.781,0.597,0.281,1.22,-0.305,0.854,1
9.825994,0.784,0.597,0.271,-0.183,0.0,0.793,1
9.83348,0.787,0.604,0.268,-0.549,0.122,0.61,1
9.841152,0.781,0.604,0.265,-0.427,0.183,0.488,1
9.850375,0.782,0.607,0.255,-0.549,-0.061,0.122,1
9.85742,0.786,0.606,0.257,-0.305,-0.244,-0.061,1
9.866644,0.789,0.608,0.257,0.305,-0.427,-0.244,1
9.874839,0.782,0.605,0.269,0.61,-1.098,-0.305,1
9.881486,0.777,0.603,0.275,0.976,-1.281,-0.305,1
9.889058,0.781,0.597,0.287,0.671,-1.159,-0.366,1
9.898386,0.781,0.594,0.294,0.183,-1.281,-0.488,1
9.904776,0.778,0.591,0.295,-0.122,-0.976,-0.305,1
9.913765,0.783,0.583,0.292,-0.122,-0.61,-0.366,1
9.921184,0.78,0.578,0.29,-0.427,-0.305,-0.122,1
9.929022,0.778,0.579,0.289,-1.037,-0.427,-0.366,1
9.93647,0.776,0.574,0.291,-1.281,-0.488,-0.122,1
9.943679,0.778,0.575,0.297,-1.831,-0.305,-0.183,1
9.95207,0.774,0.572,0.302,-1.77,-0.488,0.0,1
9.960336,0.779,0.57,0.301,-1.831,-0.244,0.0,1
9.967591,0.782,0.572,0.305,-0.732,-0.183,0.061,1
9.976813,0.781,0.562,0.302,0.366,-0.061,0.183,1
9.983778,0.787,0.56,0.306,0.0,0.183,0.488,1
9.992351,0.779,0.565,0.31,-0.122,0.488,0.915,1
