timestamp_s,ax,ay,az,gx,gy,gz,label
0.00562,0.476,0.84,-0.291,0.366,0.061,-0.305,1
0.01242,0.477,0.839,-0.289,0.183,0.122,-0.427,1
0.020272,0.478,0.835,-0.289,-0.061,0.122,-0.549,1
0.027369,0.478,0.835,-0.29,0.061,0.061,-0.244,1
0.034622,0.477,0.835,-0.289,-0.061,0.122,-0.305,1
0.042457,0.478,0.83,-0.291,-0.366,0.122,-0.305,1
0.050166,0.477,0.833,-0.29,-0.366,0.0,-0.488,1
0.059049,0.482,0.829,-0.285,-0.244,0.061,-0.488,1
0.067083,0.475,0.827,-0.289,0.061,0.122,-0.366,1
0.074739,0.473,0.832,-0.291,0.427,0.0,-0.122,1
0.083402,0.476,0.829,-0.287,0.488,0.244,-0.244,1
0.09182,0.476,0.828,-0.289,0.793,0.122,-0.122,1
0.098695,0.475,0.827,-0.29,0.61,0.0,0.366,1
0.107397,0.475,0.825,-0.286,0.366,0.122,0.244,1
0.115295,0.474,0.83,-0.289,0.366,0.305,0.305,1
0.123529,0.475,0.833,-0.289,0.305,0.122,0.183,1
0.130761,0.475,0.833,-0.29,-0.244,0.427,0.244,1
0.137975,0.476,0.833,-0.29,-0.61,0.427,0.122,1
0.146163,0.477,0.828,-0.294,-0.244,0.427,0.244,1
0.154139,0.478,0.83,-0.294,0.244,0.122,0.305,1
0.161533,0.474,0.829,-0.291,1.098,0.183,0.427,1
0.17029,0.475,0.835,-0.291,1.159,0.122,0.427,1
0.178612,0.471,0.835,-0.291,0.732,0.244,0.61,1
0.185257,0.472,0.835,-0.297,-0.366,0.244,0.549,1
0.193233,0.475,0.84,-0.299,-1.098,0.305,0.427,1
0.20247,0.478,0.836,-0.298,-1.281,0.183,0.732,1
0.210989,0.48,0.84,-0.296,-0.366,-0.061,0.366,1
0.217736,0.481,0.839,-0.298,0.427,0.122,0.427,1
0.226354,0.481,0.842,-0.292,1.831,-0.427,0.488,1
0.233255,0.474,0.841,-0.291,2.258,-0.366,0.244,1
0.240518,0.478,0.843,-0.29,1.586,-0.122,0.549,1
0.249008,0.475,0.843,-0.293,0.305,0.183,0.427,1
0.255839,0.472,0.844,-0.295,-0.671,0.0,0.488,1
0.264071,0.476,0.847,-0.291,-0.854,0.305,0.305,1
0.270652,0.479,0.85,-0.293,-0.183,-0.122,0.061,1
0.279021,0.476,0.847,-0.29,0.793,-0.122,0.244,1
0.286989,0.477,0.841,-0.293,0.61,-0.061,0.244,1
0.293572,0.477,0.846,-0.291,0.061,-0.061,0.061,1
0.302068,0.472,0.841,-0.294,-0.671,0.0,-0.122,1
0.309859,0.475,0.841,-0.296,-0.61,-0.244,-0.061,1
0.320502,0.479,0.844,-0.295,0.366,-0.366,-0.061,1
0.327704,0.475,0.847,-0.289,1.342,-0.549,-0.183,1
0.335062,0.477,0.842,-0.291,1.22,-0.488,0.061,1
0.343566,0.479,0.839,-0.294,-0.976,-0.183,-0.122,1
0.351458,0.476,0.846,-0.294,-2.014,0.0,-0.183,1
0.35972,0.477,0.848,-0.29,-1.403,-0.061,-0.061,1
0.366882,0.477,0.849,-0.29,0.061,0.0,-0.427,1
0.374888,0.478,0.842,-0.292,0.915,-0.549,-0.183,1
0.384076,0.477,0.84,-0.292,0.427,-0.427,-0.244,1
0.390931,0.474,0.841,-0.29,0.061,-0.427,-0.244,1
0.398962,0.474,0.84,-0.284,0.122,-0.244,-0.305,1
0.408168,0.473,0.843,-0.28,0.427,-0.305,-0.427,1
0.415177,0.475,0.842,-0.281,-0.244,0.122,-0.671,1
0.424583,0.474,0.842,-0.285,-0.61,-0.122,-0.732,1
0.432195,0.471,0.839,-0.285,-0.427,0.0,-0.427,1
0.440165,0.471,0.837,-0.286,0.305,-0.061,-0.61,1
0.447087,0.471,0.836,-0.28,0.671,-0.061,-0.549,1
0.456337,0.47,0.835,-0.283,0.366,-0.122,-0.671,1
0.464988,0.469,0.836,-0.29,-0.488,0.061,-0.61,1
0.47223,0.475,0.839,-0.289,-0.671,0.183,-0.549,1
0.480991,0.475,0.839,-0.289,-0.183,0.061,-0.671,1
0.488977,0.479,0.84,-0.29,0.366,0.061,-0.549,1
0.496485,0.475,0.834,-0.286,0.488,-0.183,-0.549,1
0.505304,0.479,0.831,-0.286,0.366,0.122,-0.488,1
0.513211,0.481,0.828,-0.285,0.061,0.305,-0.366,1
0.521027,0.482,0.826,-0.285,-0.366,0.427,-0.305,1
0.528097,0.475,0.836,-0.291,-0.061,0.305,-0.305,1
0.536866,0.479,0.83,-0.293,-0.061,0.305,-0.305,1
0.544045,0.479,0.83,-0.294,-0.366,0.183,-0.061,1
0.552006,0.479,0.831,-0.294,-0.732,0.488,-0.061,1
0.559765,0.478,0.829,-0.292,-0.549,0.244,-0.122,1
0.568592,0.481,0.829,-0.294,0.061,0.305,-0.122,1
0.5752,0.477,0.825,-0.293,0.427,0.305,0.183,1
0.584276,0.476,0.827,-0.295,0.427,0.244,-0.061,1
0.592333,0.478,0.832,-0.294,0.427,0.0,0.305,1
0.599557,0.476,0.832,-0.297,0.549,0.183,0.305,1
0.607553,0.474,0.833,-0.297,0.061,0.061,0.366,1
0.615906,0.478,0.837,-0.298,0.122,-0.061,0.488,1
0.622353,0.476,0.836,-0.296,-0.244,0.061,0.366,1
0.6307,0.475,0.84,-0.293,-0.061,0.0,0.183,1
0.639168,0.478,0.843,-0.291,0.305,-0.122,0.183,1
0.645732,0.479,0.84,-0.292,0.366,-0.244,0.183,1
0.653448,0.479,0.839,-0.293,0.549,-0.183,0.244,1
0.660443,0.477,0.843,-0.295,0.549,0.0,0.244,1
0.668843,0.473,0.845,-0.292,0.793,-0.305,0.183,1
0.67645,0.477,0.843,-0.291,0.854,-0.244,0.305,1
0.684357,0.474,0.84,-0.29,0.549,-0.122,0.122,1
0.693097,0.475,0.839,-0.285,0.183,-0.122,0.0,1
0.701155,0.475,0.839,-0.29,-0.366,0.122,0.0,1
0.70785,0.474,0.841,-0.291,-0.183,0.183,0.122,1
0.715098,0.476,0.84,-0.29,0.183,-0.183,0.0,1
0.722664,0.477,0.84,-0.289,0.305,0.061,0.0,1
0.731371,0.476,0.836,-0.291,0.915,0.0,-0.122,1
0.740185,0.474,0.837,-0.293,0.793,0.061,0.183,1
0.747339,0.475,0.835,-0.29,0.61,-0.061,0.183,1
0.75476,0.471,0.836,-0.293,-0.061,-0.122,-0.061,1
0.763935,0.473,0.838,-0.296,-0.427,-0.183,-0.122,1
0.771501,0.478,0.839,-0.292,-0.305,-0.183,-0.061,1
0.77889,0.478,0.839,-0.291,0.183,-0.183,-0.061,1
0.7874,0.478,0.838,-0.291,0.61,-0.061,0.0,1
0.795464,0.478,0.839,-0.293,1.098,-0.427,-0.061,1
0.803942,0.476,0.834,-0.294,1.281,-0.305,0.061,1
0.81063,0.478,0.834,-0.295,0.61,-0.183,0.183,1
0.818771,0.475,0.837,-0.296,0.061,0.061,0.183,1
0.825899,0.474,0.836,-0.293,-0.244,-0.183,0.0,1
0.835029,0.475,0.841,-0.296,-0.122,0.0,-0.183,1
0.841596,0.475,0.842,-0.296,-0.183,-0.366,-0.061,1
0.850319,0.476,0.842,-0.292,-0.061,-0.549,0.0,1
0.859643,0.473,0.843,-0.29,0.122,-0.122,-0.305,1
0.866698,0.476,0.843,-0.288,0.183,-0.488,0.0,1
0.874133,0.473,0.844,-0.289,0.244,-0.183,-0.061,1
0.881924,0.477,0.843,-0.29,0.427,-0.061,-0.122,1
0.890216,0.476,0.84,-0.291,0.183,-0.122,-0.366,1
0.897975,0.479,0.841,-0.29,0.061,-0.122,-0.427,1
0.907013,0.476,0.836,-0.289,0.0,0.0,0.061,1
0.914576,0.475,0.838,-0.287,0.122,-0.183,-0.122,1
0.922362,0.479,0.835,-0.287,0.122,-0.122,0.061,1
0.931237,0.474,0.838,-0.286,0.061,-0.061,0.061,1
0.939321,0.47,0.832,-0.288,0.183,0.0,-0.183,1
0.946759,0.473,0.837,-0.29,-0.305,0.122,-0.244,1
0.955708,0.476,0.843,-0.29,-0.732,-0.061,0.122,1
0.964477,0.478,0.845,-0.292,0.0,0.061,-0.183,1
0.97084,0.48,0.84,-0.292,0.244,0.061,-0.183,1
0.979935,0.477,0.835,-0.285,0.427,0.0,-0.183,1
0.987145,0.475,0.84,-0.286,0.488,-0.061,-0.244,1
0.99636,0.474,0.839,-0.288,0.671,0.244,-0.183,1
1.00407,0.475,0.84,-0.286,0.488,0.183,-0.305,1
1.010927,0.476,0.839,-0.287,0.305,0.244,-0.122,1
1.018464,0.476,0.84,-0.291,0.122,0.183,-0.244,1
1.026928,0.477,0.842,-0.291,-0.183,0.427,-0.183,1
1.034686,0.474,0.84,-0.291,-0.244,0.488,-0.366,1
1.042887,0.477,0.844,-0.292,-0.61,0.427,-0.427,1
1.051133,0.472,0.843,-0.294,-0.244,0.061,-0.427,1
1.059481,0.472,0.841,-0.294,-0.122,0.244,-0.244,1
1.067344,0.475,0.846,-0.293,-0.183,-0.061,-0.244,1
1.075413,0.473,0.84,-0.294,0.061,0.122,-0.305,1
1.081611,0.478,0.84,-0.292,0.183,0.183,-0.305,1
1.090309,0.482,0.837,-0.296,0.488,0.183,-0.305,1
1.098853,0.478,0.843,-0.297,0.122,0.244,-0.305,1
1.107876,0.476,0.84,-0.296,0.183,0.122,-0.427,1
1.115183,0.479,0.835,-0.294,0.305,-0.061,-0.366,1
1.122655,0.478,0.838,-0.295,0.427,0.0,-0.61,1
1.130066,0.475,0.833,-0.297,-0.427,0.0,-0.427,1
1.137736,0.476,0.833,-0.296,-0.793,0.122,-0.305,1
1.145634,0.475,0.835,-0.294,-0.61,-0.183,-0.244,1
1.154783,0.473,0.838,-0.291,0.0,0.305,-0.488,1
1.1625,0.473,0.836,-0.295,0.0,-0.061,-0.488,1
1.171241,0.474,0.835,-0.294,0.427,-0.183,-0.244,1
1.178491,0.474,0.838,-0.291,0.549,-0.122,-0.183,1
1.186181,0.473,0.833,-0.291,0.671,-0.244,-0.244,1
1.194883,0.473,0.835,-0.292,0.549,-0.427,-0.366,1
1.203315,0.472,0.838,-0.293,0.0,0.0,-0.488,1
1.210036,0.471,0.839,-0.292,-0.61,-0.183,-0.366,1
1.218066,0.472,0.842,-0.296,-0.671,-0.366,-0.244,1
1.2267,0.474,0.839,-0.294,-0.305,-0.305,-0.427,1
1.234883,0.473,0.839,-0.295,0.183,-0.244,-0.61,1
1.242409,0.478,0.838,-0.295,0.61,-0.183,-0.488,1
1.249958,0.476,0.836,-0.294,0.854,-0.488,-0.244,1
1.259182,0.479,0.832,-0.295,0.305,-0.183,-0.122,1
1.266124,0.478,0.836,-0.293,0.305,-0.244,-0.183,1
1.274923,0.477,0.836,-0.294,0.061,-0.366,0.061,1
1.28354,0.481,0.838,-0.294,-0.488,-0.183,0.0,1
1.292312,0.479,0.835,-0.293,-0.427,-0.061,0.0,1
1.299499,0.479,0.839,-0.293,-0.183,-0.244,-0.122,1
1.309363,0.48,0.836,-0.292,0.0,-0.244,-0.244,1
1.316084,0.48,0.833,-0.293,0.427,-0.427,-0.061,1
1.325984,0.482,0.829,-0.289,0.488,-0.366,-0.183,1
1.332968,0.483,0.831,-0.289,0.732,-0.183,-0.183,1
1.341047,0.482,0.828,-0.284,0.732,-0.061,-0.061,1
1.349053,0.478,0.836,-0.286,0.122,-0.122,0.0,1
1.356837,0.475,0.838,-0.291,-0.549,0.183,0.061,1
1.365205,0.475,0.84,-0.29,-0.671,0.122,-0.122,1
1.373658,0.478,0.84,-0.285,-0.061,0.061,-0.183,1
1.381002,0.476,0.847,-0.281,0.427,0.0,0.0,1
1.38991,0.475,0.838,-0.287,0.732,0.122,0.061,1
1.39724,0.478,0.839,-0.281,1.037,0.0,-0.183,1
1.404911,0.475,0.839,-0.28,0.854,0.305,-0.183,1
1.41401,0.475,0.837,-0.28,0.671,0.366,-0.427,1
1.421149,0.476,0.835,-0.284,0.427,0.366,-0.183,1
1.429025,0.478,0.834,-0.282,-0.366,0.549,-0.061,1
1.437976,0.476,0.839,-0.281,-0.61,0.61,-0.244,1
1.445814,0.476,0.84,-0.286,-0.366,0.671,-0.244,1
1.452951,0.48,0.838,-0.285,0.305,0.549,-0.183,1
1.462251,0.478,0.836,-0.285,0.793,0.488,-0.122,1
1.469453,0.479,0.833,-0.284,1.159,0.549,0.0,1
1.476954,0.478,0.832,-0.281,1.22,0.671,0.122,1
1.484507,0.479,0.831,-0.292,0.671,0.732,0.122,1
1.493777,0.476,0.829,-0.29,-0.244,0.915,-0.061,1
1.500425,0.475,0.832,-0.289,-0.549,0.976,0.122,1
1.508629,0.474,0.833,-0.289,-0.122,0.854,0.061,1
1.516526,0.475,0.832,-0.291,0.122,0.854,-0.061,1
1.524929,0.477,0.838,-0.292,0.305,0.732,0.183,1
1.533492,0.478,0.836,-0.287,0.793,0.854,0.244,1
1.540176,0.479,0.834,-0.288,0.793,0.793,0.244,1
1.548801,0.478,0.834,-0.292,0.915,0.732,0.305,1
1.555716,0.478,0.833,-0.293,0.61,0.854,0.366,1
1.562959,0.475,0.837,-0.295,0.366,0.976,0.427,1
1.571522,0.474,0.833,-0.294,0.061,0.854,0.427,1
1.578564,0.472,0.839,-0.295,-0.122,0.976,0.366,1
1.586249,0.473,0.842,-0.299,-0.244,0.976,0.305,1
1.594832,0.474,0.845,-0.299,-0.183,1.098,0.488,1
1.602985,0.475,0.845,-0.296,0.549,0.732,0.305,1
1.609835,0.474,0.841,-0.296,0.854,0.854,0.244,1
1.617925,0.472,0.838,-0.295,0.976,0.671,0.183,1
1.624462,0.47,0.839,-0.292,0.976,0.732,0.122,1
1.632447,0.476,0.84,-0.294,0.915,0.732,0.183,1
1.639131,0.473,0.839,-0.298,0.854,0.61,0.366,1
1.647231,0.473,0.838,-0.298,0.183,0.915,0.244,1
1.654573,0.474,0.838,-0.303,-0.122,0.549,0.244,1
1.662844,0.472,0.833,-0.3,-0.183,0.61,0.366,1
1.669984,0.471,0.837,-0.307,0.488,0.488,0.244,1
1.678804,0.471,0.844,-0.3,0.976,0.244,0.366,1
1.685809,0.474,0.836,-0.301,1.281,0.183,0.488,1
1.693331,0.476,0.843,-0.3,1.525,0.305,0.305,1
1.701982,0.47,0.842,-0.301,2.075,0.0,0.549,1
1.710284,0.469,0.837,-0.295,2.441,0.305,0.122,1
1.717731,0.47,0.841,-0.298,1.892,0.305,0.488,1
1.725705,0.471,0.842,-0.297,1.098,0.122,0.549,1
1.733393,0.474,0.844,-0.292,0.427,0.244,0.671,1
1.7401,0.477,0.851,-0.294,0.305,0.122,0.366,1
1.747712,0.48,0.857,-0.289,0.671,0.061,0.305,1
1.756689,0.482,0.859,-0.291,1.281,0.122,0.305,1
1.763967,0.483,0.86,-0.287,1.22,0.0,0.122,1
1.770953,0.483,0.862,-0.283,1.22,0.122,-0.061,1
1.779487,0.481,0.858,-0.278,1.403,0.122,-0.244,1
1.788471,0.485,0.854,-0.275,1.403,0.061,-0.427,1
1.795267,0.48,0.852,-0.271,1.098,0.183,-0.732,1
1.80272,0.477,0.85,-0.27,1.037,0.366,-0.671,1
1.811832,0.476,0.848,-0.269,0.671,0.366,-0.793,1
1.818725,0.477,0.847,-0.267,0.244,0.793,-0.732,1
1.826603,0.473,0.849,-0.268,-0.183,0.732,-0.732,1
1.835768,0.472,0.845,-0.272,-0.427,1.037,-0.793,1
1.843563,0.475,0.843,-0.272,-0.671,1.281,-0.732,1
1.851493,0.474,0.841,-0.275,-0.976,1.281,-1.098,1
1.859077,0.476,0.839,-0.275,-0.488,1.342,-0.793,1
1.867018,0.479,0.834,-0.28,0.122,1.342,-0.854,1
1.875066,0.474,0.828,-0.284,0.244,1.525,-0.793,1
1.882046,0.474,0.825,-0.285,-0.122,1.525,-0.793,1
1.89011,0.475,0.825,-0.284,-0.549,1.525,-0.793,1
1.897394,0.474,0.825,-0.285,-1.159,2.075,-0.61,1
1.906201,0.474,0.827,-0.288,-0.854,1.77,-0.61,1
1.913944,0.473,0.826,-0.288,-0.915,1.953,-0.488,1
1.921629,0.471,0.822,-0.291,-0.976,1.892,-0.366,1
1.930946,0.474,0.825,-0.295,-0.732,1.708,-0.366,1
1.937844,0.471,0.822,-0.291,0.0,1.525,-0.488,1
1.946515,0.48,0.823,-0.293,0.488,1.647,-0.244,1
1.953995,0.479,0.818,-0.292,0.915,1.586,-0.244,1
1.963083,0.475,0.817,-0.288,0.549,1.525,-0.061,1
1.970879,0.471,0.818,-0.287,0.305,1.708,0.305,1
1.978766,0.468,0.818,-0.286,-0.305,1.647,0.244,1
1.987281,0.468,0.82,-0.287,-0.732,1.77,0.366,1
1.995174,0.47,0.821,-0.291,-1.037,1.892,0.305,1
2.002396,0.474,0.82,-0.288,-1.159,2.014,0.61,1
2.011355,0.477,0.816,-0.291,-1.525,2.319,0.549,1
2.018983,0.478,0.816,-0.29,-2.441,2.746,0.854,1
2.026535,0.474,0.81,-0.285,-3.845,3.051,0.793,1
2.034103,0.465,0.805,-0.287,-5.065,3.601,1.403,1
2.043598,0.458,0.802,-0.296,-6.225,4.333,1.708,1
2.04992,0.449,0.801,-0.305,-7.08,4.272,2.075,1
2.05911,0.442,0.795,-0.316,-6.591,5.004,2.38,1
2.066554,0.435,0.786,-0.346,-6.469,4.577,2.685,1
2.074761,0.425,0.776,-0.361,-6.408,5.004,3.173,1
2.081769,0.413,0.77,-0.398,-5.004,4.943,3.723,1
2.089298,0.396,0.759,-0.436,-2.807,4.577,4.028,1
2.097932,0.383,0.736,-0.479,-1.037,4.272,4.577,1
2.105952,0.366,0.726,-0.537,-0.122,3.845,5.187,1
2.112822,0.337,0.708,-0.625,-1.647,3.234,5.615,1
2.121928,0.321,0.698,-0.719,-5.676,2.258,6.164,1
2.12929,0.285,0.697,-0.826,-8.483,0.793,6.835,1
2.137614,0.261,0.691,-0.96,-11.047,-0.915,7.568,1
2.145045,0.242,0.689,-1.129,-14.587,-4.211,8.178,1
2.153765,0.215,0.677,-1.274,-19.775,-8.422,9.155,1
2.160679,0.189,0.665,-1.436,-25.451,-12.878,10.498,1
2.169019,0.181,0.649,-1.639,-32.104,-18.859,12.145,1
2.177326,0.158,0.651,-1.812,-41.687,-26.916,13.977,1
2.186101,0.135,0.654,-2.002,-51.818,-35.339,15.93,1
2.193077,0.098,0.67,-2.192,-58.288,-47.607,18.371,1
2.201565,0.058,0.689,-2.346,-57.739,-59.753,20.324,1
2.208448,0.029,0.702,-2.497,-59.875,-73.059,22.033,1
2.217395,0.015,0.722,-2.591,-60.18,-88.623,24.597,1
2.224731,-0.013,0.735,-2.674,-59.204,-104.003,26.245,1
2.233933,-0.033,0.737,-2.697,-58.959,-118.408,28.015,1
2.24183,-0.059,0.745,-2.741,-58.898,-135.681,30.639,1
2.250712,-0.089,0.76,-2.724,-59.082,-150.878,33.02,1
2.257786,-0.143,0.795,-2.705,-54.626,-168.579,36.193,1
2.266911,-0.22,0.84,-2.688,-51.757,-183.349,38.452,1
2.273716,-0.287,0.874,-2.656,-50.231,-201.171,40.71,1
2.282699,-0.387,0.95,-2.603,-47.18,-216.369,42.175,1
2.290792,-0.513,1.049,-2.517,-43.64,-233.154,43.823,1
2.298289,-0.64,1.15,-2.424,-44.311,-247.741,44.189,1
2.307035,-0.82,1.29,-2.276,-43.334,-263.244,43.334,1
2.315037,-0.954,1.401,-2.151,-39.55,-276.916,41.809,1
2.322895,-1.122,1.478,-1.982,-34.362,-289.489,38.757,1
2.330551,-1.297,1.547,-1.759,-28.808,-302.673,34.606,1
2.339932,-1.455,1.571,-1.558,-27.343,-312.622,30.578,1
2.347037,-1.593,1.578,-1.328,-29.052,-321.35,26.245,1
2.356318,-1.701,1.615,-1.149,-30.761,-328.491,21.728,1
2.363675,-1.812,1.642,-0.935,-27.893,-334.96,17.883,1
2.372737,-1.925,1.669,-0.679,-24.658,-341.125,12.939,1
2.381403,-2.032,1.7,-0.412,-25.573,-344.421,7.873,1
2.389399,-2.09,1.709,-0.191,-28.686,-346.069,3.356,1
2.396949,-2.118,1.719,0.063,-30.7,-345.642,-2.014,1
2.405651,-2.155,1.752,0.261,-27.954,-345.581,-6.164,1
2.413424,-2.127,1.767,0.544,-20.874,-343.139,-11.901,1
2.420565,-2.058,1.762,0.775,-17.089,-339.477,-16.967,1
2.429167,-1.975,1.725,1.0,-18.432,-333.74,-22.277,1
2.438027,-1.857,1.675,1.23,-24.047,-323.669,-27.832,1
2.445096,-1.74,1.65,1.416,-26.489,-316.04,-32.348,1
2.453949,-1.582,1.604,1.637,-20.324,-304.565,-37.048,1
2.461545,-1.427,1.549,1.787,-19.042,-294.677,-40.832,1
2.469412,-1.256,1.478,1.951,-20.446,-282.897,-44.25,1
2.477198,-1.052,1.406,2.093,-22.46,-267.822,-47.912,1
2.485676,-0.885,1.357,2.193,-22.277,-255.676,-50.72,1
2.494648,-0.703,1.269,2.31,-18.615,-239.135,-53.588,1
2.501997,-0.538,1.191,2.379,-17.944,-225.769,-55.48,1
2.511171,-0.381,1.095,2.442,-19.592,-208.74,-57.556,1
2.51882,-0.258,1.016,2.453,-21.911,-194.641,-59.02,1
2.526888,-0.129,0.938,2.423,-21.118,-179.809,-60.058,1
2.535488,-0.046,0.884,2.42,-15.319,-169.25,-61.096,1
2.542915,-0.02,0.834,2.445,-5.615,-158.02,-62.133,1
2.550483,0.065,0.736,2.44,-1.525,-145.996,-62.683,1
2.559203,0.073,0.685,2.437,-1.464,-133.483,-62.622,1
2.567991,0.113,0.631,2.385,-0.488,-122.558,-62.011,1
2.575043,0.15,0.581,2.323,1.647,-108.154,-60.791,1
2.583683,0.193,0.526,2.228,-0.305,-96.862,-59.143,1
2.592493,0.25,0.482,2.129,-0.366,-85.021,-56.579,1
2.600932,0.309,0.438,2.052,-0.61,-74.218,-54.199,1
2.608213,0.373,0.397,1.968,-2.624,-62.316,-50.903,1
2.61637,0.408,0.378,1.863,-3.784,-52.124,-47.607,1
2.625155,0.428,0.376,1.764,-2.197,-43.579,-44.494,1
2.632201,0.435,0.354,1.637,0.244,-34.973,-41.076,1
2.64118,0.451,0.34,1.527,1.464,-28.381,-38.085,1
2.648215,0.458,0.343,1.444,2.685,-20.874,-34.79,1
2.657052,0.455,0.351,1.354,5.065,-15.014,-31.86,1
2.663872,0.467,0.354,1.255,5.554,-9.094,-29.113,1
2.673149,0.472,0.362,1.165,3.479,-4.028,-26.367,1
2.68045,0.478,0.386,1.109,1.342,0.0,-24.108,1
2.687816,0.474,0.413,1.063,1.892,4.272,-21.972,1
2.696699,0.472,0.434,1.007,0.732,8.056,-20.202,1
2.705378,0.474,0.456,0.953,-1.525,12.939,-17.761,1
2.712538,0.473,0.481,0.892,-3.479,16.235,-16.052,1
2.719928,0.479,0.503,0.818,-4.211,19.958,-14.099,1
2.728845,0.49,0.522,0.744,-3.112,21.911,-12.634,1
2.736744,0.51,0.54,0.666,-0.732,23.498,-11.047,1
2.743999,0.518,0.553,0.599,1.586,24.902,-9.399,1
2.751765,0.539,0.564,0.547,4.333,25.451,-7.995,1
2.759553,0.55,0.574,0.496,7.202,25.634,-6.835,1
2.768645,0.558,0.591,0.45,10.253,25.512,-5.737,1
2.775903,0.558,0.604,0.405,13.488,25.329,-4.638,1
2.783988,0.568,0.612,0.372,16.662,24.658,-3.601,1
2.792259,0.589,0.616,0.337,17.211,24.841,-2.868,1
2.799742,0.576,0.623,0.305,15.93,24.78,-2.502,1
2.80602,0.577,0.632,0.273,14.953,24.353,-1.464,1
2.813607,0.585,0.647,0.242,13.549,23.437,-0.915,1
2.822607,0.596,0.664,0.215,13.549,22.644,-0.427,1
2.82985,0.596,0.684,0.185,13.488,21.423,-0.366,1
2.837381,0.599,0.696,0.165,13.732,19.531,-0.305,1
2.845879,0.608,0.705,0.148,13.854,17.822,-0.305,1
2.853111,0.61,0.711,0.139,14.16,16.052,-0.549,1
2.862196,0.615,0.727,0.132,14.648,14.465,-0.61,1
2.868698,0.615,0.734,0.135,15.502,12.329,-0.976,1
2.876632,0.61,0.744,0.133,16.479,10.925,-1.22,1
2.885554,0.611,0.75,0.135,16.052,9.155,-1.342,1
2.892661,0.604,0.756,0.142,14.099,7.812,-1.831,1
2.900303,0.602,0.769,0.145,11.291,6.774,-2.441,1
2.907822,0.612,0.784,0.156,9.948,5.126,-3.173,1
2.916773,0.624,0.787,0.165,9.582,3.906,-3.662,1
2.923921,0.633,0.793,0.165,9.765,2.929,-4.455,1
2.931451,0.636,0.797,0.176,9.765,1.892,-5.31,1
2.938988,0.651,0.789,0.179,8.666,0.793,-6.103,1
2.946723,0.672,0.775,0.184,8.239,-0.122,-7.141,1
2.954689,0.677,0.765,0.19,7.873,-1.159,-7.629,1
2.963869,0.685,0.758,0.197,8.239,-2.319,-8.117,1
2.971015,0.694,0.756,0.21,8.3,-3.601,-8.361,1
2.978511,0.685,0.757,0.227,8.728,-4.089,-8.728,1
2.986705,0.678,0.754,0.233,8.85,-5.31,-9.155,1
2.994961,0.672,0.752,0.252,7.873,-6.225,-9.338,1
3.004111,0.661,0.756,0.28,6.347,-6.958,-9.887,1
3.011898,0.65,0.749,0.299,4.76,-7.507,-9.826,1
3.01877,0.645,0.747,0.327,4.211,-7.507,-10.314,1
3.026843,0.643,0.744,0.343,4.272,-7.812,-10.681,1
3.03491,0.645,0.73,0.357,4.15,-7.873,-11.108,1
3.041746,0.653,0.713,0.372,3.479,-7.812,-11.23,1
3.050079,0.656,0.704,0.384,2.319,-7.69,-11.352,1
3.057905,0.654,0.692,0.398,1.708,-7.141,-11.84,1
3.066186,0.649,0.682,0.404,2.014,-7.019,-11.779,1
3.072586,0.644,0.669,0.415,2.929,-6.896,-11.84,1
3.080451,0.641,0.661,0.423,4.577,-6.652,-11.779,1
3.089025,0.641,0.651,0.43,6.469,-6.652,-11.779,1
3.096442,0.638,0.644,0.437,8.361,-6.286,-11.474,1
3.105122,0.644,0.62,0.443,8.972,-5.737,-11.291,1
3.111989,0.643,0.612,0.446,8.605,-5.432,-11.23,1
3.121294,0.636,0.604,0.456,8.483,-4.76,-10.742,1
3.127744,0.638,0.599,0.452,6.896,-3.784,-10.192,1
3.135391,0.638,0.592,0.449,4.821,-3.479,-9.826,1
3.144633,0.625,0.597,0.448,3.051,-3.051,-9.033,1
3.150868,0.637,0.594,0.446,2.624,-2.441,-8.483,1
3.160373,0.642,0.585,0.454,2.868,-2.319,-8.117,1
3.167876,0.641,0.584,0.457,1.77,-2.258,-7.446,1
3.174917,0.651,0.573,0.461,0.061,-1.525,-6.591,1
3.183799,0.656,0.578,0.471,0.244,-1.22,-5.859,1
3.192547,0.661,0.582,0.477,1.281,-0.549,-5.065,1
3.198841,0.662,0.58,0.487,2.319,-0.122,-4.577,1
3.207256,0.654,0.584,0.489,2.563,0.671,-3.906,1
3.213691,0.651,0.583,0.494,1.77,1.586,-3.54,1
3.220293,0.647,0.585,0.49,-0.061,2.319,-2.99,1
3.230015,0.645,0.59,0.484,-1.953,3.112,-2.624,1
3.236564,0.643,0.592,0.473,-2.319,3.723,-2.441,1
3.243918,0.646,0.597,0.465,-2.136,4.333,-1.464,1
3.252519,0.646,0.603,0.448,-1.953,4.699,-0.915,1
3.260844,0.64,0.61,0.44,-1.77,4.821,-0.549,1
3.267659,0.633,0.613,0.434,-1.708,4.821,-0.427,1
3.275893,0.631,0.614,0.424,-1.953,4.821,-0.122,1
3.284138,0.633,0.617,0.417,-2.441,4.76,0.0,1
3.293231,0.637,0.62,0.409,-2.502,5.065,0.671,1
3.300233,0.644,0.619,0.398,-3.173,4.516,0.671,1
3.307549,0.638,0.629,0.407,-2.563,4.882,1.464,1
3.315669,0.634,0.627,0.401,-2.868,4.699,1.464,1
3.323508,0.635,0.635,0.406,-5.004,4.882,2.075,1
3.330384,0.639,0.642,0.406,-7.507,5.004,2.38,1
3.339511,0.648,0.66,0.413,-9.399,5.371,2.38,1
3.346856,0.643,0.674,0.416,-9.704,5.493,2.258,1
3.353965,0.656,0.68,0.418,-9.521,5.493,2.014,1
3.363447,0.662,0.687,0.421,-9.094,5.493,1.586,1
3.370521,0.663,0.681,0.421,-8.728,5.737,1.281,1
3.377959,0.659,0.676,0.412,-9.582,6.103,1.098,1
3.384734,0.66,0.676,0.407,-10.314,6.103,0.915,1
3.393752,0.667,0.674,0.401,-9.826,5.981,0.793,1
3.400463,0.665,0.672,0.395,-8.3,5.859,0.793,1
3.407969,0.664,0.669,0.393,-6.286,5.981,0.671,1
3.416335,0.661,0.672,0.386,-4.455,5.92,0.732,1
3.423768,0.661,0.67,0.37,-3.356,5.981,0.976,1
3.432651,0.658,0.671,0.361,-2.929,5.859,0.915,1
3.439384,0.659,0.677,0.347,-2.014,5.493,0.854,1
3.448508,0.66,0.678,0.332,-1.464,5.249,1.037,1
3.455894,0.655,0.68,0.318,-1.525,4.943,1.037,1
3.462807,0.645,0.681,0.306,-1.953,4.882,1.098,1
3.470455,0.641,0.684,0.296,-3.051,4.089,1.22,1
3.47925,0.643,0.687,0.291,-3.295,3.54,0.976,1
3.48639,0.644,0.688,0.284,-3.112,2.99,1.342,1
3.495552,0.644,0.695,0.283,-3.295,2.502,1.159,1
3.503014,0.645,0.695,0.277,-3.723,2.075,0.61,1
3.510784,0.645,0.694,0.274,-3.906,1.342,0.488,1
3.517926,0.646,0.685,0.27,-3.479,0.732,0.183,1
3.526921,0.649,0.686,0.268,-2.197,0.061,0.244,1
3.533861,0.662,0.68,0.265,-0.305,-0.854,0.183,1
3.542318,0.657,0.68,0.262,2.136,-1.708,0.427,1
3.550266,0.654,0.677,0.257,3.662,-2.624,0.549,1
3.558234,0.652,0.679,0.257,3.784,-3.234,0.427,1
3.565804,0.657,0.675,0.261,2.746,-3.906,0.671,1
3.573606,0.657,0.681,0.265,1.098,-4.516,0.732,1
3.580857,0.664,0.685,0.27,-0.427,-5.004,0.61,1
3.589881,0.666,0.687,0.275,-0.61,-5.554,0.488,1
3.596788,0.673,0.684,0.28,0.0,-6.408,0.61,1
3.605037,0.671,0.684,0.289,0.671,-7.141,0.244,1
3.612203,0.667,0.681,0.301,1.037,-7.629,0.366,1
3.62112,0.666,0.68,0.311,1.953,-8.178,0.488,1
3.628548,0.653,0.681,0.327,2.502,-8.422,0.427,1
3.637195,0.644,0.676,0.339,2.136,-8.422,0.244,1
3.643636,0.647,0.674,0.351,1.037,-8.544,0.427,1
3.651326,0.652,0.678,0.356,0.0,-8.544,0.305,1
3.659468,0.659,0.678,0.362,-0.305,-8.544,0.427,1
3.668285,0.654,0.682,0.374,0.244,-8.422,0.366,1
3.675238,0.658,0.686,0.374,1.22,-8.605,0.427,1
3.683422,0.655,0.687,0.392,1.708,-8.666,0.244,1
3.690882,0.653,0.687,0.393,1.22,-8.361,0.305,1
3.699577,0.658,0.689,0.406,1.403,-8.3,0.061,1
3.706581,0.651,0.687,0.406,1.586,-7.995,0.183,1
3.71491,0.646,0.689,0.416,1.525,-7.873,0.122,1
3.722248,0.65,0.687,0.418,1.525,-7.385,0.183,1
3.730431,0.65,0.689,0.415,1.342,-6.774,0.0,1
3.737929,0.653,0.688,0.408,1.892,-6.896,0.061,1
3.746046,0.653,0.68,0.408,2.38,-6.713,0.122,1
3.753967,0.649,0.682,0.408,3.417,-6.713,-0.183,1
3.760978,0.649,0.687,0.407,4.15,-6.408,-0.122,1
3.770213,0.644,0.686,0.417,3.723,-6.469,-0.427,1
3.777249,0.639,0.681,0.421,2.807,-6.042,-0.244,1
3.78489,0.639,0.676,0.419,1.037,-5.92,-0.305,1
3.793738,0.638,0.671,0.431,0.305,-5.554,-0.061,1
3.801671,0.643,0.669,0.428,0.427,-5.065,0.122,1
3.809331,0.644,0.673,0.428,-0.366,-5.065,0.0,1
3.817359,0.65,0.667,0.427,-0.793,-4.882,0.0,1
3.824537,0.65,0.669,0.425,-0.488,-4.638,0.244,1
3.832261,0.656,0.669,0.43,0.427,-4.638,0.244,1
3.841282,0.653,0.674,0.429,1.464,-4.638,0.183,1
3.848279,0.651,0.67,0.429,1.525,-4.516,0.183,1
3.855191,0.644,0.671,0.431,1.281,-4.272,0.305,1
3.863795,0.643,0.673,0.436,1.342,-4.272,0.549,1
3.870973,0.639,0.677,0.442,2.075,-3.967,0.488,1
3.878518,0.636,0.675,0.441,2.624,-3.723,0.244,1
3.88714,0.636,0.67,0.439,1.953,-3.356,0.488,1
3.894275,0.637,0.669,0.438,1.464,-3.173,0.488,1
3.901399,0.639,0.668,0.434,1.586,-2.746,0.61,1
3.909177,0.642,0.666,0.429,1.647,-2.807,0.488,1
3.91786,0.641,0.664,0.435,1.647,-2.563,0.183,1
3.924789,0.639,0.663,0.439,1.77,-2.441,0.732,1
3.9338,0.64,0.662,0.437,1.403,-1.953,0.732,1
3.940789,0.637,0.663,0.437,0.854,-1.586,0.732,1
3.948039,0.63,0.664,0.432,0.488,-1.22,0.854,1
3.955703,0.637,0.663,0.423,0.183,-1.037,1.037,1
3.963719,0.64,0.665,0.42,0.305,-1.098,1.159,1
3.972702,0.64,0.66,0.41,-0.061,-0.854,0.732,1
3.97932,0.638,0.666,0.407,-0.183,-0.793,1.403,1
3.988148,0.642,0.669,0.409,0.305,-0.976,1.281,1
3.994886,0.637,0.67,0.409,0.976,-1.159,1.464,1
4.002345,0.637,0.673,0.412,1.525,-1.342,1.525,1
4.011122,0.63,0.672,0.413,0.61,-1.037,1.403,1
4.017503,0.639,0.676,0.409,-1.281,-0.793,1.647,1
4.025979,0.634,0.687,0.411,-2.563,-0.366,1.525,1
4.033107,0.634,0.693,0.412,-2.99,-0.427,1.281,1
4.041156,0.643,0.689,0.413,-3.417,-0.366,1.159,1
4.048905,0.641,0.693,0.411,-3.906,-0.061,1.281,1
4.056248,0.645,0.694,0.407,-4.211,0.0,1.159,1
4.064321,0.645,0.697,0.403,-3.784,0.122,0.854,1
4.073296,0.645,0.692,0.403,-2.807,0.0,0.61,1
4.079887,0.644,0.689,0.397,-2.014,-0.183,0.549,1
4.086749,0.642,0.683,0.394,-1.464,-0.305,0.366,1
4.095027,0.639,0.683,0.394,-0.915,-0.366,0.244,1
4.102453,0.635,0.682,0.391,0.122,-0.427,0.61,1
4.111071,0.632,0.685,0.383,0.427,-0.732,0.305,1
4.118294,0.641,0.68,0.381,0.183,-0.671,0.488,1
4.126404,0.642,0.683,0.378,0.427,-0.732,0.732,1
4.134207,0.644,0.684,0.372,0.305,-1.159,0.61,1
4.142672,0.644,0.681,0.368,0.122,-1.098,0.671,1
4.149399,0.642,0.681,0.364,-0.488,-1.342,0.671,1
4.157744,0.641,0.683,0.363,-0.549,-1.281,0.549,1
4.166327,0.64,0.683,0.364,-0.549,-1.831,0.549,1
4.173685,0.642,0.687,0.361,-0.793,-1.831,0.671,1
4.18061,0.644,0.69,0.358,-0.854,-2.197,0.549,1
4.188365,0.639,0.695,0.361,-0.305,-2.197,0.061,1
4.197534,0.64,0.694,0.37,0.183,-2.624,0.183,1
4.205432,0.636,0.691,0.369,0.427,-2.868,0.305,1
4.213522,0.639,0.679,0.373,0.061,-2.868,-0.183,1
4.220671,0.639,0.677,0.38,-0.366,-2.929,0.061,1
4.228641,0.643,0.674,0.378,-0.976,-2.807,0.183,1
4.237596,0.647,0.679,0.381,-0.793,-2.99,0.427,1
4.244588,0.651,0.685,0.381,0.366,-3.173,0.366,1
4.253806,0.646,0.681,0.387,1.403,-3.54,0.366,1
4.261344,0.642,0.679,0.387,1.586,-3.54,0.305,1
4.269272,0.636,0.676,0.391,2.014,-3.967,0.122,1
4.277283,0.634,0.673,0.398,2.99,-4.089,0.244,1
4.284106,0.63,0.666,0.398,2.685,-4.272,0.427,1
4.292979,0.628,0.67,0.403,1.892,-4.15,0.549,1
4.30074,0.633,0.683,0.417,2.502,-4.333,0.915,1
4.308288,0.626,0.689,0.42,5.004,-4.638,0.915,1
4.315614,0.627,0.685,0.432,6.408,-4.699,0.671,1
4.324713,0.626,0.68,0.435,6.042,-4.577,0.671,1
4.331404,0.627,0.678,0.442,4.699,-4.028,0.793,1
4.338982,0.63,0.684,0.444,3.234,-3.723,1.159,1
4.347946,0.62,0.691,0.452,1.953,-3.417,1.098,1
4.3547,0.613,0.695,0.456,1.22,-2.929,0.732,1
4.363802,0.61,0.692,0.457,0.122,-2.624,0.549,1
4.371842,0.609,0.691,0.459,-1.77,-1.77,0.183,1
4.380738,0.61,0.687,0.457,-3.784,-1.281,0.0,1
4.388186,0.609,0.683,0.453,-4.028,-1.281,0.0,1
4.395356,0.618,0.677,0.45,-4.455,-0.61,-0.244,1
4.40356,0.628,0.677,0.449,-5.126,-0.061,-0.183,1
4.412266,0.634,0.672,0.437,-4.943,-0.122,-0.244,1
4.419102,0.635,0.67,0.439,-4.272,0.061,0.061,1
4.428234,0.638,0.672,0.43,-3.906,0.305,0.244,1
4.435461,0.635,0.673,0.421,-3.906,0.427,0.366,1
4.444307,0.639,0.682,0.418,-3.295,0.305,0.549,1
4.451595,0.637,0.686,0.411,-2.502,0.366,0.793,1
4.458809,0.638,0.69,0.406,-2.075,0.244,0.793,1
4.467234,0.643,0.687,0.407,-2.197,0.244,0.854,1
4.474593,0.639,0.695,0.402,-2.075,0.244,0.427,1
4.483542,0.64,0.696,0.403,-1.22,0.183,0.61,1
4.491665,0.644,0.698,0.399,-0.366,-0.183,0.549,1
4.498453,0.636,0.697,0.393,0.305,-0.061,0.366,1
4.506051,0.636,0.695,0.392,-0.366,-0.122,0.244,1
4.5147,0.634,0.69,0.387,-0.793,-0.122,0.0,1
4.521437,0.63,0.687,0.386,-1.342,0.061,0.244,1
4.530364,0.627,0.691,0.38,-0.61,-0.061,0.183,1
4.538221,0.628,0.687,0.373,0.305,-0.061,0.244,1
4.545977,0.634,0.685,0.36,0.671,-0.488,0.305,1
4.553285,0.634,0.686,0.36,1.037,-0.732,0.061,1
4.562209,0.634,0.682,0.355,1.22,-1.098,0.061,1
4.568886,0.628,0.68,0.347,1.281,-1.403,0.244,1
4.576604,0.63,0.676,0.349,0.915,-1.647,0.0,1
4.584914,0.63,0.674,0.348,1.342,-1.892,0.305,1
4.592289,0.621,0.672,0.348,0.671,-2.258,0.305,1
4.600675,0.625,0.673,0.349,0.366,-2.441,0.671,1
4.608163,0.623,0.676,0.354,0.732,-2.868,0.671,1
4.615437,0.624,0.673,0.351,1.098,-3.051,0.671,1
4.624427,0.625,0.673,0.348,1.586,-3.601,0.732,1
4.631547,0.629,0.667,0.352,2.075,-3.967,0.671,1
4.63901,0.631,0.662,0.345,3.295,-4.577,0.732,1
4.64794,0.628,0.654,0.347,4.638,-5.371,0.915,1
4.655016,0.624,0.65,0.352,6.103,-5.981,1.098,1
4.662255,0.625,0.649,0.357,7.507,-6.591,1.342,1
4.670537,0.618,0.647,0.362,8.422,-6.713,1.586,1
4.678018,0.609,0.649,0.371,8.3,-6.958,1.525,1
4.685406,0.605,0.649,0.385,8.178,-7.385,1.831,1
4.694414,0.599,0.653,0.397,10.314,-7.751,2.319,1
4.701645,0.599,0.663,0.4,13.916,-8.117,2.319,1
4.709536,0.597,0.66,0.408,16.784,-8.544,2.502,1
4.71688,0.599,0.653,0.411,18.92,-8.911,2.563,1
4.724472,0.609,0.652,0.424,21.606,-9.094,2.807,1
4.732007,0.617,0.655,0.423,24.353,-9.643,3.234,1
4.739605,0.616,0.653,0.433,25.329,-9.887,3.295,1
4.747648,0.613,0.648,0.444,23.986,-10.07,3.601,1
4.755345,0.605,0.649,0.458,18.31,-9.338,3.479,1
4.763799,0.61,0.657,0.471,12.39,-9.033,3.479,1
4.770582,0.596,0.665,0.492,8.3,-8.178,3.295,1
4.778516,0.588,0.666,0.511,5.249,-7.446,3.479,1
4.786748,0.586,0.669,0.528,3.295,-6.774,3.051,1
4.794871,0.589,0.667,0.537,0.549,-5.371,3.234,1
4.801479,0.595,0.664,0.541,-2.258,-4.394,3.173,1
4.808449,0.603,0.667,0.544,-2.807,-3.479,3.173,1
4.816628,0.615,0.673,0.543,-1.342,-2.929,3.173,1
4.823977,0.618,0.67,0.549,1.159,-2.624,3.173,1
4.831728,0.62,0.667,0.545,1.708,-1.892,3.417,1
4.840655,0.625,0.671,0.549,1.037,-1.464,3.479,1
4.847366,0.625,0.673,0.554,0.915,-0.671,3.601,1
4.855789,0.627,0.682,0.558,1.647,-0.061,3.662,1
4.863249,0.627,0.683,0.563,2.807,0.549,3.845,1
4.871152,0.627,0.686,0.562,3.173,1.098,3.845,1
4.878082,0.63,0.68,0.561,2.075,1.525,3.784,1
4.885441,0.638,0.676,0.561,0.427,2.563,3.784,1
4.894333,0.633,0.674,0.559,-1.037,3.417,3.906,1
4.902488,0.632,0.675,0.555,-2.197,4.455,3.967,1
4.908624,0.631,0.68,0.541,-2.99,5.432,4.272,1
4.917195,0.63,0.684,0.531,-2.624,5.981,4.15,1
4.923932,0.629,0.688,0.516,-1.525,6.591,4.455,1
4.93146,0.625,0.69,0.494,-0.732,6.958,4.333,1
4.940032,0.623,0.693,0.471,-0.671,7.324,4.15,1
4.948697,0.618,0.686,0.449,-0.732,7.385,3.967,1
4.95604,0.611,0.682,0.426,-0.244,7.446,3.784,1
4.96348,0.607,0.674,0.41,-0.183,7.324,3.417,1
4.972573,0.6,0.668,0.39,0.183,7.08,3.479,1
4.979781,0.6,0.661,0.366,0.915,6.652,3.662,1
4.986689,0.602,0.653,0.349,0.854,6.042,3.845,1
4.994251,0.602,0.645,0.337,0.915,5.371,3.967,1
5.001763,0.606,0.635,0.317,0.793,4.882,4.394,1
5.01064,0.609,0.626,0.311,-0.488,4.15,4.638,1
5.017688,0.617,0.617,0.309,-1.159,3.356,5.004,1
5.025288,0.624,0.611,0.3,-1.892,2.624,5.187,1
5.03393,0.625,0.6,0.292,-2.136,1.708,5.493,1
5.041197,0.625,0.58,0.291,-2.563,0.732,5.859,1
5.048772,0.604,0.573,0.285,-2.746,-0.854,6.652,1
5.057876,0.585,0.567,0.29,-2.563,-2.014,7.141,1
5.064666,0.562,0.55,0.301,-0.488,-3.479,8.056,1
5.073243,0.544,0.528,0.319,3.173,-6.103,8.85,1
5.080502,0.53,0.508,0.351,7.202,-8.239,9.826,1
5.088468,0.514,0.483,0.406,11.657,-10.131,10.986,1
5.097238,0.478,0.46,0.5,12.878,-11.413,11.962,1
5.104355,0.429,0.437,0.597,8.178,-12.268,13.061,1
5.111824,0.406,0.434,0.724,4.943,-11.535,14.465,1
5.121648,0.344,0.447,0.893,5.92,-10.864,15.686,1
5.128619,0.268,0.447,1.09,12.023,-8.666,17.089,1
5.135719,0.217,0.426,1.324,20.507,-4.699,18.92,1
5.14395,0.202,0.387,1.537,30.822,0.0,20.568,1
5.151551,0.216,0.345,1.77,46.63,5.798,23.62,1
5.158599,0.236,0.273,1.979,60.791,13.61,27.16,1
5.167793,0.285,0.197,2.184,68.237,22.766,32.348,1
5.174757,0.339,0.131,2.363,66.04,34.179,37.841,1
5.183318,0.352,0.09,2.583,55.908,48.828,44.189,1
5.190091,0.343,0.072,2.762,47.912,62.622,49.926,1
5.198096,0.313,0.067,2.929,43.273,77.758,55.053,1
5.206121,0.268,0.076,3.058,42.724,93.261,60.607,1
5.213958,0.19,0.102,3.147,42.907,108.886,65.429,1
5.222022,0.075,0.131,3.217,42.541,125.122,70.678,1
5.230094,-0.047,0.178,3.259,40.283,141.967,75.378,1
5.237058,-0.22,0.239,3.291,37.597,162.414,80.749,1
5.246371,-0.339,0.292,3.274,37.353,180.053,84.533,1
5.253593,-0.525,0.337,3.216,33.63,197.326,88.256,1
5.260819,-0.671,0.402,3.154,30.09,215.026,92.041,1
5.268288,-0.854,0.483,3.024,29.663,231.994,95.581,1
5.277373,-0.98,0.558,2.877,30.273,251.159,99.182,1
5.284012,-1.119,0.647,2.696,31.982,266.235,101.867,1
5.292617,-1.229,0.752,2.505,34.606,279.357,103.759,1
5.299152,-1.385,0.868,2.323,38.757,291.564,104.98,1
5.307431,-1.513,0.96,2.132,43.09,302.124,105.529,1
5.314342,-1.672,1.074,1.964,50.231,311.645,106.14,1
5.32294,-1.808,1.203,1.777,58.532,320.495,106.811,1
5.330836,-1.95,1.322,1.584,63.964,328.735,106.506,1
5.339278,-2.028,1.44,1.324,61.523,336.181,105.59,1
5.346739,-2.122,1.562,1.096,48.889,344.726,102.783,1
5.354016,-2.205,1.711,0.87,39.978,350.585,98.999,1
5.361606,-2.22,1.856,0.646,33.508,353.942,92.956,1
5.369101,-2.241,1.97,0.443,26.855,356.811,85.876,1
5.376569,-2.245,2.072,0.228,18.92,359.008,78.308,1
5.384314,-2.243,2.141,0.015,6.042,360.168,69.274,1
5.393608,-2.2,2.21,-0.276,-9.521,360.656,59.326,1
5.400434,-2.135,2.238,-0.521,-27.526,357.421,46.264,1
5.409343,-2.083,2.239,-0.751,-31.555,352.294,34.545,1
5.416967,-2.024,2.221,-0.982,-28.564,346.13,21.85,1
5.425825,-1.968,2.18,-1.22,-27.954,337.463,11.779,1
5.433029,-1.85,2.157,-1.417,-26.855,328.43,2.563,1
5.441924,-1.781,2.14,-1.549,-15.502,316.101,-7.446,1
5.4492,-1.721,2.133,-1.714,1.342,307.434,-14.77,1
5.458231,-1.567,2.082,-1.97,6.347,293.884,-24.475,1
5.466009,-1.429,2.031,-2.16,5.31,282.836,-32.043,1
5.473232,-1.25,1.952,-2.353,7.019,269.836,-39.245,1
5.482623,-1.078,1.857,-2.445,13.305,252.807,-46.997,1
5.489766,-0.937,1.73,-2.494,16.052,239.379,-52.429,1
5.498634,-0.74,1.573,-2.53,12.329,224.121,-57.495,1
5.507576,-0.586,1.453,-2.538,5.859,211.303,-61.218,1
5.514458,-0.435,1.327,-2.528,1.464,196.655,-64.575,1
5.523726,-0.315,1.233,-2.52,-0.549,183.471,-66.711,1
5.530921,-0.208,1.152,-2.464,2.746,168.151,-68.725,1
5.539935,-0.098,1.066,-2.436,11.901,155.212,-69.702,1
5.547825,-0.032,0.985,-2.412,19.897,139.709,-69.885,1
5.555338,0.04,0.889,-2.356,19.897,127.38,-69.519,1
5.563615,0.099,0.821,-2.281,16.418,113.891,-68.847,1
5.570592,0.151,0.765,-2.178,12.023,103.271,-67.81,1
5.578516,0.189,0.728,-2.056,7.141,93.383,-66.711,1
5.586945,0.216,0.692,-1.93,4.333,84.777,-66.04,1
5.593947,0.238,0.66,-1.818,3.601,76.843,-65.185,1
5.602606,0.25,0.628,-1.714,5.676,69.396,-64.331,1
5.611657,0.272,0.59,-1.617,7.263,63.11,-63.537,1
5.617362,0.284,0.565,-1.533,6.958,56.152,-62.255,1
5.625563,0.297,0.545,-1.458,6.225,51.391,-61.218,1
5.634552,0.309,0.527,-1.389,5.615,46.569,-60.058,1
5.641214,0.329,0.503,-1.318,7.202,41.931,-58.532,1
5.65053,0.338,0.461,-1.238,9.521,37.292,-57.189,1
5.65709,0.352,0.433,-1.176,10.864,33.813,-55.297,1
5.665488,0.354,0.406,-1.12,12.145,30.7,-53.833,1
5.674346,0.36,0.376,-1.085,10.986,28.076,-51.391,1
5.681644,0.365,0.356,-1.071,5.004,25.024,-48.706,1
5.688784,0.37,0.363,-1.061,-0.488,22.277,-46.447,1
5.69714,0.376,0.375,-1.038,-1.708,18.859,-43.945,1
5.704979,0.389,0.39,-1.007,-0.122,14.526,-41.687,1
5.712999,0.389,0.389,-0.969,0.427,11.413,-39.428,1
5.722137,0.402,0.388,-0.935,-0.854,8.422,-37.475,1
5.729242,0.42,0.398,-0.886,-3.479,5.432,-34.973,1
5.738051,0.437,0.414,-0.838,-3.479,2.99,-32.958,1
5.74544,0.456,0.431,-0.786,-0.549,0.305,-30.639,1
5.754211,0.467,0.436,-0.74,5.187,-2.258,-28.503,1
5.761292,0.478,0.429,-0.705,10.131,-3.845,-26.489,1
5.76996,0.475,0.429,-0.683,11.352,-5.065,-24.047,1
5.77762,0.495,0.443,-0.686,7.812,-5.676,-22.155,1
5.786036,0.517,0.461,-0.678,1.831,-7.08,-20.507,1
5.795316,0.519,0.489,-0.65,-0.366,-7.873,-18.859,1
5.802043,0.544,0.507,-0.621,-0.244,-9.033,-17.639,1
5.81006,0.55,0.511,-0.596,0.305,-9.887,-16.54,1
5.818972,0.548,0.497,-0.581,-1.037,-10.437,-15.38,1
5.826254,0.583,0.515,-0.552,-1.525,-10.803,-14.282,1
5.835028,0.59,0.534,-0.534,2.258,-11.474,-13.366,1
5.842546,0.603,0.538,-0.522,6.042,-12.268,-12.512,1
5.851701,0.595,0.532,-0.507,7.751,-13.122,-11.596,1
5.858977,0.599,0.529,-0.502,6.225,-13.0,-10.559,1
5.868287,0.609,0.526,-0.497,1.953,-13.305,-9.46,1
5.876712,0.619,0.531,-0.485,-0.671,-13.793,-8.972,1
5.885095,0.623,0.526,-0.48,-2.563,-14.099,-7.934,1
5.892116,0.62,0.525,-0.46,-3.967,-14.709,-7.141,1
5.900727,0.625,0.522,-0.449,-4.028,-15.014,-6.103,1
5.90834,0.624,0.531,-0.45,-3.356,-15.502,-5.31,1
5.916988,0.622,0.537,-0.434,-0.915,-16.174,-4.089,1
5.926384,0.617,0.55,-0.411,2.197,-16.662,-3.234,1
5.933628,0.622,0.553,-0.394,4.15,-17.272,-2.441,1
5.941672,0.63,0.552,-0.367,5.31,-17.456,-1.77,1
5.950751,0.636,0.545,-0.34,4.76,-17.15,-1.464,1
5.958078,0.64,0.539,-0.313,2.685,-16.54,-0.61,1
5.966297,0.647,0.544,-0.279,1.22,-16.052,0.305,1
5.973312,0.643,0.555,-0.26,1.098,-15.136,1.037,1
5.981105,0.645,0.567,-0.249,1.403,-14.343,1.525,1
5.989917,0.646,0.564,-0.243,1.098,-13.366,2.075,1
5.997178,0.643,0.568,-0.251,-1.159,-12.207,2.746,1
6.00532,0.648,0.578,-0.25,-1.525,-11.657,3.356,1
6.01323,0.64,0.592,-0.242,0.793,-11.047,4.089,1
6.019897,0.632,0.603,-0.243,3.662,-10.742,4.577,1
6.027817,0.635,0.601,-0.239,5.798,-9.948,4.821,1
6.034354,0.632,0.598,-0.238,5.432,-9.094,5.31,1
6.042984,0.637,0.608,-0.245,3.845,-8.239,5.615,1
6.04951,0.639,0.607,-0.235,3.662,-7.568,6.042,1
6.057686,0.639,0.614,-0.231,5.126,-6.958,6.652,1
6.065454,0.635,0.625,-0.238,5.065,-5.981,7.202,1
6.073009,0.634,0.632,-0.244,3.601,-5.615,7.202,1
6.081404,0.636,0.64,-0.246,3.356,-4.882,7.446,1
6.088767,0.646,0.663,-0.25,4.272,-3.967,8.056,1
6.096602,0.654,0.679,-0.267,4.516,-3.234,8.361,1
6.104332,0.647,0.699,-0.289,3.54,-2.746,7.934,1
6.112693,0.644,0.716,-0.3,1.708,-2.685,7.995,1
6.120294,0.637,0.719,-0.307,-0.671,-1.831,7.385,1
6.129622,0.64,0.729,-0.31,-2.075,-1.281,6.652,1
6.137293,0.646,0.731,-0.313,-2.258,-0.915,6.408,1
6.14504,0.637,0.73,-0.318,-2.746,-0.549,5.859,1
6.153818,0.633,0.735,-0.326,-3.295,-0.183,5.554,1
6.161665,0.629,0.735,-0.334,-4.455,0.122,4.882,1
6.170807,0.631,0.738,-0.324,-3.845,0.488,4.455,1
6.177743,0.637,0.746,-0.313,-2.075,0.732,4.272,1
6.187174,0.646,0.752,-0.311,-0.793,1.281,4.15,1
6.1943,0.644,0.756,-0.322,-1.159,2.014,3.784,1
6.201186,0.645,0.764,-0.33,-2.746,2.807,3.417,1
6.210078,0.643,0.768,-0.336,-3.784,3.356,2.929,1
6.218115,0.644,0.768,-0.348,-3.234,3.662,2.258,1
6.225115,0.64,0.766,-0.357,-2.502,4.211,1.647,1
6.233037,0.632,0.766,-0.374,-2.441,4.272,1.281,1
6.241564,0.625,0.761,-0.378,-3.173,4.394,0.305,1
6.248691,0.618,0.752,-0.385,-4.394,4.638,0.122,1
6.257981,0.607,0.748,-0.379,-5.004,4.699,-0.427,1
6.264658,0.602,0.744,-0.372,-4.821,4.882,-0.671,1
6.273487,0.597,0.733,-0.368,-3.662,5.126,-0.976,1
6.280879,0.604,0.729,-0.359,-2.624,5.432,-1.22,1
6.290237,0.607,0.723,-0.352,-2.075,5.798,-1.159,1
6.297137,0.613,0.72,-0.354,-1.831,6.164,-1.281,1
6.30619,0.608,0.71,-0.36,-2.075,6.469,-1.281,1
6.313643,0.607,0.707,-0.361,-2.868,7.141,-1.22,1
6.322969,0.604,0.702,-0.375,-4.943,7.629,-1.586,1
6.330068,0.601,0.706,-0.38,-5.92,7.629,-1.342,1
6.338702,0.603,0.697,-0.389,-5.31,7.507,-1.647,1
6.346815,0.6,0.687,-0.391,-3.601,7.385,-1.831,1
6.354057,0.602,0.683,-0.389,-1.953,7.324,-1.77,1
6.362552,0.6,0.682,-0.398,-0.793,7.263,-1.647,1
6.369434,0.604,0.682,-0.406,-0.854,7.324,-1.77,1
6.378377,0.607,0.678,-0.426,-1.403,7.019,-1.831,1
6.386168,0.611,0.676,-0.431,-2.685,7.08,-1.647,1
6.394076,0.61,0.671,-0.434,-3.356,6.713,-1.708,1
6.400573,0.615,0.672,-0.44,-2.929,6.286,-1.586,1
6.409498,0.623,0.662,-0.44,-1.892,5.859,-1.403,1
6.416983,0.624,0.655,-0.437,-0.732,5.493,-1.281,1
6.425135,0.627,0.649,-0.437,0.488,5.371,-0.976,1
6.432494,0.622,0.647,-0.44,1.525,5.004,-0.427,1
6.44173,0.618,0.654,-0.445,1.77,4.882,-0.122,1
6.448306,0.619,0.663,-0.461,1.281,3.967,0.183,1
6.457071,0.62,0.664,-0.459,0.854,3.784,0.244,1
6.464437,0.611,0.665,-0.461,1.098,3.234,0.488,1
6.471723,0.609,0.662,-0.461,1.464,2.807,0.122,1
6.478984,0.611,0.658,-0.462,2.075,2.441,0.732,1
6.486641,0.611,0.654,-0.458,1.708,2.075,0.976,1
6.49526,0.608,0.652,-0.458,0.976,1.77,1.098,1
6.503441,0.607,0.647,-0.449,0.61,1.403,1.403,1
6.510448,0.612,0.656,-0.435,1.281,1.159,1.77,1
6.519305,0.609,0.671,-0.433,2.807,1.037,1.892,1
6.527222,0.604,0.679,-0.439,3.906,0.854,2.014,1
6.53407,0.603,0.686,-0.435,3.051,0.671,1.892,1
6.542883,0.6,0.686,-0.435,1.098,0.732,2.014,1
6.550735,0.604,0.685,-0.433,0.122,0.488,1.77,1
6.558946,0.602,0.683,-0.421,0.366,0.244,1.403,1
6.566866,0.598,0.681,-0.414,1.647,0.0,1.708,1
6.574775,0.597,0.681,-0.406,2.685,0.061,2.014,1
6.581723,0.598,0.687,-0.42,1.953,0.244,2.136,1
6.589245,0.598,0.699,-0.43,0.305,0.244,2.197,1
6.597438,0.602,0.707,-0.434,0.366,0.305,2.319,1
6.605637,0.604,0.71,-0.441,0.854,-0.366,2.319,1
6.613265,0.604,0.713,-0.44,1.525,-0.549,2.258,1
6.620681,0.607,0.72,-0.438,1.647,-0.549,2.197,1
6.629388,0.61,0.717,-0.438,1.159,-0.732,1.831,1
6.636713,0.604,0.72,-0.436,0.061,-0.915,1.892,1
6.64614,0.606,0.719,-0.434,-0.61,-1.098,1.525,1
6.652973,0.611,0.729,-0.429,-0.183,-1.403,1.342,1
6.660752,0.62,0.723,-0.432,0.305,-1.403,1.037,1
6.670085,0.619,0.72,-0.423,0.549,-1.586,0.915,1
6.677374,0.617,0.719,-0.413,0.427,-1.647,0.671,1
6.684833,0.614,0.722,-0.418,0.427,-1.586,0.427,1
6.692475,0.613,0.728,-0.42,0.305,-1.892,0.366,1
6.700893,0.613,0.724,-0.416,-0.061,-1.586,-0.122,1
6.708917,0.612,0.725,-0.418,0.122,-1.403,-0.244,1
6.717146,0.61,0.725,-0.418,0.915,-2.075,-0.366,1
6.724949,0.605,0.717,-0.418,0.915,-2.014,-0.671,1
6.733306,0.607,0.712,-0.414,-0.183,-1.77,-0.976,1
6.741488,0.604,0.71,-0.412,-1.159,-1.892,-0.976,1
6.749847,0.609,0.711,-0.398,-1.281,-2.014,-1.037,1
6.757563,0.615,0.703,-0.391,0.0,-1.953,-1.098,1
6.766003,0.608,0.701,-0.381,1.22,-2.197,-1.037,1
6.773207,0.61,0.698,-0.374,2.258,-2.075,-1.159,1
6.781261,0.608,0.699,-0.372,1.831,-1.831,-1.22,1
6.789372,0.609,0.693,-0.365,1.159,-1.464,-0.915,1
6.798407,0.605,0.698,-0.362,0.793,-1.525,-1.037,1
6.805782,0.606,0.691,-0.356,0.488,-0.976,-1.159,1
6.814281,0.607,0.687,-0.358,0.305,-0.732,-1.281,1
6.821317,0.605,0.674,-0.359,-0.061,-0.488,-1.098,1
6.830576,0.605,0.675,-0.355,-0.061,-0.488,-1.159,1
6.838099,0.608,0.671,-0.351,0.0,0.305,-0.915,1
6.845406,0.606,0.677,-0.36,-0.549,0.488,-0.915,1
6.852987,0.611,0.679,-0.365,-1.159,0.671,-0.61,1
6.862232,0.609,0.68,-0.364,-1.586,1.098,-0.854,1
6.869787,0.616,0.682,-0.365,-1.22,1.22,-0.366,1
6.878961,0.609,0.678,-0.363,-0.793,1.22,-0.427,1
6.887777,0.606,0.677,-0.367,0.183,1.281,-0.427,1
6.894464,0.609,0.669,-0.371,0.122,1.831,-0.305,1
6.901768,0.609,0.666,-0.369,-0.183,1.831,0.122,1
6.909381,0.605,0.668,-0.373,0.366,2.319,0.122,1
6.917045,0.604,0.675,-0.378,0.793,2.319,0.427,1
6.925573,0.604,0.683,-0.385,0.854,2.319,0.305,1
6.932975,0.603,0.681,-0.394,0.549,2.38,0.366,1
6.941917,0.604,0.687,-0.402,0.061,2.441,0.305,1
6.949156,0.603,0.687,-0.407,-0.244,2.319,0.244,1
6.957546,0.605,0.681,-0.405,0.427,2.258,0.183,1
6.964293,0.608,0.683,-0.401,0.976,2.014,0.122,1
6.972641,0.61,0.679,-0.399,1.525,2.075,0.244,1
6.980213,0.611,0.676,-0.399,1.647,2.197,0.671,1
6.987643,0.606,0.683,-0.403,1.831,2.075,0.61,1
6.996924,0.608,0.682,-0.401,1.098,2.441,0.732,1
7.003822,0.605,0.687,-0.41,0.183,2.258,0.671,1
7.011559,0.603,0.683,-0.413,-0.244,2.197,1.037,1
7.020441,0.599,0.687,-0.416,0.061,2.136,0.915,1
7.028268,0.6,0.685,-0.416,0.427,2.075,1.098,1
7.035342,0.601,0.685,-0.415,1.159,1.647,1.098,1
7.044069,0.599,0.69,-0.409,1.647,1.525,1.281,1
7.050521,0.598,0.692,-0.4,2.502,1.525,1.403,1
7.059695,0.597,0.686,-0.399,2.929,1.586,1.22,1
7.066315,0.598,0.691,-0.397,2.807,1.708,1.586,1
7.075171,0.601,0.685,-0.395,1.586,1.892,1.647,1
7.082572,0.602,0.683,-0.401,0.854,2.197,1.342,1
7.089477,0.607,0.678,-0.404,0.854,2.258,1.586,1
7.098353,0.605,0.678,-0.41,0.671,2.258,1.464,1
7.10652,0.602,0.666,-0.414,0.366,2.258,1.708,1
7.113585,0.603,0.663,-0.42,-0.061,2.197,1.647,1
7.121901,0.602,0.66,-0.422,-1.037,2.258,2.014,1
7.13042,0.602,0.655,-0.424,-2.441,2.075,2.624,1
7.137949,0.597,0.65,-0.429,-4.211,2.319,2.563,1
7.144437,0.602,0.649,-0.424,-4.455,2.197,2.685,1
7.153126,0.601,0.648,-0.425,-4.272,2.197,3.356,1
7.159654,0.604,0.644,-0.425,-4.394,2.197,3.601,1
7.167711,0.606,0.653,-0.425,-4.76,2.136,4.028,1
7.177033,0.606,0.662,-0.431,-4.76,2.258,4.577,1
7.183995,0.607,0.678,-0.434,-4.638,2.014,4.821,1
7.193083,0.598,0.692,-0.437,-4.089,1.77,5.004,1
7.19942,0.595,0.696,-0.437,-3.173,1.342,4.821,1
7.207223,0.594,0.7,-0.442,-2.563,0.854,4.638,1
7.215106,0.592,0.709,-0.438,-1.464,0.61,4.333,1
7.223872,0.595,0.712,-0.435,-0.305,0.183,4.211,1
7.231231,0.602,0.712,-0.431,0.793,-0.061,4.089,1
7.238318,0.599,0.708,-0.43,1.708,-0.305,3.784,1
7.245513,0.598,0.715,-0.421,2.563,-0.549,3.845,1
7.253288,0.603,0.723,-0.423,3.173,-0.671,3.845,1
7.262213,0.598,0.726,-0.421,3.417,-0.976,3.479,1
7.269714,0.598,0.731,-0.421,2.502,-0.854,3.295,1
7.279169,0.6,0.729,-0.418,0.854,-0.61,3.051,1
7.285984,0.6,0.728,-0.412,0.305,-0.793,2.746,1
7.293521,0.598,0.731,-0.406,0.854,-0.915,2.685,1
7.302827,0.604,0.729,-0.401,2.197,-0.671,2.502,1
7.310065,0.606,0.729,-0.398,2.502,-0.671,2.319,1
7.317456,0.603,0.729,-0.397,2.136,-0.488,2.197,1
7.325386,0.602,0.73,-0.394,1.403,-0.305,1.892,1
7.33458,0.601,0.726,-0.394,0.488,-0.061,1.647,1
7.341709,0.597,0.725,-0.395,-0.366,0.244,1.647,1
7.350983,0.592,0.729,-0.396,-0.122,0.366,1.281,1
7.358154,0.591,0.727,-0.395,0.122,0.305,1.159,1
7.365646,0.589,0.724,-0.395,0.061,0.366,1.098,1
7.374471,0.585,0.724,-0.396,-0.305,0.366,0.854,1
7.381885,0.581,0.72,-0.391,0.0,0.366,0.793,1
7.390781,0.585,0.713,-0.387,0.122,0.305,0.793,1
7.398208,0.589,0.707,-0.39,0.061,0.671,0.61,1
7.405803,0.586,0.703,-0.388,-0.366,0.671,0.427,1
7.413786,0.589,0.695,-0.386,-0.305,0.976,0.61,1
7.422279,0.593,0.69,-0.385,-0.244,1.037,0.61,1
7.429666,0.593,0.687,-0.378,0.122,1.464,0.732,1
7.437386,0.598,0.682,-0.375,-0.061,1.77,0.671,1
7.44433,0.593,0.681,-0.371,-0.244,2.075,0.976,1
7.452895,0.593,0.671,-0.369,-0.549,2.38,0.976,1
7.459882,0.586,0.666,-0.364,-1.281,2.929,1.342,1
7.468235,0.58,0.654,-0.363,-1.77,3.417,1.342,1
7.475723,0.59,0.653,-0.374,-1.525,3.723,1.892,1
7.48404,0.588,0.655,-0.375,-0.122,3.967,2.258,1
7.491523,0.593,0.65,-0.379,1.22,4.089,2.563,1
7.499043,0.597,0.641,-0.382,1.831,4.211,3.051,1
7.508272,0.594,0.644,-0.382,1.831,4.76,3.051,1
7.515117,0.595,0.632,-0.38,1.159,5.371,3.417,1
7.52461,0.588,0.637,-0.372,-0.122,5.798,3.906,1
7.532044,0.583,0.628,-0.365,-0.305,6.164,4.028,1
7.538926,0.576,0.617,-0.366,-0.61,6.713,4.394,1
7.546755,0.56,0.611,-0.366,-0.793,7.507,4.821,1
7.555395,0.545,0.606,-0.358,-0.061,7.873,5.31,1
7.56277,0.534,0.595,-0.359,1.037,8.85,6.225,1
7.571193,0.52,0.595,-0.37,1.525,9.582,6.896,1
7.578322,0.504,0.592,-0.372,3.112,10.253,7.385,1
7.585641,0.492,0.581,-0.391,4.638,10.803,8.361,1
7.593501,0.48,0.573,-0.416,4.943,11.596,9.338,1
7.602857,0.468,0.566,-0.451,2.929,12.145,10.375,1
7.609676,0.461,0.57,-0.487,0.488,12.084,11.291,1
7.618502,0.461,0.571,-0.519,-0.427,12.634,12.145,1
7.625874,0.455,0.573,-0.562,1.525,11.962,13.122,1
7.63312,0.447,0.575,-0.602,5.798,11.901,13.671,1
7.640951,0.422,0.562,-0.652,11.291,10.62,14.404,1
7.650231,0.416,0.544,-0.704,18.127,10.314,15.319,1
7.658094,0.375,0.521,-0.795,22.583,9.277,16.662,1
7.665225,0.344,0.503,-0.874,23.559,8.972,17.578,1
7.673946,0.321,0.459,-1.043,18.066,8.972,18.737,1
7.681291,0.28,0.441,-1.165,7.202,7.141,20.019,1
7.689272,0.26,0.403,-1.372,-5.004,6.469,21.362,1
7.696446,0.221,0.364,-1.566,-20.385,1.647,23.376,1
7.705419,0.182,0.313,-1.754,-29.724,-2.99,25.695,1
7.713312,0.165,0.257,-1.934,-36.804,-9.948,28.686,1
7.721206,0.129,0.204,-2.15,-44.677,-19.47,33.325,1
7.728938,0.116,0.17,-2.34,-53.771,-28.503,37.902,1
7.737492,0.106,0.136,-2.576,-66.955,-41.625,43.762,1
7.746065,0.049,0.145,-2.763,-72.692,-54.992,49.011,1
7.752619,0.04,0.131,-2.945,-74.218,-70.312,54.565,1
7.761094,0.007,0.146,-3.101,-69.335,-90.393,61.706,1
7.770276,-0.048,0.154,-3.239,-64.941,-108.337,68.115,1
7.778125,-0.118,0.178,-3.349,-63.171,-131.53,75.317,1
7.785351,-0.174,0.213,-3.379,-55.786,-151.55,81.481,1
7.793463,-0.241,0.276,-3.375,-45.898,-172.668,86.914,1
7.802067,-0.339,0.339,-3.358,-37.78,-196.044,92.59,1
7.810272,-0.444,0.434,-3.304,-36.499,-215.576,96.618,1
7.818231,-0.543,0.526,-3.242,-42.419,-237.548,100.28,1
7.827178,-0.743,0.647,-3.163,-47.18,-256.286,103.332,1
7.835339,-0.977,0.805,-3.011,-45.715,-277.587,104.98,1
7.84277,-1.194,0.938,-2.856,-41.259,-295.41,106.14,1
7.852078,-1.451,1.099,-2.649,-37.048,-315.002,105.895,1
7.859726,-1.72,1.247,-2.425,-33.63,-332.397,104.003,1
7.867858,-1.953,1.368,-2.228,-34.301,-347.228,102.111,1
7.877066,-2.243,1.537,-1.932,-33.203,-362.426,98.999,1
7.885641,-2.427,1.696,-1.638,-28.381,-374.206,95.458,1
7.892819,-2.594,1.862,-1.239,-17.517,-386.047,89.965,1
7.903267,-2.728,1.988,-0.847,-10.253,-391.784,83.801,1
7.912213,-2.826,2.108,-0.467,-11.901,-397.399,73.608,1
7.919934,-2.893,2.261,-0.071,-10.62,-398.681,65.734,1
7.927217,-2.919,2.388,0.288,-3.417,-399.047,54.687,1
7.935635,-2.884,2.494,0.72,1.342,-394.653,42.358,1
7.943812,-2.81,2.538,1.075,-0.976,-388.183,30.395,1
7.952204,-2.644,2.534,1.46,-7.69,-376.464,16.967,1
7.960298,-2.487,2.518,1.719,-9.216,-365.051,5.615,1
7.968876,-2.272,2.529,2.003,-1.708,-353.454,-5.432,1
7.976251,-2.067,2.506,2.206,15.014,-337.89,-18.31,1
7.983907,-1.818,2.436,2.395,23.986,-323.486,-29.785,1
7.991799,-1.593,2.344,2.552,22.827,-306.396,-41.015,1
7.999721,-1.306,2.241,2.694,17.517,-289.611,-51.513,1
8.006285,-1.022,2.108,2.791,13.854,-268.92,-60.302,1
8.015443,-0.76,1.961,2.809,10.681,-251.77,-68.237,1
8.022359,-0.633,1.83,2.755,13.977,-232.482,-76.171,1
8.031168,-0.403,1.63,2.706,11.535,-215.454,-82.519,1
8.039662,-0.224,1.437,2.623,-0.61,-196.899,-86.547,1
8.046788,-0.104,1.331,2.574,-12.756,-181.03,-90.27,1
8.054667,-0.02,1.219,2.532,-11.779,-166.381,-92.285,1
8.063503,0.031,1.102,2.45,-11.169,-152.771,-94.299,1
8.070763,0.084,1.0,2.387,-9.46,-140.197,-95.214,1
8.080018,0.111,0.904,2.306,-8.666,-128.54,-95.764,1
8.088127,0.164,0.789,2.205,-10.742,-117.858,-95.764,1
8.096554,0.194,0.69,2.127,-13.305,-104.797,-94.909,1
8.104445,0.255,0.577,1.998,-19.531,-92.346,-92.773,1
8.11121,0.186,0.536,1.869,-26.916,-82.458,-90.026,1
8.119595,0.274,0.476,1.743,-23.681,-73.852,-87.646,1
8.128281,0.309,0.406,1.572,-19.836,-66.65,-84.472,1
8.135542,0.306,0.368,1.464,-16.601,-60.974,-81.298,1
8.144917,0.325,0.324,1.377,-12.512,-55.664,-78.125,1
8.152773,0.323,0.303,1.292,-10.437,-49.255,-74.462,1
8.160526,0.325,0.286,1.208,-9.582,-44.555,-70.556,1
8.168797,0.33,0.278,1.147,-7.08,-40.588,-67.687,1
8.176319,0.34,0.263,1.081,-4.882,-37.353,-64.575,1
8.184581,0.352,0.246,1.029,-4.333,-33.691,-61.34,1
8.192986,0.364,0.228,1.003,-6.713,-30.212,-58.288,1
8.20159,0.384,0.213,0.966,-9.826,-26.855,-55.297,1
8.208677,0.386,0.206,0.931,-12.573,-23.315,-51.269,1
8.216754,0.411,0.208,0.912,-13.671,-20.507,-48.217,1
8.224411,0.446,0.219,0.883,-12.268,-17.7,-44.738,1
8.233582,0.476,0.23,0.875,-9.521,-15.197,-41.198,1
8.240755,0.499,0.241,0.865,-7.873,-12.39,-38.208,1
8.250035,0.522,0.251,0.85,-7.873,-9.46,-34.79,1
8.25789,0.541,0.268,0.836,-9.338,-6.53,-32.165,1
8.264414,0.55,0.285,0.817,-11.474,-3.906,-29.541,1
8.272142,0.56,0.306,0.797,-11.779,-1.953,-27.099,1
8.281058,0.571,0.319,0.771,-10.986,0.671,-25.085,1
8.287842,0.573,0.326,0.748,-9.887,2.624,-22.827,1
8.295841,0.581,0.345,0.71,-8.911,4.638,-20.874,1
8.303247,0.587,0.354,0.674,-7.629,5.859,-18.92,1
8.311061,0.594,0.371,0.635,-6.835,7.141,-17.089,1
8.319147,0.603,0.377,0.594,-6.958,7.995,-15.441,1
8.326718,0.615,0.382,0.545,-8.422,8.666,-13.549,1
8.335841,0.619,0.39,0.518,-10.559,9.277,-12.023,1
8.343355,0.619,0.404,0.491,-11.779,9.643,-10.559,1
8.350722,0.613,0.419,0.475,-11.718,9.521,-8.789,1
8.358525,0.615,0.451,0.455,-9.46,9.46,-7.019,1
8.367115,0.623,0.47,0.437,-7.934,9.033,-5.859,1
8.374432,0.633,0.491,0.431,-7.141,8.911,-5.004,1
8.383869,0.626,0.52,0.427,-6.286,8.422,-4.028,1
8.390855,0.639,0.542,0.427,-4.577,8.056,-3.051,1
8.398374,0.651,0.558,0.421,-3.967,7.812,-2.563,1
8.407261,0.664,0.57,0.416,-5.126,7.995,-2.014,1
8.414457,0.682,0.586,0.407,-7.141,8.361,-1.708,1
8.423672,0.695,0.596,0.4,-9.46,8.483,-2.014,1
8.430247,0.7,0.597,0.394,-10.192,8.544,-2.014,1
8.439526,0.7,0.6,0.389,-10.498,8.422,-2.258,1
8.447092,0.708,0.592,0.377,-10.803,8.422,-2.136,1
8.454502,0.722,0.589,0.371,-11.779,8.117,-2.197,1
8.461992,0.719,0.599,0.378,-11.657,8.178,-1.831,1
8.470991,0.716,0.603,0.371,-9.521,7.995,-1.525,1
8.47812,0.719,0.609,0.37,-7.019,7.873,-1.281,1
8.486836,0.716,0.612,0.366,-4.577,7.69,-0.671,1
8.494123,0.712,0.613,0.363,-3.54,7.629,-0.549,1
8.503263,0.708,0.615,0.358,-3.234,7.873,-0.061,1
8.510795,0.71,0.619,0.346,-3.051,7.995,0.061,1
8.518031,0.711,0.618,0.33,-2.868,7.873,0.244,1
8.527243,0.715,0.619,0.322,-2.929,7.934,0.0,1
8.535106,0.703,0.614,0.305,-3.356,7.69,0.366,1
8.542416,0.701,0.621,0.3,-4.089,7.446,0.305,1
8.549622,0.702,0.624,0.291,-4.577,7.141,0.0,1
8.55741,0.704,0.622,0.292,-5.065,6.774,0.244,1
8.566494,0.703,0.628,0.292,-3.662,6.286,0.488,1
8.573686,0.69,0.631,0.285,-1.403,5.798,0.427,1
8.581037,0.692,0.628,0.273,-0.366,5.432,0.549,1
8.590062,0.694,0.626,0.266,0.305,4.882,0.549,1
8.597163,0.687,0.625,0.257,0.366,4.455,0.61,1
8.604318,0.686,0.625,0.258,0.244,4.028,1.22,1
8.611306,0.687,0.626,0.262,0.122,3.662,1.464,1
8.620398,0.683,0.633,0.266,0.061,3.051,1.647,1
8.628274,0.679,0.638,0.267,0.549,2.746,1.953,1
8.634413,0.672,0.64,0.271,1.159,2.075,2.38,1
8.642036,0.679,0.649,0.275,1.037,1.953,2.197,1
8.650975,0.679,0.649,0.281,0.732,1.953,2.441,1
8.658186,0.68,0.654,0.282,0.793,1.77,2.136,1
8.665291,0.684,0.658,0.288,0.732,1.464,1.953,1
8.672588,0.688,0.659,0.289,0.305,1.525,2.014,1
8.680264,0.696,0.66,0.293,0.183,1.281,1.708,1
8.687861,0.702,0.661,0.292,-0.244,1.464,1.647,1
8.69637,0.705,0.657,0.291,-0.549,1.159,1.586,1
8.703592,0.706,0.659,0.29,-0.671,1.098,1.708,1
8.711805,0.711,0.663,0.286,0.0,0.854,1.708,1
8.719148,0.716,0.662,0.28,1.159,0.427,1.708,1
8.728376,0.709,0.663,0.276,1.831,-0.061,1.464,1
8.73568,0.71,0.666,0.283,2.38,-0.549,1.586,1
8.742908,0.704,0.671,0.288,3.295,-0.976,1.586,1
8.751123,0.696,0.669,0.298,4.821,-1.342,1.281,1
8.757654,0.693,0.678,0.313,4.516,-1.77,1.281,1
8.766218,0.692,0.677,0.324,3.479,-1.708,0.915,1
8.774513,0.694,0.676,0.338,1.892,-1.464,0.793,1
8.782638,0.701,0.676,0.342,0.61,-1.342,0.61,1
8.789893,0.706,0.676,0.347,-0.183,-1.098,0.61,1
8.797379,0.71,0.671,0.356,-1.342,-0.915,0.427,1
8.80607,0.713,0.67,0.361,-2.136,-0.61,0.488,1
8.812362,0.721,0.678,0.37,-1.464,-0.427,0.61,1
8.819429,0.723,0.683,0.373,-0.061,-0.366,0.244,1
8.828062,0.73,0.686,0.371,1.77,-0.366,0.427,1
8.835222,0.733,0.684,0.369,2.136,0.0,-0.061,1
8.843828,0.724,0.682,0.372,1.159,0.0,-0.183,1
8.852251,0.721,0.688,0.372,-0.122,0.305,-0.549,1
8.861015,0.717,0.692,0.37,-0.793,0.671,-0.671,1
8.868519,0.712,0.686,0.371,-1.037,0.488,-1.037,1
8.875504,0.708,0.687,0.371,-1.037,0.671,-1.098,1
8.884828,0.702,0.679,0.376,-2.075,0.671,-1.403,1
8.892755,0.688,0.678,0.378,-3.723,1.159,-1.22,1
8.900071,0.681,0.677,0.377,-5.493,1.464,-1.342,1
8.907622,0.682,0.68,0.384,-6.774,1.647,-1.464,1
8.916661,0.679,0.683,0.389,-5.981,1.953,-1.708,1
8.924519,0.674,0.687,0.395,-4.15,1.831,-2.014,1
8.931926,0.666,0.685,0.395,-3.051,1.953,-2.197,1
8.94125,0.659,0.674,0.394,-3.173,2.136,-2.441,1
8.94847,0.653,0.677,0.399,-3.662,2.319,-2.807,1
8.955703,0.662,0.676,0.397,-4.455,2.502,-2.99,1
8.96474,0.674,0.67,0.401,-5.31,2.868,-3.234,1
8.972157,0.675,0.661,0.403,-7.019,2.929,-3.417,1
8.979593,0.666,0.66,0.409,-8.544,3.234,-3.479,1
8.987407,0.666,0.659,0.414,-9.46,3.784,-3.479,1
8.996722,0.689,0.658,0.42,-9.155,4.028,-3.54,1
9.004819,0.706,0.652,0.425,-7.69,4.455,-3.356,1
9.013345,0.704,0.661,0.424,-5.493,4.882,-3.234,1
9.020088,0.69,0.654,0.428,-1.647,5.249,-3.234,1
9.027347,0.694,0.649,0.419,0.854,5.371,-3.051,1
9.03615,0.701,0.644,0.408,2.38,5.737,-2.929,1
9.042908,0.698,0.639,0.395,3.54,6.103,-2.563,1
9.050305,0.694,0.636,0.385,4.882,5.981,-2.38,1
9.057939,0.695,0.633,0.374,6.408,6.286,-2.38,1
9.067057,0.697,0.633,0.359,6.286,5.92,-2.319,1
9.07395,0.702,0.623,0.345,4.821,5.981,-2.014,1
9.08118,0.707,0.631,0.339,1.464,6.164,-1.831,1
9.0887,0.707,0.639,0.336,0.0,6.103,-2.014,1
9.096365,0.71,0.642,0.328,-0.976,5.859,-1.892,1
9.104694,0.712,0.648,0.326,-2.197,5.493,-1.953,1
9.112172,0.722,0.652,0.331,-3.723,5.615,-1.831,1
9.121386,0.726,0.658,0.334,-4.394,5.615,-1.831,1
9.12845,0.722,0.669,0.34,-3.112,5.554,-1.831,1
9.136121,0.719,0.689,0.356,4.028,5.065,-2.014,1
9.14348,0.733,0.699,0.356,11.596,4.394,-2.197,1
9.152348,0.746,0.715,0.359,15.502,4.272,-2.38,1
9.160165,0.756,0.733,0.358,17.517,4.577,-2.502,1
9.167026,0.761,0.76,0.357,21.911,3.967,-2.99,1
9.175915,0.745,0.767,0.36,22.766,4.272,-3.662,1
9.183683,0.734,0.776,0.357,16.479,4.699,-4.699,1
9.191231,0.722,0.78,0.361,8.728,5.859,-5.92,1
9.199078,0.721,0.775,0.359,5.004,6.713,-7.568,1
9.206236,0.734,0.764,0.348,4.882,6.896,-8.85,1
9.213862,0.754,0.745,0.341,7.385,7.202,-9.826,1
9.221659,0.74,0.721,0.319,9.887,6.774,-10.681,1
9.229565,0.726,0.69,0.31,10.375,6.774,-11.474,1
9.237473,0.722,0.666,0.304,8.544,6.469,-12.268,1
9.244124,0.708,0.658,0.31,8.544,5.981,-12.634,1
9.252476,0.721,0.626,0.309,11.291,6.347,-12.756,1
9.259433,0.695,0.608,0.297,13.977,5.554,-12.878,1
9.26618,0.65,0.601,0.301,20.202,4.516,-12.878,1
9.274831,0.689,0.558,0.302,22.338,4.638,-12.329,1
9.28183,0.724,0.532,0.285,17.639,4.577,-11.474,1
9.288868,0.731,0.529,0.295,13.0,5.065,-10.559,1
9.297539,0.729,0.524,0.296,10.742,5.187,-9.521,1
9.304248,0.714,0.518,0.301,11.23,5.126,-8.85,1
9.313123,0.713,0.518,0.303,15.624,4.699,-7.446,1
9.320054,0.731,0.514,0.295,22.705,3.784,-6.225,1
9.327233,0.751,0.501,0.289,27.893,1.708,-4.638,1
9.336275,0.712,0.503,0.317,30.639,1.708,-4.028,1
9.343408,0.683,0.495,0.296,30.334,1.403,-2.99,1
9.352504,0.7,0.481,0.311,23.681,1.342,-2.319,1
9.359552,0.67,0.471,0.319,14.099,2.929,-1.281,1
9.367695,0.673,0.473,0.333,-1.831,2.685,-0.671,1
9.37516,0.675,0.479,0.358,-6.896,4.394,0.183,1
9.383979,0.68,0.479,0.356,-10.559,4.211,0.976,1
9.391187,0.685,0.5,0.371,-9.643,4.943,1.708,1
9.398292,0.663,0.507,0.359,-9.216,5.249,2.746,1
9.40595,0.681,0.512,0.357,-12.878,5.31,3.417,1
9.415451,0.719,0.506,0.354,-21.667,5.615,3.784,1
9.422728,0.736,0.514,0.359,-31.433,5.676,4.394,1
9.429053,0.716,0.533,0.367,-34.362,6.225,5.004,1
9.438259,0.696,0.562,0.373,-25.939,6.286,5.432,1
9.446087,0.688,0.571,0.375,-15.624,5.92,5.676,1
9.452957,0.69,0.572,0.37,-3.54,5.554,6.164,1
9.461252,0.697,0.574,0.362,2.685,5.981,6.774,1
9.46845,0.702,0.564,0.351,3.234,6.164,7.202,1
9.475512,0.704,0.562,0.345,0.549,6.591,7.446,1
9.483067,0.7,0.57,0.353,-2.258,6.652,8.117,1
9.490825,0.708,0.585,0.352,-2.563,7.202,8.361,1
9.498949,0.712,0.599,0.352,-1.22,7.629,8.666,1
9.507431,0.715,0.606,0.343,0.244,7.751,8.85,1
9.514991,0.714,0.615,0.334,0.427,7.934,9.216,1
9.52211,0.715,0.62,0.328,-0.244,8.117,9.338,1
9.528532,0.714,0.63,0.312,-1.708,8.361,9.582,1
9.536115,0.719,0.628,0.304,-4.455,8.544,9.643,1
9.543466,0.72,0.635,0.289,-7.446,8.789,9.582,1
9.552088,0.724,0.641,0.277,-10.192,8.666,9.46,1
9.55915,0.734,0.641,0.265,-12.207,8.605,9.46,1
9.568167,0.736,0.64,0.261,-12.573,8.178,9.277,1
9.577332,0.736,0.643,0.25,-10.314,7.263,9.216,1
9.584213,0.737,0.644,0.242,-7.263,6.591,9.216,1
9.591275,0.729,0.639,0.231,-4.821,5.737,9.216,1
9.600183,0.723,0.637,0.219,-3.906,5.432,9.399,1
9.60746,0.72,0.631,0.215,-4.455,4.516,9.277,1
9.615405,0.717,0.628,0.207,-5.249,4.089,9.338,1
9.623347,0.713,0.63,0.203,-6.225,3.723,9.643,1
9.630641,0.722,0.626,0.203,-7.202,3.234,9.704,1
9.638128,0.734,0.621,0.207,-8.666,2.563,10.009,1
9.645533,0.733,0.624,0.214,-8.544,1.586,10.192,1
9.654249,0.719,0.639,0.228,-7.08,0.854,10.559,1
9.66162,0.701,0.648,0.227,-4.394,0.427,10.864,1
9.669225,0.69,0.653,0.228,-2.258,-0.366,11.23,1
9.676781,0.684,0.661,0.231,-1.281,-0.732,11.169,1
9.684933,0.682,0.671,0.226,-1.098,-1.342,11.291,1
9.69222,0.679,0.676,0.229,-1.953,-1.892,11.291,1
9.700916,0.681,0.678,0.241,-2.746,-2.258,11.108,1
9.708558,0.683,0.685,0.251,-3.601,-2.929,11.047,1
9.716823,0.679,0.687,0.27,-3.906,-3.295,10.864,1
9.725035,0.679,0.689,0.288,-3.601,-3.601,10.803,1
9.732446,0.687,0.697,0.311,-3.356,-4.15,10.314,1
9.740035,0.686,0.71,0.336,-2.624,-3.967,10.314,1
9.74906,0.688,0.721,0.349,-2.075,-3.601,10.07,1
9.756477,0.689,0.727,0.354,-2.502,-3.051,9.704,1
9.765526,0.685,0.734,0.354,-2.929,-2.197,9.155,1
9.772773,0.687,0.732,0.354,-3.417,-1.403,8.056,1
9.780714,0.686,0.729,0.346,-3.356,-1.22,7.568,1
9.789562,0.684,0.73,0.341,-3.356,-0.854,6.896,1
9.796606,0.692,0.725,0.338,-2.746,-1.098,6.53,1
9.804876,0.703,0.72,0.337,-2.502,-1.159,6.103,1
9.812086,0.715,0.721,0.34,-1.22,-1.281,5.737,1
9.819496,0.724,0.717,0.346,-0.976,-0.976,5.371,1
9.827877,0.727,0.722,0.353,-0.732,-1.037,5.004,1
9.834568,0.729,0.727,0.362,-0.244,-1.037,4.577,1
9.842332,0.731,0.725,0.37,0.366,-0.427,4.272,1
9.850876,0.734,0.73,0.377,0.976,-0.244,3.845,1
9.857804,0.729,0.737,0.383,2.38,0.488,3.417,1
9.864742,0.728,0.738,0.391,4.15,0.854,3.173,1
9.872924,0.728,0.739,0.389,5.432,1.892,2.624,1
9.880309,0.73,0.74,0.385,5.676,2.502,2.075,1
9.88858,0.736,0.738,0.38,4.821,3.173,1.464,1
9.895093,0.746,0.739,0.377,3.234,4.089,0.915,1
9.90378,0.744,0.735,0.377,1.22,4.821,0.549,1
9.910648,0.747,0.738,0.366,-0.427,5.981,0.061,1
9.91943,0.758,0.737,0.361,-0.427,5.737,-0.488,1
9.926387,0.759,0.735,0.371,1.464,6.103,-1.22,1
9.933384,0.744,0.733,0.37,2.441,6.347,-1.525,1
9.939879,0.732,0.736,0.374,3.051,6.652,-2.258,1
9.948518,0.724,0.742,0.374,3.479,6.958,-2.258,1
9.955579,0.718,0.744,0.376,3.967,7.385,-2.685,1
9.962523,0.716,0.756,0.386,4.455,7.812,-3.112,1
9.971076,0.708,0.762,0.393,4.76,8.3,-3.479,1
9.977199,0.696,0.768,0.396,4.821,8.911,-3.723,1
9.985397,0.693,0.774,0.382,5.065,9.826,-4.516,1
9.992964,0.704,0.774,0.375,5.493,10.498,-5.249,1
