timestamp_s,ax,ay,az,gx,gy,gz,label
0.005786,0.125,0.99,0.191,3.662,5.981,-0.488,1
0.013834,0.121,0.995,0.187,3.173,5.493,-0.793,1
0.020181,0.115,0.999,0.186,3.112,5.126,-0.793,1
0.028021,0.115,1.0,0.189,3.417,5.065,-1.342,1
0.035369,0.113,1.0,0.183,4.211,4.516,-1.159,1
0.04182,0.115,0.999,0.185,5.004,4.15,-1.586,1
0.049751,0.12,0.989,0.188,4.699,3.784,-1.708,1
0.056005,0.124,0.985,0.197,3.906,3.723,-2.014,1
0.063173,0.135,0.986,0.202,2.868,3.845,-1.892,1
0.070691,0.141,0.982,0.203,2.258,3.417,-2.136,1
0.078608,0.14,0.974,0.206,2.014,3.54,-2.075,1
0.08491,0.142,0.971,0.202,1.525,3.173,-2.075,1
0.091777,0.147,0.967,0.202,1.464,2.807,-2.136,1
0.099539,0.154,0.966,0.204,1.22,3.051,-2.136,1
0.107407,0.159,0.969,0.209,0.915,2.807,-2.014,1
0.113984,0.161,0.965,0.217,0.732,2.868,-2.014,1
0.121935,0.166,0.96,0.216,1.098,2.563,-1.77,1
0.128388,0.17,0.958,0.22,1.464,2.563,-1.77,1
0.136414,0.174,0.953,0.221,1.953,2.441,-1.647,1
0.142781,0.169,0.945,0.22,2.563,2.38,-1.281,1
0.150906,0.166,0.944,0.22,3.051,2.136,-1.464,1
0.157491,0.163,0.948,0.227,3.723,2.258,-0.976,1
0.164349,0.161,0.941,0.224,4.028,2.258,-0.976,1
0.172329,0.157,0.945,0.231,4.333,2.197,-0.671,1
0.180229,0.15,0.947,0.23,4.394,2.258,-0.61,1
0.186583,0.152,0.946,0.232,4.699,2.197,-0.488,1
0.194664,0.154,0.953,0.235,4.76,2.38,-0.183,1
0.20127,0.153,0.948,0.237,4.638,2.502,0.0,1
0.208168,0.152,0.945,0.24,3.784,2.563,0.244,1
0.214745,0.16,0.948,0.239,2.441,2.929,0.671,1
0.222663,0.16,0.95,0.237,1.586,2.99,0.671,1
0.229681,0.163,0.958,0.233,1.403,3.112,1.037,1
0.235944,0.157,0.951,0.236,1.342,3.173,1.098,1
0.242834,0.158,0.954,0.235,1.403,3.234,1.281,1
0.251037,0.158,0.949,0.239,1.037,3.417,1.77,1
0.257536,0.152,0.947,0.239,-0.061,3.723,1.831,1
0.264287,0.155,0.947,0.241,-1.281,3.967,2.441,1
0.271059,0.156,0.955,0.241,-1.892,4.272,2.685,1
0.278105,0.162,0.96,0.241,-2.319,4.455,2.746,1
0.286325,0.164,0.967,0.245,-1.892,4.577,3.112,1
0.292849,0.169,0.974,0.246,-1.708,4.943,3.051,1
0.299541,0.174,0.987,0.247,-1.403,4.821,3.234,1
0.308251,0.187,0.996,0.252,-1.647,5.31,3.417,1
0.314268,0.2,0.999,0.256,-2.807,6.042,3.234,1
0.32111,0.221,1.025,0.266,-5.126,6.652,3.173,1
0.327963,0.26,1.076,0.268,-7.324,7.202,3.051,1
0.335046,0.292,1.132,0.272,-9.582,8.3,2.441,1
0.34209,0.315,1.192,0.266,-11.962,9.338,1.22,1
0.3502,0.324,1.237,0.256,-13.183,9.948,0.0,1
0.356843,0.339,1.27,0.24,-13.549,10.62,-1.831,1
0.363733,0.354,1.291,0.208,-13.366,10.864,-3.784,1
0.371503,0.358,1.326,0.18,-13.0,11.108,-5.432,1
0.378184,0.351,1.342,0.169,-12.512,10.742,-7.873,1
0.385775,0.342,1.364,0.154,-12.878,10.803,-10.131,1
0.392687,0.337,1.405,0.14,-14.465,10.864,-12.573,1
0.399905,0.361,1.471,0.13,-15.869,10.864,-14.831,1
0.408053,0.407,1.553,0.119,-17.761,11.291,-17.822,1
0.415027,0.465,1.61,0.098,-20.446,11.901,-21.423,1
0.422742,0.52,1.641,0.078,-25.573,12.573,-25.39,1
0.429826,0.567,1.649,0.065,-33.203,13.0,-28.808,1
0.438027,0.597,1.657,0.061,-43.64,14.221,-32.531,1
0.444812,0.629,1.648,0.081,-54.626,14.77,-36.376,1
0.452882,0.638,1.639,0.106,-63.415,15.686,-39.611,1
0.460589,0.634,1.615,0.124,-74.279,16.784,-43.64,1
0.468115,0.624,1.588,0.132,-85.388,17.639,-47.668,1
0.474832,0.622,1.547,0.134,-97.839,18.737,-51.818,1
0.482613,0.604,1.5,0.128,-113.159,19.531,-56.03,1
0.490391,0.57,1.452,0.139,-124.877,20.263,-59.448,1
0.498038,0.522,1.395,0.122,-134.338,20.08,-62.133,1
0.506453,0.524,1.327,0.123,-140.991,19.897,-65.185,1
0.513088,0.498,1.262,0.125,-145.935,19.47,-66.833,1
0.521313,0.47,1.211,0.13,-149.902,19.104,-68.298,1
0.528033,0.445,1.167,0.138,-151.977,18.554,-69.213,1
0.536222,0.478,1.13,0.139,-153.198,17.761,-69.641,1
0.543032,0.419,1.095,0.144,-152.832,17.333,-69.763,1
0.551051,0.401,1.078,0.157,-152.16,17.272,-70.373,1
0.558262,0.405,1.063,0.159,-151.245,17.028,-71.044,1
0.566468,0.352,1.069,0.172,-149.169,16.784,-71.899,1
0.574766,0.314,1.06,0.172,-143.737,17.028,-72.448,1
0.582385,0.286,1.044,0.16,-137.023,17.15,-73.059,1
0.589084,0.23,1.024,0.167,-128.906,17.517,-73.425,1
0.597091,0.185,1.002,0.162,-118.835,18.005,-73.913,1
0.603549,0.158,0.98,0.146,-108.947,18.432,-74.768,1
0.61157,0.111,0.942,0.118,-100.585,17.883,-75.256,1
0.619728,0.06,0.91,0.097,-94.299,17.333,-75.622,1
0.627377,0.072,0.874,0.092,-89.355,16.906,-75.744,1
0.63501,0.083,0.852,0.086,-86.914,17.211,-74.89,1
0.642972,0.122,0.824,0.067,-86.12,16.784,-74.157,1
0.650959,0.152,0.812,0.066,-86.914,17.333,-72.998,1
0.657864,0.186,0.827,0.059,-86.914,17.333,-71.716,1
0.666111,0.214,0.872,0.07,-86.791,17.578,-70.617,1
0.674306,0.239,0.912,0.076,-84.899,18.554,-70.129,1
0.682567,0.231,0.946,0.058,-81.787,18.188,-69.458,1
0.688966,0.227,0.978,0.061,-75.683,18.981,-69.458,1
0.696049,0.226,1.02,0.03,-67.81,19.531,-69.946,1
0.705335,0.223,1.058,-0.002,-59.936,19.592,-70.983,1
0.712325,0.22,1.077,-0.029,-54.138,19.836,-72.448,1
0.720977,0.228,1.078,-0.054,-52.734,20.263,-73.852,1
0.727961,0.251,1.071,-0.068,-56.64,21.789,-75.073,1
0.735994,0.286,1.072,-0.081,-64.453,22.827,-76.477,1
0.744751,0.33,1.068,-0.101,-75.805,24.414,-78.063,1
0.750694,0.406,1.05,-0.13,-84.472,25.451,-78.491,1
0.758609,0.441,1.02,-0.159,-99.243,25.939,-79.467,1
0.765685,0.476,1.022,-0.166,-112.121,26.794,-80.688,1
0.774018,0.507,1.038,-0.199,-123.596,26.855,-81.726,1
0.781936,0.557,1.083,-0.237,-132.629,27.16,-83.007,1
0.788597,0.587,1.121,-0.276,-136.108,26.672,-84.411,1
0.795752,0.656,1.141,-0.328,-138.122,25.512,-86.486,1
0.803697,0.67,1.145,-0.384,-138.122,23.132,-89.05,1
0.810493,0.677,1.138,-0.426,-135.864,21.24,-91.43,1
0.817721,0.666,1.118,-0.487,-132.629,18.493,-93.994,1
0.825558,0.59,1.119,-0.505,-126.159,16.113,-96.679,1
0.833353,0.539,1.099,-0.517,-118.103,14.038,-98.876,1
0.839888,0.481,1.069,-0.529,-108.276,11.718,-100.28,1
0.848694,0.414,1.034,-0.528,-100.341,9.399,-100.952,1
0.855266,0.337,0.988,-0.513,-102.661,7.812,-101.196,1
0.861834,0.313,0.875,-0.495,-108.886,7.751,-100.769,1
0.869997,0.349,0.803,-0.5,-119.384,7.995,-99.914,1
0.876627,0.379,0.779,-0.517,-128.54,8.666,-98.937,1
0.884939,0.461,0.751,-0.566,-134.094,8.911,-98.022,1
0.891728,0.505,0.735,-0.613,-135.986,7.812,-97.9,1
0.898314,0.608,0.716,-0.63,-132.995,6.469,-98.449,1
0.905986,0.583,0.677,-0.664,-126.464,4.394,-98.815,1
0.912949,0.628,0.681,-0.686,-117.98,1.22,-99.853,1
0.922473,0.643,0.677,-0.658,-103.759,-2.197,-101.501,1
0.93086,0.656,0.665,-0.605,-81.909,-6.042,-103.82,1
0.938243,0.643,0.653,-0.578,-60.729,-9.826,-105.59,1
0.946173,0.615,0.648,-0.548,-39.306,-12.512,-106.628,1
0.954621,0.62,0.661,-0.557,-21.911,-14.343,-107.482,1
0.961621,0.631,0.704,-0.591,-8.117,-16.052,-108.642,1
0.970279,0.597,0.723,-0.625,-0.366,-17.517,-109.13,1
0.977385,0.579,0.727,-0.651,5.126,-19.287,-111.022,1
0.984108,0.538,0.695,-0.652,8.911,-21.179,-112.487,1
0.992865,0.502,0.659,-0.627,11.657,-22.094,-113.464,1
0.999614,0.523,0.582,-0.597,14.465,-23.071,-114.318,1
1.006481,0.5,0.551,-0.565,17.456,-23.864,-114.929,1
1.015216,0.461,0.527,-0.533,20.874,-24.597,-115.539,1
1.021784,0.432,0.49,-0.489,25.512,-24.902,-116.088,1
1.028787,0.392,0.443,-0.448,30.517,-25.878,-116.333,1
1.03663,0.375,0.38,-0.404,35.278,-25.634,-116.516,1
1.043594,0.359,0.338,-0.359,40.405,-25.756,-116.271,1
1.051801,0.346,0.297,-0.302,45.41,-24.78,-116.027,1
1.05846,0.344,0.263,-0.259,48.706,-23.254,-115.417,1
1.065626,0.345,0.24,-0.222,51.208,-21.484,-114.99,1
1.073758,0.358,0.225,-0.205,51.879,-19.714,-113.891,1
1.081866,0.381,0.219,-0.2,50.842,-16.784,-113.342,1
1.088543,0.409,0.236,-0.237,48.339,-14.404,-112.304,1
1.095623,0.446,0.256,-0.286,44.982,-12.695,-111.633,1
1.103837,0.475,0.286,-0.336,40.161,-10.681,-110.778,1
1.11263,0.513,0.301,-0.395,34.973,-9.765,-110.107,1
1.121213,0.539,0.306,-0.458,30.517,-8.728,-109.619,1
1.127816,0.575,0.294,-0.503,27.954,-8.361,-109.008,1
1.135481,0.599,0.277,-0.524,28.198,-8.422,-108.52,1
1.143822,0.619,0.262,-0.537,30.395,-8.483,-108.032,1
1.152396,0.643,0.241,-0.541,34.973,-8.483,-107.666,1
1.159096,0.685,0.218,-0.535,41.687,-8.85,-106.994,1
1.167716,0.707,0.207,-0.558,46.874,-8.422,-107.055,1
1.174262,0.716,0.194,-0.583,47.79,-8.3,-106.567,1
1.182559,0.735,0.178,-0.607,46.142,-8.117,-106.628,1
1.19131,0.82,0.096,-0.638,39.855,-8.483,-106.079,1
1.197975,0.875,0.062,-0.626,33.264,-8.544,-105.102,1
1.206396,0.935,0.056,-0.63,28.991,-8.666,-103.881,1
1.213152,0.987,0.059,-0.624,29.785,-10.07,-102.661,1
1.221771,1.054,0.033,-0.596,38.33,-11.352,-101.684,1
1.228904,1.039,0.047,-0.608,52.307,-12.329,-100.402,1
1.236423,1.058,0.034,-0.622,67.077,-15.197,-99.609,1
1.243411,1.04,0.04,-0.601,84.045,-16.54,-98.754,1
1.251218,1.055,0.033,-0.621,97.595,-18.249,-97.717,1
1.259233,1.016,0.02,-0.583,109.558,-19.226,-97.167,1
1.267351,0.989,0.022,-0.643,113.952,-19.104,-96.679,1
1.274019,0.932,0.03,-0.631,112.182,-20.202,-96.496,1
1.282369,0.927,0.024,-0.635,108.52,-19.409,-95.825,1
1.289126,0.911,0.035,-0.636,101.135,-19.653,-95.703,1
1.296973,0.904,0.046,-0.625,93.2,-19.042,-95.275,1
1.305447,0.898,0.066,-0.62,85.388,-18.737,-95.031,1
1.312656,0.895,0.089,-0.609,78.369,-18.432,-94.909,1
1.322114,0.888,0.098,-0.602,72.57,-18.432,-95.153,1
1.329069,0.877,0.107,-0.593,66.467,-18.066,-95.153,1
1.335825,0.88,0.116,-0.589,60.18,-18.188,-95.336,1
1.344058,0.888,0.122,-0.568,53.833,-18.066,-95.764,1
1.351073,0.893,0.126,-0.564,48.156,-18.127,-96.191,1
1.359314,0.907,0.134,-0.548,42.358,-17.883,-96.008,1
1.365949,0.908,0.152,-0.531,36.682,-17.578,-95.825,1
1.373648,0.912,0.166,-0.508,31.188,-17.028,-95.947,1
1.380599,0.91,0.18,-0.479,25.634,-16.357,-96.557,1
1.388206,0.899,0.183,-0.455,19.592,-15.747,-97.29,1
1.395601,0.874,0.188,-0.433,13.061,-14.526,-97.778,1
1.403356,0.844,0.203,-0.401,6.164,-13.305,-98.632,1
1.410453,0.767,0.223,-0.387,1.159,-11.596,-99.06,1
1.419183,0.726,0.26,-0.425,-3.234,-10.62,-100.036,1
1.426231,0.736,0.232,-0.341,-9.582,-10.986,-101.989,1
1.434077,0.74,0.204,-0.326,-14.587,-8.361,-102.6,1
1.441003,0.732,0.196,-0.294,-22.888,-8.605,-103.271,1
1.448934,0.726,0.173,-0.261,-28.076,-6.103,-103.454,1
1.456826,0.707,0.156,-0.253,-35.766,-4.821,-104.309,1
1.465141,0.66,0.147,-0.233,-45.471,-1.953,-104.919,1
1.47178,0.643,0.143,-0.231,-53.527,-0.244,-105.834,1
1.480024,0.596,0.144,-0.218,-56.701,1.098,-107.727,1
1.488923,0.503,0.136,-0.211,-55.725,3.417,-108.459,1
1.495492,0.38,0.133,-0.245,-52.368,6.774,-110.595,1
1.502552,0.245,0.123,-0.267,-53.405,10.131,-113.647,1
1.510849,0.184,0.094,-0.281,-61.279,15.258,-118.103,1
1.517565,0.284,0.055,-0.293,-73.852,20.08,-121.459,1
1.525073,0.323,0.042,-0.317,-83.801,25.39,-125.427,1
1.53255,0.25,0.045,-0.336,-90.026,29.418,-130.493,1
1.540888,0.197,0.015,-0.349,-92.59,33.691,-134.277,1
1.549359,0.216,-0.015,-0.369,-92.712,34.973,-137.695,1
1.557658,0.2,-0.052,-0.366,-81.97,34.667,-140.502,1
1.564007,0.205,-0.096,-0.342,-66.162,32.165,-140.747,1
1.571942,0.209,-0.143,-0.34,-47.546,31.188,-140.441,1
1.580293,0.199,-0.215,-0.337,-36.01,28.808,-140.319,1
1.58681,0.195,-0.291,-0.331,-34.057,29.418,-138.977,1
1.594143,0.213,-0.339,-0.326,-43.212,29.724,-137.817,1
1.603303,0.234,-0.394,-0.33,-55.114,30.273,-136.596,1
1.609874,0.228,-0.416,-0.315,-68.603,31.127,-135.437,1
1.617875,0.249,-0.442,-0.31,-79.589,31.982,-133.911,1
1.624883,0.215,-0.451,-0.304,-87.646,32.287,-133.361,1
1.632722,0.14,-0.48,-0.294,-92.041,32.592,-132.385,1
1.6402,0.084,-0.502,-0.291,-93.261,31.799,-131.164,1
1.646746,0.038,-0.532,-0.283,-93.078,31.555,-130.371,1
1.655178,0.003,-0.574,-0.282,-96.862,31.799,-129.76,1
1.661899,-0.031,-0.659,-0.296,-112.06,32.409,-128.417,1
1.670029,-0.091,-0.712,-0.259,-145.019,34.912,-127.136,1
1.678313,-0.001,-0.738,-0.242,-170.043,35.705,-126.464,1
1.686565,-0.025,-0.746,-0.185,-181.518,35.888,-124.755,1
1.693237,-0.01,-0.818,-0.143,-176.086,36.01,-123.291,1
1.700717,-0.011,-0.871,-0.11,-162.109,35.095,-121.337,1
1.708547,-0.016,-0.906,-0.052,-142.761,34.423,-118.957,1
1.716058,-0.023,-0.975,-0.009,-121.093,34.79,-116.455,1
1.724752,-0.017,-1.013,0.109,-94.726,32.775,-111.999,1
1.731948,0.021,-1.098,0.164,-60.668,32.958,-106.689,1
1.740252,0.0,-1.243,0.199,-36.987,34.057,-102.05,1
1.749113,0.017,-1.363,0.241,-33.325,38.757,-95.947,1
1.755661,0.0,-1.512,0.282,-46.752,45.043,-89.355,1
1.764414,-0.023,-1.577,0.33,-65.368,52.612,-82.214,1
1.772532,-0.094,-1.594,0.343,-73.486,58.593,-75.561,1
1.77926,-0.121,-1.625,0.375,-68.237,63.293,-68.725,1
1.787032,-0.144,-1.652,0.37,-55.297,67.687,-61.706,1
1.794064,-0.208,-1.667,0.359,-44.433,72.265,-54.016,1
1.802491,-0.243,-1.69,0.344,-32.226,75.195,-46.325,1
1.808998,-0.307,-1.715,0.339,-24.719,80.505,-37.78,1
1.816666,-0.343,-1.742,0.306,-23.742,85.632,-27.832,1
1.825183,-0.437,-1.742,0.323,-22.094,90.637,-18.371,1
1.833487,-0.451,-1.771,0.29,-17.944,94.421,-8.789,1
1.840484,-0.545,-1.763,0.3,-11.718,99.243,0.854,1
1.847522,-0.591,-1.784,0.271,-5.432,102.233,10.925,1
1.856044,-0.641,-1.807,0.278,-0.671,105.834,21.484,1
1.86297,-0.705,-1.822,0.263,3.784,109.558,32.897,1
1.870477,-0.781,-1.82,0.267,9.46,112.854,44.433,1
1.879032,-0.847,-1.789,0.253,18.554,115.844,56.701,1
1.886117,-0.898,-1.75,0.22,33.63,118.896,69.335,1
1.892757,-0.966,-1.673,0.184,56.274,120.239,82.275,1
1.901188,-1.096,-1.597,0.133,83.923,121.704,95.153,1
1.908121,-1.204,-1.528,0.066,103.759,122.985,108.398,1
1.915991,-1.261,-1.509,0.024,114.562,124.511,122.558,1
1.923082,-1.308,-1.466,-0.019,116.394,127.746,137.634,1
1.931622,-1.431,-1.421,-0.065,113.281,130.615,152.526,1
1.939464,-1.547,-1.334,-0.067,105.224,134.338,167.846,1
1.946346,-1.632,-1.276,-0.101,101.257,139.282,183.837,1
1.954653,-1.809,-1.218,-0.111,100.036,143.005,200.378,1
1.963767,-1.944,-1.175,-0.174,101.318,148.62,217.895,1
1.969903,-2.116,-1.14,-0.201,95.458,153.625,238.952,1
1.978224,-2.293,-1.125,-0.249,82.946,160.461,257.629,1
1.984889,-2.445,-1.113,-0.295,62.255,167.175,276.916,1
1.993113,-2.661,-1.093,-0.324,39.611,173.706,293.457,1
2.000102,-2.834,-1.087,-0.344,11.962,183.349,317.016,1
2.007869,-2.996,-1.08,-0.357,-1.647,192.565,338.5,1
2.017609,-3.229,-1.064,-0.391,-8.178,199.89,361.206,1
2.02422,-3.475,-1.068,-0.414,0.549,206.848,385.498,1
2.032425,-3.737,-1.066,-0.458,22.644,212.707,415.466,1
2.039761,-4.092,-1.078,-0.486,46.264,216.003,442.687,1
2.048022,-4.485,-1.09,-0.541,69.763,217.163,472.29,1
2.055908,-4.906,-1.08,-0.603,98.022,215.454,503.54,1
2.063453,-5.312,-1.053,-0.685,132.019,210.021,536.621,1
2.070382,-5.766,-1.025,-0.795,172.729,199.584,571.228,1
2.077515,-6.281,-1.006,-0.893,211.791,184.936,608.032,1
2.085834,-6.757,-0.95,-1.008,254.028,162.841,646.118,1
2.092808,-7.285,-0.881,-1.111,301.818,134.46,684.753,1
2.101506,-7.882,-0.806,-1.215,351.318,97.839,723.083,1
2.108545,-8.566,-0.707,-1.266,392.761,53.588,759.948,1
2.11633,-9.367,-0.586,-1.307,421.874,4.455,794.311,1
2.124826,-10.321,-0.396,-1.284,440.673,-50.659,824.584,1
2.132625,-11.187,-0.197,-1.205,456.298,-109.252,850.585,1
2.140681,-12.021,0.003,-1.098,466.674,-181.701,874.084,1
2.149125,-13.011,0.206,-0.929,468.994,-254.15,891.662,1
2.157088,-13.856,0.387,-0.789,460.205,-313.903,902.526,1
2.165367,-14.935,0.574,-0.683,434.936,-372.802,908.691,1
2.171493,-15.998,0.77,-0.499,403.503,-424.194,912.048,1
2.180827,-15.999,1.036,-0.303,387.329,-473.205,911.743,1
2.18747,-15.999,1.27,-0.102,389.221,-530.151,905.7,1
2.195482,-15.999,1.479,0.143,414.672,-579.467,894.836,1
2.20209,-15.999,1.69,0.412,477.172,-633.544,876.708,1
2.210173,-15.999,1.797,0.664,542.48,-694.274,846.313,1
2.218469,-15.999,1.816,0.984,588.073,-754.699,806.335,1
2.226586,-15.999,1.964,1.324,607.605,-807.617,758.422,1
2.232777,-15.999,2.154,1.585,622.253,-856.14,702.88,1
2.240861,-15.999,2.406,1.798,688.598,-902.77,638.916,1
2.247413,-15.999,2.535,1.958,794.189,-954.406,560.913,1
2.255377,-15.999,2.587,2.15,898.681,-995.178,481.445,1
2.262391,-15.999,2.571,2.404,1030.395,-1038.818,366.516,1
2.269639,-15.999,2.494,2.346,1119.445,-1061.34,230.468,1
2.277633,-15.999,2.262,2.291,1125.122,-1062.439,86.669,1
2.286064,-15.999,2.066,2.314,1080.139,-1034.545,-48.767,1
2.292997,-15.999,1.932,2.297,1024.353,-990.295,-171.142,1
2.3013,-15.999,1.548,2.162,929.443,-919.311,-291.992,1
2.308254,-15.053,1.22,2.195,841.308,-860.046,-360.107,1
2.316341,-13.818,0.929,2.098,717.529,-779.479,-421.813,1
2.322787,-12.646,0.68,1.954,568.725,-706.603,-463.867,1
2.331141,-11.783,0.561,1.844,426.147,-639.709,-489.135,1
2.337717,-11.021,0.563,1.781,303.71,-589.05,-504.577,1
2.345427,-10.55,0.551,1.833,217.468,-541.809,-510.742,1
2.352364,-9.822,0.526,1.777,171.997,-505.859,-512.39,1
2.361065,-9.213,0.527,1.793,177.307,-480.651,-512.512,1
2.367578,-8.729,0.494,1.748,221.313,-452.087,-513.61,1
2.374509,-8.239,0.433,1.717,285.034,-422.363,-516.418,1
2.382844,-7.792,0.26,1.601,332.824,-387.207,-519.409,1
2.391231,-7.301,0.044,1.485,337.646,-347.167,-520.935,1
2.399083,-6.868,-0.111,1.383,287.719,-301.208,-518.92,1
2.407392,-6.528,-0.202,1.343,222.106,-263.305,-512.023,1
2.414974,-6.166,-0.255,1.275,157.592,-232.666,-501.342,1
2.422778,-5.827,-0.287,1.264,109.558,-207.336,-487.976,1
2.429631,-5.505,-0.309,1.236,84.106,-183.776,-469.665,1
2.437899,-5.147,-0.333,1.25,87.097,-169.25,-455.749,1
2.445842,-4.752,-0.402,1.209,110.595,-148.742,-437.072,1
2.453881,-4.36,-0.509,1.201,130.798,-132.568,-422.058,1
2.461375,-4.029,-0.648,1.172,130.187,-112.792,-405.944,1
2.468288,-3.816,-0.711,1.174,114.44,-94.604,-390.563,1
2.476862,-3.556,-0.784,1.183,99.792,-75.744,-374.816,1
2.483728,-3.189,-0.845,1.227,87.707,-58.288,-358.215,1
2.492563,-2.921,-0.914,1.231,82.458,-40.832,-342.102,1
2.49912,-2.61,-0.962,1.238,77.453,-25.085,-326.293,1
2.507029,-2.352,-1.044,1.263,68.359,-7.263,-307.434,1
2.514141,-2.188,-1.045,1.309,67.626,5.004,-293.518,1
2.522489,-1.981,-1.107,1.299,72.204,18.371,-277.099,1
2.531415,-1.871,-1.12,1.319,69.03,33.508,-257.812,1
2.538092,-1.783,-1.111,1.316,65.551,45.349,-241.577,1
2.546362,-1.634,-1.108,1.311,66.589,56.152,-226.318,1
2.554627,-1.524,-1.12,1.311,67.443,68.054,-207.824,1
2.56119,-1.366,-1.119,1.276,71.228,78.125,-193.054,1
2.56945,-1.259,-1.104,1.233,66.833,87.341,-178.771,1
2.577265,-1.148,-1.053,1.175,64.025,95.52,-167.236,1
2.585162,-1.077,-0.99,1.121,63.049,104.187,-151.916,1
2.591971,-1.023,-0.925,1.064,67.81,110.473,-139.709,1
2.599018,-0.975,-0.863,1.005,74.218,116.455,-127.868,1
2.606086,-0.895,-0.829,0.957,79.467,120.91,-118.164,1
2.614114,-0.801,-0.803,0.912,84.716,125.915,-106.811,1
2.620985,-0.678,-0.768,0.857,90.576,130.187,-95.886,1
2.628402,-0.583,-0.728,0.811,99.121,133.85,-84.777,1
2.636734,-0.471,-0.681,0.766,113.647,136.84,-73.669,1
2.645164,-0.361,-0.64,0.723,130.798,139.526,-62.866,1
2.651954,-0.282,-0.621,0.674,141.54,143.371,-52.368,1
2.65916,-0.219,-0.583,0.615,139.526,147.949,-42.175,1
2.667578,-0.162,-0.555,0.547,128.417,153.381,-32.714,1
2.674622,-0.153,-0.51,0.483,108.642,157.714,-23.803,1
2.683369,-0.135,-0.457,0.416,87.341,161.987,-15.38,1
2.690494,-0.1,-0.39,0.355,68.42,163.818,-6.408,1
2.697504,-0.051,-0.335,0.308,61.95,164.306,1.037,1
2.704617,0.026,-0.291,0.269,59.57,163.269,7.08,1
2.713333,0.083,-0.266,0.236,56.762,162.109,13.427,1
2.720099,0.183,-0.237,0.196,52.673,160.095,20.08,1
2.728419,0.264,-0.192,0.161,48.645,158.203,25.817,1
2.736403,0.343,-0.136,0.127,45.715,155.334,31.005,1
2.743061,0.405,-0.076,0.101,45.288,151.733,35.888,1
2.750098,0.468,-0.022,0.08,48.034,146.972,40.283,1
2.757862,0.512,0.022,0.066,52.551,141.418,44.25,1
2.76665,0.546,0.062,0.061,58.654,136.047,47.668,1
2.773092,0.561,0.096,0.057,62.255,131.042,50.964,1
2.782037,0.6,0.116,0.058,61.95,127.136,53.344,1
2.788674,0.651,0.139,0.061,56.884,122.558,56.64,1
2.795282,0.706,0.16,0.07,50.598,119.934,59.082,1
2.803618,0.739,0.182,0.072,43.884,118.225,60.668,1
2.810626,0.784,0.199,0.075,32.958,116.516,62.255,1
2.817376,0.796,0.219,0.074,26.672,115.539,62.683,1
2.82562,0.816,0.25,0.077,24.719,114.013,63.354,1
2.83441,0.84,0.288,0.078,31.677,112.365,63.476,1
2.841008,0.878,0.311,0.076,41.076,109.313,63.293,1
2.848019,0.927,0.327,0.07,49.743,107.666,63.415,1
2.856267,0.979,0.332,0.08,54.992,105.468,63.537,1
2.86336,1.044,0.333,0.095,55.358,104.919,64.208,1
2.872169,1.094,0.319,0.111,46.02,105.346,65.307,1
2.878954,1.144,0.29,0.132,23.742,108.703,66.65,1
2.885842,1.197,0.271,0.123,-10.498,112.426,67.932,1
2.892849,1.221,0.294,0.131,-42.358,116.577,68.237,1
2.901502,1.247,0.354,0.113,-57.312,118.591,67.626,1
2.908485,1.255,0.427,0.107,-48.217,117.37,65.368,1
2.916254,1.251,0.5,0.091,-19.897,114.807,62.866,1
2.924556,1.217,0.551,0.083,15.197,110.107,59.692,1
2.931555,1.181,0.571,0.085,47.119,107.299,57.067,1
2.939932,1.125,0.589,0.062,66.345,105.224,54.687,1
2.946581,1.084,0.608,0.051,67.504,105.285,52.795,1
2.954975,1.057,0.64,0.024,57.434,106.384,50.354,1
2.961651,1.008,0.686,0.025,43.762,108.276,47.119,1
2.969842,1.014,0.747,0.003,35.095,109.558,44.067,1
2.976884,0.96,0.823,-0.012,39.794,109.008,39.611,1
2.985872,0.964,0.882,-0.029,51.33,109.069,34.973,1
2.992877,0.866,0.958,-0.076,71.899,106.018,29.663,1
2.999769,0.835,1.008,-0.087,95.947,104.797,24.902,1
3.007578,0.815,1.041,-0.159,113.83,102.539,19.775,1
3.01479,0.875,1.088,-0.208,135.498,100.769,14.282,1
3.021459,0.76,1.101,-0.235,151.672,97.595,9.094,1
3.029102,0.695,1.127,-0.275,160.217,95.52,4.76,1
3.037593,0.67,1.145,-0.302,167.297,94.299,0.366,1
3.044731,0.618,1.124,-0.297,164.062,93.505,-2.38,1
3.051513,0.631,1.22,-0.331,168.457,95.031,-7.324,1
3.059208,0.528,1.225,-0.375,176.574,90.148,-11.84,1
3.066412,0.444,1.215,-0.349,183.959,91.552,-14.221,1
3.075262,0.405,1.178,-0.434,179.077,90.209,-17.456,1
3.081902,0.342,1.131,-0.438,160.4,89.904,-20.935,1
3.09058,0.345,1.093,-0.456,141.906,90.82,-23.132,1
3.097717,0.36,1.073,-0.473,117.309,91.735,-26.245,1
3.105926,0.402,1.074,-0.478,99.304,93.017,-29.174,1
3.112479,0.453,1.076,-0.491,87.89,91.857,-33.142,1
3.120883,0.481,1.075,-0.487,86.791,90.759,-36.071,1
3.129784,0.52,1.068,-0.475,91.979,88.989,-39.428,1
3.136358,0.516,1.042,-0.456,99.426,87.707,-42.785,1
3.144764,0.518,0.998,-0.437,105.651,87.463,-45.654,1
3.151683,0.525,0.955,-0.425,106.384,87.707,-48.706,1
3.158826,0.513,0.905,-0.424,97.839,90.026,-51.574,1
3.167154,0.491,0.867,-0.449,77.392,92.529,-54.504,1
3.174021,0.489,0.84,-0.462,51.635,94.97,-57.8,1
3.18223,0.529,0.837,-0.473,31.738,96.74,-60.485,1
3.189397,0.541,0.85,-0.473,24.536,96.313,-62.805,1
3.198101,0.6,0.863,-0.465,32.958,94.055,-64.575,1
3.204429,0.613,0.872,-0.446,53.649,90.82,-66.101,1
3.212694,0.635,0.853,-0.43,78.735,88.134,-67.443,1
3.221391,0.629,0.813,-0.406,100.83,86.364,-68.237,1
3.22834,0.652,0.778,-0.409,112.243,86.059,-68.664,1
3.235071,0.653,0.742,-0.409,109.863,86.669,-69.152,1
3.243352,0.658,0.729,-0.406,99.609,88.5,-69.274,1
3.25165,0.65,0.722,-0.427,81.176,91.125,-69.885,1
3.258663,0.633,0.72,-0.433,62.744,92.59,-71.044,1
3.26762,0.619,0.718,-0.443,49.865,94.238,-71.838,1
3.274615,0.604,0.724,-0.448,45.227,94.116,-73.181,1
3.281784,0.589,0.728,-0.43,55.725,93.444,-74.34,1
3.289986,0.574,0.723,-0.41,77.697,91.979,-75.622,1
3.298698,0.565,0.715,-0.381,107.666,90.637,-76.354,1
3.305425,0.574,0.676,-0.364,133.3,90.942,-76.721,1
3.312438,0.562,0.624,-0.369,142.272,91.674,-77.148,1
3.320396,0.546,0.58,-0.358,136.413,95.336,-76.721,1
3.328664,0.546,0.561,-0.36,120.056,99.426,-76.354,1
3.335053,0.541,0.551,-0.367,97.595,103.088,-76.477,1
3.34331,0.53,0.551,-0.384,72.692,106.811,-76.721,1
3.350389,0.533,0.568,-0.399,52.734,109.069,-77.697,1
3.358717,0.57,0.585,-0.406,44.006,110.046,-78.43,1
3.365801,0.517,0.604,-0.411,46.386,110.595,-78.674,1
3.373754,0.463,0.62,-0.452,55.175,109.374,-78.918,1
3.381435,0.493,0.611,-0.459,67.871,108.398,-79.284,1
3.388333,0.504,0.607,-0.465,83.923,107.299,-79.345,1
3.396541,0.487,0.609,-0.483,97.534,107.299,-79.162,1
3.403409,0.453,0.597,-0.516,105.407,106.201,-78.979,1
3.410688,0.422,0.579,-0.528,108.642,106.689,-78.552,1
3.418596,0.408,0.576,-0.56,107.116,107.299,-78.063,1
3.426769,0.396,0.577,-0.585,105.224,107.543,-78.125,1
3.435201,0.365,0.583,-0.604,105.102,107.299,-77.636,1
3.442031,0.359,0.599,-0.626,107.299,106.994,-76.904,1
3.450724,0.364,0.623,-0.66,109.191,106.323,-76.599,1
3.457299,0.333,0.638,-0.687,108.459,105.285,-76.66,1
3.466048,0.32,0.659,-0.705,106.994,104.553,-76.599,1
3.472841,0.291,0.671,-0.708,107.604,103.454,-77.148,1
3.481571,0.284,0.676,-0.708,114.379,101.806,-77.392,1
3.488326,0.278,0.678,-0.692,128.784,99.548,-77.27,1
3.496633,0.308,0.658,-0.689,148.742,98.022,-77.026,1
3.503308,0.309,0.645,-0.693,167.114,96.74,-75.744,1
3.511525,0.314,0.622,-0.713,169.433,96.74,-74.829,1
3.519915,0.327,0.626,-0.7,160.095,97.595,-74.096,1
3.526598,0.335,0.629,-0.684,147.888,99.243,-73.547,1
3.534803,0.318,0.64,-0.662,138.427,99.731,-73.364,1
3.541427,0.299,0.636,-0.614,137.573,100.402,-73.547,1
3.549831,0.289,0.615,-0.564,145.812,99.853,-73.303,1
3.556595,0.282,0.572,-0.495,161.315,99.609,-72.509,1
3.565475,0.282,0.518,-0.437,178.71,100.463,-70.861,1
3.572316,0.306,0.489,-0.423,186.34,103.637,-68.542,1
3.579373,0.316,0.458,-0.446,171.325,107.299,-67.077,1
3.5868,0.357,0.486,-0.531,136.535,116.882,-64.575,1
3.594733,0.566,0.698,-0.951,81.237,130.31,-64.636,1
3.601399,0.699,0.636,-1.217,1.831,124.572,-72.143,1
3.60983,0.51,0.473,-0.962,-50.659,130.371,-75.622,1
3.616081,0.353,0.435,-0.937,-88.439,140.136,-78.491,1
3.624504,0.192,0.631,-0.921,-97.473,133.789,-83.496,1
3.631086,0.179,0.78,-0.68,-67.626,131.042,-87.219,1
3.639331,0.28,0.87,-0.588,-16.296,125.122,-89.965,1
3.64638,0.328,0.925,-0.544,49.621,120.056,-92.163,1
3.654127,0.323,0.931,-0.618,113.281,115.112,-92.956,1
3.662805,0.272,0.857,-0.724,160.461,111.389,-92.773,1
3.669834,0.21,0.733,-0.842,179.321,111.694,-92.59,1
3.677762,0.153,0.627,-0.973,169.25,113.586,-92.224,1
3.685768,0.107,0.549,-1.045,140.197,115.478,-92.224,1
3.694135,0.055,0.524,-1.061,98.083,118.53,-92.59,1
3.700736,0.038,0.529,-1.062,66.711,120.605,-93.444,1
3.709468,0.036,0.558,-1.07,47.729,121.032,-94.787,1
3.716222,0.054,0.584,-1.09,43.701,119.262,-96.313,1
3.724629,0.055,0.591,-1.122,52.124,116.21,-97.778,1
3.731204,0.046,0.572,-1.178,70.068,111.755,-98.693,1
3.73986,0.033,0.566,-1.2,90.27,107.238,-99.304,1
3.746701,0.056,0.558,-1.219,112.243,102.355,-99.121,1
3.754612,0.059,0.563,-1.228,132.568,97.839,-97.9,1
3.761428,0.069,0.584,-1.234,150.207,93.994,-96.313,1
3.769785,0.094,0.615,-1.258,162.658,90.576,-94.665,1
3.778232,0.086,0.625,-1.285,171.081,87.524,-93.078,1
3.786559,0.11,0.599,-1.313,177.307,83.984,-90.698,1
3.793849,0.168,0.637,-1.331,180.603,80.505,-89.538,1
3.801155,0.213,0.631,-1.324,181.518,77.941,-88.867,1
3.809793,0.244,0.612,-1.303,178.527,77.026,-87.951,1
3.816771,0.265,0.624,-1.327,173.461,76.66,-86.73,1
3.825092,0.271,0.615,-1.341,160.217,74.707,-85.754,1
3.833317,0.246,0.644,-1.357,142.15,74.34,-84.472,1
3.840423,0.221,0.668,-1.372,119.628,72.998,-83.984,1
3.849015,0.215,0.696,-1.368,97.778,71.96,-83.74,1
3.856115,0.202,0.742,-1.35,79.772,70.129,-84.045,1
3.863015,0.225,0.777,-1.328,67.199,68.054,-84.838,1
3.871794,0.272,0.817,-1.294,60.852,65.917,-85.937,1
3.878714,0.317,0.865,-1.281,57.922,63.537,-87.585,1
3.887528,0.354,0.911,-1.271,56.152,61.035,-89.66,1
3.894123,0.375,0.925,-1.251,52.429,58.654,-91.735,1
3.902361,0.391,0.934,-1.247,47.485,56.823,-93.505,1
3.911106,0.403,0.936,-1.238,39.978,54.809,-95.52,1
3.917689,0.392,0.927,-1.22,31.86,52.734,-97.412,1
3.926025,0.376,0.908,-1.206,23.62,50.476,-99.67,1
3.933147,0.369,0.896,-1.18,19.714,48.645,-101.684,1
3.941313,0.37,0.891,-1.159,20.446,45.959,-103.515,1
3.949632,0.377,0.879,-1.133,25.207,44.128,-105.468,1
3.956286,0.375,0.872,-1.116,30.395,42.236,-107.421,1
3.965052,0.367,0.858,-1.098,32.775,40.954,-108.703,1
3.97343,0.372,0.848,-1.071,29.785,40.161,-110.656,1
3.980062,0.385,0.843,-1.042,24.047,39.733,-112.792,1
3.988221,0.427,0.822,-1.016,17.211,40.161,-114.929,1
3.994854,0.472,0.791,-1.006,7.568,41.076,-116.577,1
4.003268,0.532,0.756,-0.995,-6.103,41.442,-117.431,1
4.010552,0.579,0.729,-0.995,-25.512,42.297,-118.286,1
4.018934,0.593,0.734,-0.959,-41.137,43.334,-118.652,1
4.027723,0.602,0.796,-0.938,-49.011,43.884,-119.689,1
4.035219,0.665,0.794,-0.91,-48.95,45.654,-120.544,1
4.044208,0.717,0.752,-0.924,-51.513,46.447,-120.239,1
4.052603,0.742,0.71,-0.952,-57.739,47.668,-119.689,1
4.059716,0.737,0.672,-0.971,-68.42,47.79,-119.812,1
4.067582,0.689,0.628,-0.953,-82.397,48.645,-120.422,1
4.075836,0.628,0.579,-0.937,-89.66,48.889,-120.605,1
4.083038,0.584,0.53,-0.894,-87.28,48.889,-120.239,1
4.09141,0.565,0.47,-0.858,-74.401,48.583,-119.384,1
4.099368,0.549,0.418,-0.829,-59.57,48.339,-118.408,1
4.108308,0.568,0.372,-0.813,-45.837,48.583,-117.675,1
4.116554,0.554,0.337,-0.79,-32.409,47.973,-117.126,1
4.122974,0.524,0.314,-0.761,-17.944,48.522,-115.417,1
4.131339,0.544,0.285,-0.777,-4.882,47.485,-113.769,1
4.139642,0.536,0.264,-0.774,4.821,47.058,-113.037,1
4.146241,0.491,0.254,-0.78,12.329,46.02,-112.792,1
4.154645,0.441,0.255,-0.79,18.493,45.104,-112.792,1
4.162588,0.426,0.256,-0.8,23.559,43.273,-113.159,1
4.170949,0.452,0.246,-0.826,23.254,41.625,-113.891,1
4.178921,0.363,0.265,-0.851,21.85,39.306,-115.783,1
4.185568,0.192,0.277,-0.851,23.925,36.376,-116.394,1
4.192472,0.108,0.263,-0.845,31.982,33.874,-115.661,1
4.200431,0.033,0.284,-0.879,43.884,30.944,-114.746,1
4.207341,0.071,0.333,-0.937,58.837,25.756,-115.234,1
4.215235,0.141,0.403,-0.952,86.486,19.958,-116.638,1
4.222085,0.168,0.476,-0.946,130.981,13.122,-118.835,1
4.230855,0.146,0.579,-0.959,177.612,8.789,-120.056,1
4.23742,0.14,0.659,-1.009,234.558,1.464,-121.276,1
4.245473,0.155,0.761,-1.009,283.264,-3.051,-122.497,1
4.252162,0.173,0.791,-1.038,306.03,-4.394,-123.962,1
4.260514,0.294,0.762,-1.057,292.236,-2.99,-125.671,1
4.267118,0.423,0.701,-1.049,249.084,0.061,-126.403,1
4.275291,0.498,0.682,-1.013,199.707,2.685,-126.403,1
4.282319,0.511,0.707,-0.945,166.564,3.906,-126.281,1
4.29025,0.494,0.769,-0.899,155.822,2.99,-126.037,1
4.297243,0.567,0.786,-0.828,164.123,0.427,-126.708,1
4.305757,0.536,0.798,-0.824,177.612,0.427,-126.464,1
4.312755,0.566,0.762,-0.846,183.288,-1.953,-126.159,1
4.321322,0.592,0.754,-0.822,175.537,-0.183,-125.854,1
4.329669,0.591,0.758,-0.848,153.32,1.159,-125.915,1
4.336528,0.588,0.774,-0.836,120.483,3.967,-126.037,1
4.344729,0.532,0.799,-0.825,86.181,5.859,-126.77,1
4.35148,0.431,0.84,-0.759,59.265,6.652,-128.54,1
4.359369,0.339,0.862,-0.701,54.382,5.859,-130.187,1
4.367712,0.305,0.895,-0.64,67.199,4.882,-132.019,1
4.37545,0.249,0.896,-0.592,87.341,2.563,-133.972,1
4.382518,0.121,0.86,-0.502,105.346,1.953,-135.253,1
4.39048,0.017,0.822,-0.416,119.079,3.295,-136.23,1
4.397564,-0.006,0.762,-0.327,120.91,5.737,-137.878,1
4.405477,-0.097,0.73,-0.252,111.45,10.864,-138.732,1
4.412509,-0.209,0.729,-0.166,101.501,15.014,-139.709,1
4.420925,-0.062,0.741,-0.096,96.374,20.019,-140.502,1
4.427963,0.013,0.738,0.014,90.148,26.977,-140.869,1
4.435173,-0.083,0.673,0.055,80.017,37.902,-141.845,1
4.442229,-0.293,0.604,0.088,60.607,46.63,-142.395,1
4.449203,-0.391,0.537,0.115,28.259,59.631,-143.127,1
4.456294,-0.409,0.381,0.129,-14.526,72.265,-143.92,1
4.464182,-0.496,0.292,0.143,-58.776,86.547,-144.226,1
4.471069,-0.572,0.248,0.149,-93.261,98.144,-144.165,1
4.479499,-0.476,0.187,0.165,-107.36,108.642,-144.714,1
4.486481,-0.504,0.145,0.113,-116.088,117.492,-144.409,1
4.493362,-0.568,0.097,0.117,-115.234,125.427,-144.287,1
4.500342,-0.598,0.021,0.085,-107.482,132.751,-144.042,1
4.508819,-0.613,-0.071,0.061,-98.571,138.671,-142.395,1
4.515332,-0.6,-0.156,0.04,-87.463,144.897,-140.319,1
4.523601,-0.635,-0.231,-0.004,-77.88,148.498,-137.512,1
4.530269,-0.617,-0.295,-0.044,-63.659,152.587,-132.934,1
4.538107,-0.49,-0.354,-0.035,-45.043,155.273,-128.295,1
4.546878,-0.56,-0.416,-0.083,-15.197,158.935,-121.52,1
4.553866,-0.635,-0.474,-0.127,16.54,159.484,-113.525,1
4.561207,-0.649,-0.523,-0.158,44.433,161.56,-103.82,1
4.568147,-0.663,-0.592,-0.215,61.584,164.001,-94.36,1
4.575459,-0.731,-0.676,-0.27,60.729,169.433,-83.557,1
4.583531,-0.794,-0.766,-0.364,37.048,175.72,-72.448,1
4.591308,-0.837,-0.827,-0.437,1.647,183.227,-61.035,1
4.599818,-0.95,-0.858,-0.507,-36.193,190.856,-49.926,1
4.608815,-1.068,-0.88,-0.57,-74.646,199.34,-37.536,1
4.615538,-1.128,-0.901,-0.646,-98.022,204.284,-27.77,1
4.623614,-1.064,-0.928,-0.717,-107.482,206.237,-19.104,1
4.631162,-1.069,-0.968,-0.78,-99.609,206.848,-8.178,1
4.63896,-1.069,-1.018,-0.853,-88.684,205.444,1.525,1
4.647432,-1.046,-1.1,-0.916,-85.693,204.223,12.084,1
4.655473,-1.155,-1.176,-1.004,-94.909,204.711,22.949,1
4.663707,-1.257,-1.226,-1.093,-114.624,205.017,36.132,1
4.671594,-1.295,-1.251,-1.219,-125.854,204.223,48.034,1
4.679967,-1.312,-1.269,-1.309,-116.821,201.11,62.255,1
4.688653,-1.358,-1.289,-1.426,-87.707,194.702,75.073,1
4.696566,-1.52,-1.432,-1.577,-43.762,186.34,90.82,1
4.705374,-1.567,-1.641,-1.791,-3.051,177.917,106.933,1
4.711993,-1.669,-2.024,-2.087,23.254,165.649,129.577,1
4.720326,-1.694,-2.29,-2.286,29.541,154.907,152.038,1
4.727039,-1.689,-2.491,-2.45,30.151,143.554,176.696,1
4.737133,-1.709,-2.616,-2.59,23.681,130.249,203.491,1
4.745495,-1.953,-2.63,-2.673,-1.22,116.394,236.083,1
4.752549,-2.067,-2.491,-2.684,-29.541,104.98,262.939,1
4.761284,-2.367,-2.176,-2.638,-55.908,90.881,292.053,1
4.768146,-2.699,-1.925,-2.584,-55.236,79.589,314.575,1
4.776143,-3.04,-1.749,-2.61,-31.249,64.331,335.571,1
4.78491,-3.323,-1.672,-2.651,21.24,45.959,356.628,1
4.79134,-3.607,-1.749,-2.849,80.383,21.667,379.394,1
4.800001,-3.803,-1.859,-3.016,123.291,-8.605,408.691,1
4.808859,-4.03,-1.926,-3.21,128.845,-36.315,434.936,1
4.815446,-4.386,-1.919,-3.358,113.159,-63.72,463.317,1
4.823731,-4.853,-1.813,-3.47,80.627,-94.726,496.643,1
4.832067,-5.478,-1.627,-3.528,48.034,-122.192,524.414,1
4.840804,-6.28,-1.375,-3.54,19.836,-148.01,550.537,1
4.849549,-6.906,-1.198,-3.548,5.432,-179.138,580.017,1
4.857511,-7.6,-0.956,-3.546,31.249,-216.552,607.543,1
4.86456,-8.237,-0.774,-3.514,75.256,-255.554,628.418,1
4.872958,-8.998,-0.61,-3.437,128.173,-306.823,648.254,1
4.881671,-9.705,-0.504,-3.298,170.898,-355.651,662.536,1
4.888768,-10.438,-0.369,-3.096,210.083,-406.494,674.194,1
4.897367,-11.427,-0.154,-2.803,247.131,-468.444,683.227,1
4.904328,-12.359,0.074,-2.514,270.874,-521.972,686.096,1
4.912136,-13.251,0.315,-2.189,295.471,-576.232,683.349,1
4.919225,-14.138,0.544,-1.829,323.852,-631.897,675.231,1
4.927412,-14.925,0.743,-1.457,356.14,-687.683,660.156,1
4.936092,-15.805,0.93,-1.115,377.075,-742.004,638.61,1
4.942636,-15.998,1.098,-0.712,390.686,-791.931,610.717,1
4.951082,-15.999,1.335,-0.253,402.709,-837.097,576.904,1
4.95813,-15.999,1.51,0.069,422.119,-887.084,530.456,1
4.967004,-15.999,1.666,0.304,441.894,-926.696,484.008,1
4.973612,-15.999,1.778,0.528,467.651,-965.087,430.908,1
4.98112,-15.999,1.84,0.732,491.271,-992.37,383.056,1
4.988599,-15.999,2.005,0.875,512.695,-1025.756,318.298,1
4.995353,-15.999,2.154,1.145,537.841,-1047.058,249.816,1
5.003442,-15.999,2.162,1.354,559.326,-1072.876,174.194,1
5.010166,-15.999,2.089,1.615,583.251,-1081.298,96.557,1
5.017995,-15.999,1.989,1.726,623.962,-1090.271,13.305,1
5.026291,-15.999,1.731,1.895,626.647,-1082.946,-71.228,1
5.034148,-15.999,1.37,1.947,554.26,-1062.561,-149.658,1
5.042564,-15.999,1.325,2.061,441.162,-1040.344,-209.594,1
5.049123,-15.999,1.401,2.555,301.696,-1006.896,-257.141,1
5.057358,-15.999,1.592,2.567,231.994,-978.698,-285.4,1
5.065715,-15.999,1.756,2.647,247.436,-954.65,-311.462,1
5.072266,-15.999,1.762,2.53,301.818,-926.818,-342.895,1
5.08067,-15.999,1.68,2.413,344.787,-898.376,-380.371,1
5.087853,-15.999,1.548,2.344,374.694,-865.356,-419.799,1
5.096282,-15.999,1.341,2.326,413.391,-829.528,-458.862,1
5.104528,-15.768,1.096,2.295,464.172,-782.226,-501.647,1
5.112659,-14.754,0.912,2.166,514.77,-735.107,-535.949,1
5.119399,-13.842,0.717,1.977,553.405,-685.852,-569.946,1
5.127337,-13.031,0.538,1.807,569.763,-628.356,-600.891,1
5.135978,-12.312,0.348,1.626,556.091,-568.664,-628.112,1
5.143563,-11.764,0.125,1.497,511.352,-506.591,-648.132,1
5.150587,-11.179,-0.032,1.368,431.518,-447.326,-659.606,1
5.157394,-10.654,-0.124,1.323,347.412,-396.118,-662.902,1
5.167078,-10.223,-0.229,1.26,280.212,-353.942,-658.447,1
5.174168,-9.646,-0.31,1.324,237.487,-310.974,-646.179,1
5.182619,-8.982,-0.474,1.295,222.656,-280.883,-633.056,1
5.189586,-8.392,-0.571,1.377,226.379,-254.638,-618.286,1
5.197858,-7.85,-0.69,1.369,253.906,-223.754,-600.097,1
5.206087,-7.318,-0.839,1.356,272.216,-198.73,-581.298,1
5.214388,-6.42,-0.952,1.256,282.409,-165.222,-564.147,1
5.222604,-5.969,-1.091,1.271,274.719,-141.784,-548.522,1
5.229292,-5.554,-1.197,1.222,260.742,-113.464,-528.747,1
5.237965,-5.157,-1.212,1.18,245.422,-92.712,-508.3,1
5.246405,-4.797,-1.278,1.203,243.652,-66.528,-480.773,1
5.253465,-4.577,-1.295,1.201,250.732,-47.912,-455.81,1
5.261213,-4.219,-1.397,1.257,245.666,-29.357,-426.269,1
5.26954,-3.866,-1.355,1.051,253.173,-10.009,-402.893,1
5.277796,-3.559,-1.407,1.188,263.061,6.469,-374.572,1
5.284772,-3.227,-1.392,1.047,267.944,25.695,-341.552,1
5.293179,-2.932,-1.382,1.088,268.798,41.748,-313.537,1
5.300199,-2.594,-1.365,0.987,286.376,54.443,-285.217,1
5.308783,-2.339,-1.365,0.989,298.156,66.955,-257.019,1
5.31745,-2.043,-1.345,0.875,298.156,80.139,-224.67,1
5.32401,-1.881,-1.29,0.876,292.175,90.759,-198.486,1
5.332265,-1.759,-1.206,0.803,275.695,100.769,-173.522,1
5.339372,-1.512,-1.082,0.822,275.39,105.895,-149.658,1
5.347817,-1.384,-0.996,0.792,282.531,111.755,-125.671,1
5.356099,-1.371,-0.894,0.805,279.052,115.173,-98.51,1
5.364736,-1.365,-0.793,0.826,270.507,119.628,-76.416,1
5.371735,-1.355,-0.691,0.848,259.338,122.497,-55.786,1
5.379914,-1.325,-0.595,0.862,244.506,127.197,-34.24,1
5.388299,-1.291,-0.507,0.892,231.811,128.784,-16.479,1
5.395186,-1.236,-0.42,0.892,223.022,131.774,2.502,1
5.403551,-1.221,-0.37,0.9,214.904,132.568,14.892,1
5.412271,-1.166,-0.315,0.892,202.087,135.498,28.137,1
5.419518,-1.122,-0.264,0.888,179.992,136.413,41.992,1
5.427609,-1.041,-0.209,0.888,159.484,139.709,53.344,1
5.436483,-0.961,-0.17,0.869,143.066,140.258,60.974,1
5.443535,-0.865,-0.134,0.875,129.76,141.784,68.542,1
5.451921,-0.792,-0.088,0.873,120.483,141.662,74.646,1
5.458506,-0.779,-0.034,0.895,120.056,141.845,80.749,1
5.466738,-0.771,0.016,0.894,125.61,140.258,85.693,1
5.473335,-0.771,0.058,0.904,133.056,139.16,90.515,1
5.481636,-0.731,0.078,0.895,138.488,137.939,95.153,1
5.490229,-0.669,0.086,0.893,136.962,137.207,98.51,1
5.498638,-0.622,0.102,0.874,123.779,138.366,102.111,1
5.505736,-0.612,0.128,0.865,106.018,139.465,103.393,1
5.512632,-0.57,0.152,0.847,89.965,141.479,103.21,1
5.519841,-0.516,0.165,0.829,77.392,143.005,102.355,1
5.528898,-0.463,0.179,0.809,67.382,143.737,100.585,1
5.535804,-0.414,0.197,0.779,60.363,144.042,98.205,1
5.544346,-0.378,0.198,0.746,58.471,143.554,95.947,1
5.551269,-0.344,0.199,0.701,63.11,141.357,92.895,1
5.558277,-0.23,0.185,0.682,68.115,138.549,90.881,1
5.566498,-0.151,0.161,0.653,76.599,136.108,88.439,1
5.574748,-0.058,0.131,0.618,84.228,132.751,85.693,1
5.581728,0.053,0.089,0.58,91.369,128.906,82.458,1
5.588744,0.198,0.043,0.552,90.942,124.694,79.528,1
5.596895,0.334,0.018,0.535,86.669,121.276,77.27,1
5.603988,0.465,0.011,0.523,84.106,116.577,74.584,1
5.611826,0.576,0.014,0.527,89.782,111.389,71.655,1
5.61874,0.682,0.017,0.513,99.853,106.079,69.458,1
5.626543,0.748,0.015,0.517,116.21,99.243,66.223,1
5.634816,0.823,0.008,0.522,134.704,92.224,63.415,1
5.643338,0.895,-0.008,0.528,152.893,85.449,60.302,1
5.65035,0.949,-0.045,0.531,163.146,80.261,56.945,1
5.657964,1.036,-0.083,0.525,160.766,76.904,54.199,1
5.664837,1.076,-0.121,0.52,148.925,74.829,52.185,1
5.673517,1.064,-0.125,0.517,134.338,73.852,50.476,1
5.682373,1.145,-0.109,0.511,124.633,72.753,49.011,1
5.689228,1.087,-0.068,0.508,112.915,72.204,47.241,1
5.695809,1.047,-0.027,0.485,106.567,70.922,45.654,1
5.703956,0.969,0.016,0.465,100.708,69.58,43.762,1
5.71094,0.847,0.045,0.443,96.13,67.382,41.931,1
5.717893,0.763,0.081,0.434,96.862,62.927,39.978,1
5.726178,0.702,0.123,0.429,105.529,58.349,38.574,1
5.733104,0.662,0.161,0.423,124.145,52.246,37.109,1
5.73994,0.664,0.169,0.416,147.033,47.79,35.461,1
5.748416,0.71,0.155,0.383,175.842,41.625,34.606,1
5.755575,0.752,0.113,0.368,197.631,36.56,33.813,1
5.763315,0.776,0.059,0.339,206.848,33.081,33.752,1
5.771587,0.771,0.031,0.327,201.66,31.066,33.752,1
5.778305,0.79,0.02,0.324,189.819,30.761,34.484,1
5.786976,0.814,0.023,0.327,175.598,30.029,34.912,1
5.794374,0.803,0.055,0.345,167.175,29.235,35.705,1
5.801295,0.753,0.091,0.352,164.672,26.794,36.071,1
5.80958,0.696,0.117,0.362,169.189,24.475,36.621,1
5.816493,0.679,0.132,0.361,178.039,21.301,36.865,1
5.824767,0.653,0.125,0.362,187.438,17.395,37.17,1
5.831352,0.623,0.111,0.357,194.335,14.892,37.658,1
5.839832,0.607,0.089,0.342,195.922,12.634,37.78,1
5.845972,0.606,0.055,0.333,191.528,11.291,38.452,1
5.854307,0.639,0.025,0.326,182.373,10.864,39.306,1
5.862547,0.667,-0.001,0.326,169.25,11.596,40.283,1
5.869536,0.685,-0.023,0.325,154.541,13.671,41.381,1
5.876295,0.657,-0.032,0.325,139.77,15.502,42.358,1
5.883345,0.649,-0.048,0.317,128.295,16.784,43.09,1
5.890871,0.693,-0.057,0.318,120.91,16.296,43.945,1
5.897781,0.736,-0.058,0.325,120.361,15.258,44.677,1
5.904848,0.785,-0.046,0.332,127.38,12.939,45.471,1
5.912845,0.8,-0.045,0.33,142.15,9.765,46.264,1
5.919979,0.833,-0.054,0.331,155.7,6.469,47.058,1
5.92644,0.88,-0.071,0.341,169.799,2.99,47.546,1
5.933537,0.895,-0.079,0.351,177.856,0.854,48.522,1
5.940579,0.873,-0.091,0.357,182.434,-0.671,49.499,1
5.948343,0.83,-0.104,0.37,182.739,-0.671,50.231,1
5.955513,0.791,-0.122,0.371,178.466,-0.427,50.476,1
5.963778,0.765,-0.144,0.378,172.973,0.671,50.842,1
5.970939,0.756,-0.155,0.369,165.283,1.77,51.025,1
5.977587,0.748,-0.168,0.37,159.118,2.868,50.964,1
5.984303,0.727,-0.178,0.361,156.982,3.601,51.086,1
5.99124,0.74,-0.192,0.348,158.996,4.211,51.086,1
5.998331,0.834,-0.217,0.338,162.719,3.601,51.635,1
6.006402,0.969,-0.248,0.356,163.574,3.54,52.795,1
6.013071,1.015,-0.259,0.357,161.071,4.15,54.504,1
6.019511,1.082,-0.231,0.374,158.325,3.784,56.213,1
6.027377,1.073,-0.206,0.375,157.958,3.54,57.067,1
6.03605,0.994,-0.175,0.38,158.325,2.502,57.739,1
6.043199,0.928,-0.148,0.384,157.897,2.014,58.349,1
6.050299,0.869,-0.116,0.387,156.982,0.854,58.532,1
6.057248,0.832,-0.108,0.407,157.104,2.685,57.922,1
6.065723,0.825,-0.118,0.393,152.954,4.15,56.884,1
6.073513,0.821,-0.131,0.392,143.188,7.202,56.152,1
6.080533,0.826,-0.138,0.38,130.126,10.437,54.931,1
6.088917,0.781,-0.148,0.391,118.286,14.282,53.588,1
6.095291,0.77,-0.171,0.373,109.68,18.31,52.856,1
6.102583,0.796,-0.198,0.38,102.905,21.789,52.062,1
6.110555,0.862,-0.224,0.368,99.487,24.902,52.124,1
6.117204,0.912,-0.234,0.365,101.745,25.878,52.307,1
6.124925,0.934,-0.228,0.363,114.135,26.489,52.429,1
6.132649,0.941,-0.229,0.352,132.08,25.39,52.734,1
6.13911,0.979,-0.241,0.352,162.841,23.681,53.588,1
6.146191,1.007,-0.277,0.315,192.138,20.751,54.687,1
6.154152,1.02,-0.34,0.289,202.026,18.432,55.908,1
6.160891,1.061,-0.396,0.273,191.772,17.7,57.8,1
6.16943,1.139,-0.434,0.268,167.968,19.653,59.814,1
6.176016,1.199,-0.428,0.271,141.052,22.399,62.255,1
6.183308,1.255,-0.396,0.27,116.76,25.146,64.453,1
6.191416,1.265,-0.356,0.268,99.182,27.465,66.223,1
6.198261,1.251,-0.3,0.271,89.965,28.259,68.298,1
6.20697,1.224,-0.232,0.286,87.89,28.32,69.519,1
6.213982,1.197,-0.166,0.295,91.308,27.77,70.434,1
6.221386,1.159,-0.093,0.309,97.534,26.977,71.228,1
6.230239,1.125,-0.042,0.331,101.806,26.489,71.533,1
6.236309,1.083,0.008,0.348,101.562,26.611,71.35,1
6.244536,1.042,0.045,0.363,98.754,26.977,71.105,1
6.251425,0.986,0.119,0.403,93.383,27.282,70.739,1
6.259681,0.951,0.169,0.432,90.454,28.625,69.946,1
6.266539,0.933,0.218,0.448,87.28,29.602,69.152,1
6.273668,0.94,0.279,0.464,82.397,31.677,67.687,1
6.282552,0.929,0.324,0.479,77.88,33.447,66.711,1
6.289559,0.89,0.383,0.487,72.937,36.499,65.002,1
6.296596,0.844,0.432,0.49,70.739,38.452,62.744,1
6.305329,0.822,0.458,0.492,68.542,41.625,60.119,1
6.312013,0.794,0.485,0.489,66.772,44.372,57.556,1
6.319047,0.785,0.513,0.482,66.955,47.546,54.87,1
6.325917,0.778,0.529,0.475,68.908,50.537,51.94,1
6.332858,0.759,0.538,0.469,70.251,54.077,49.255,1
6.340593,0.759,0.543,0.445,70.007,56.396,47.18,1
6.34894,0.778,0.543,0.42,68.176,59.753,44.372,1
6.355542,0.799,0.531,0.391,64.453,63.049,42.053,1
6.361918,0.824,0.516,0.369,60.485,65.673,40.405,1
6.370679,0.818,0.506,0.348,56.884,68.969,38.269,1
6.37717,0.783,0.493,0.332,54.26,71.472,36.132,1
6.384103,0.765,0.477,0.316,55.847,75.195,33.691,1
6.391343,0.774,0.457,0.291,58.654,76.477,32.043,1
6.398934,0.78,0.437,0.274,64.453,79.162,30.395,1
6.405871,0.797,0.416,0.244,71.838,81.176,28.686,1
6.41353,0.786,0.403,0.23,81.97,83.007,27.343,1
6.421803,0.769,0.39,0.199,90.881,84.594,25.939,1
6.428803,0.742,0.369,0.169,102.05,86.364,24.414,1
6.435889,0.693,0.337,0.135,110.168,88.562,23.376,1
6.444063,0.675,0.309,0.086,113.769,90.942,22.766,1
6.450636,0.64,0.291,0.049,111.206,93.933,21.728,1
6.458579,0.607,0.266,0.001,106.811,95.581,20.996,1
6.465674,0.589,0.247,-0.028,102.416,97.595,20.69,1
6.472703,0.551,0.248,-0.062,106.689,98.693,20.935,1
6.479562,0.614,0.251,-0.082,119.445,98.999,21.911,1
6.48826,0.603,0.243,-0.122,128.417,98.999,22.216,1
6.49486,0.621,0.231,-0.148,137.207,97.717,22.949,1
6.50158,0.635,0.216,-0.173,143.249,96.618,24.108,1
6.508406,0.655,0.211,-0.187,147.705,94.97,26.184,1
6.515135,0.681,0.203,-0.195,150.939,93.811,28.259,1
6.52304,0.695,0.204,-0.209,151.55,92.712,29.968,1
6.53016,0.712,0.204,-0.198,150.146,91.735,32.226,1
6.53889,0.732,0.211,-0.204,148.193,91.369,34.362,1
6.545638,0.75,0.218,-0.193,148.315,90.698,35.766,1
6.55254,0.778,0.217,-0.193,151.245,90.576,38.085,1
6.559545,0.756,0.229,-0.205,152.832,89.66,39.916,1
6.567501,0.728,0.253,-0.211,153.503,89.782,41.503,1
6.574362,0.696,0.274,-0.228,152.099,89.111,42.724,1
6.5826,0.686,0.295,-0.229,150.085,88.5,44.25,1
6.588867,0.673,0.319,-0.237,146.301,87.768,45.349,1
6.597752,0.693,0.336,-0.226,145.507,87.036,46.508,1
6.604689,0.683,0.365,-0.237,144.226,86.914,47.607,1
6.611535,0.667,0.381,-0.232,142.578,86.242,48.034,1
6.620274,0.653,0.41,-0.247,139.77,86.059,48.706,1
6.627007,0.618,0.44,-0.25,133.117,85.327,48.889,1
6.635657,0.647,0.461,-0.254,128.417,85.571,49.194,1
6.641842,0.639,0.516,-0.275,119.384,85.144,48.95,1
6.649736,0.626,0.57,-0.276,111.816,85.021,48.4,1
6.658038,0.651,0.631,-0.302,105.651,84.35,47.607,1
6.665066,0.686,0.704,-0.291,103.698,84.411,45.959,1
6.672146,0.729,0.752,-0.294,109.619,83.984,44.372,1
6.680033,0.721,0.808,-0.296,114.44,83.862,42.419,1
6.687026,0.724,0.85,-0.305,117.065,84.045,40.344,1
6.694905,0.737,0.87,-0.315,117.858,84.167,38.452,1
6.701297,0.73,0.882,-0.32,120.788,84.228,36.621,1
6.7091,0.726,0.91,-0.348,116.76,84.289,34.545,1
6.717353,0.758,0.931,-0.355,111.755,84.411,32.409,1
6.724115,0.766,0.959,-0.381,107.788,84.045,29.724,1
6.731006,0.77,0.99,-0.383,109.497,82.275,27.343,1
6.738247,0.784,1.02,-0.389,117.858,80.871,25.146,1
6.746118,0.77,1.043,-0.395,126.708,79.162,22.216,1
6.75316,0.751,1.042,-0.408,130.004,78.186,19.47,1
6.761861,0.729,1.048,-0.417,128.051,77.636,17.272,1
6.768514,0.694,1.065,-0.429,122.68,77.27,14.282,1
6.777207,0.666,1.077,-0.445,116.577,76.782,10.864,1
6.784115,0.665,1.081,-0.457,113.037,75.622,7.324,1
6.793141,0.663,1.076,-0.463,114.379,74.218,4.516,1
6.800083,0.656,1.063,-0.479,121.643,72.265,1.77,1
6.808739,0.6,1.074,-0.497,124.694,71.105,-0.61,1
6.815488,0.625,1.063,-0.493,127.136,69.824,-3.234,1
6.822513,0.647,1.032,-0.496,131.042,70.007,-5.187,1
6.830326,0.654,0.987,-0.493,132.69,70.068,-6.408,1
6.838738,0.657,0.936,-0.482,132.568,71.105,-7.263,1
6.845476,0.628,0.904,-0.479,126.953,72.509,-8.239,1
6.852637,0.626,0.87,-0.483,119.873,74.707,-8.789,1
6.860564,0.592,0.851,-0.504,107.299,76.293,-9.094,1
6.868862,0.568,0.85,-0.504,91.918,78.674,-9.765,1
6.875257,0.568,0.837,-0.526,72.631,81.359,-10.498,1
6.883511,0.561,0.836,-0.535,51.452,83.801,-10.986,1
6.890223,0.558,0.846,-0.533,33.996,86.364,-11.962,1
6.899009,0.534,0.858,-0.536,18.493,87.89,-13.366,1
6.905808,0.56,0.886,-0.525,12.695,88.562,-14.953,1
6.912226,0.576,0.906,-0.514,19.409,87.89,-16.906,1
6.920797,0.595,0.903,-0.516,34.118,86.791,-18.31,1
6.927751,0.602,0.898,-0.518,44.86,85.815,-19.348,1
6.934758,0.601,0.882,-0.527,49.743,85.51,-20.507,1
6.94337,0.599,0.868,-0.531,45.776,85.754,-21.545,1
6.950201,0.609,0.872,-0.529,37.048,86.608,-23.01,1
6.958055,0.633,0.887,-0.522,30.212,87.524,-24.169,1
6.965021,0.658,0.907,-0.521,28.747,87.463,-25.207,1
6.973228,0.674,0.924,-0.517,31.188,87.768,-26.672,1
6.980335,0.664,0.928,-0.512,32.714,87.402,-27.893,1
6.987936,0.646,0.925,-0.505,31.494,87.402,-29.052,1
6.996277,0.625,0.93,-0.492,28.381,87.524,-30.334,1
7.00445,0.608,0.932,-0.48,25.573,87.951,-31.799,1
7.010997,0.585,0.938,-0.469,23.01,88.195,-33.325,1
7.019819,0.571,0.956,-0.465,21.728,88.439,-35.034,1
7.026467,0.562,0.972,-0.465,20.812,88.684,-37.109,1
7.034378,0.552,0.984,-0.474,18.798,88.989,-39.123,1
7.041258,0.535,1.004,-0.478,16.54,89.355,-41.076,1
7.049495,0.546,1.014,-0.479,15.624,89.538,-43.09,1
7.056287,0.519,1.016,-0.485,16.723,89.782,-45.227,1
7.064371,0.5,1.012,-0.484,20.935,89.538,-47.546,1
7.071361,0.483,1.0,-0.485,27.404,89.477,-49.926,1
7.079324,0.458,0.979,-0.49,37.475,88.684,-51.879,1
7.087638,0.444,0.952,-0.491,48.583,89.233,-53.833,1
7.0942,0.428,0.901,-0.492,59.143,88.867,-55.297,1
7.102495,0.409,0.841,-0.475,69.946,89.416,-56.274,1
7.109484,0.402,0.781,-0.477,75.195,90.454,-56.274,1
7.118122,0.445,0.758,-0.473,68.969,93.627,-56.213,1
7.124176,0.379,0.746,-0.46,56.945,96.13,-56.579,1
7.132353,0.369,0.735,-0.453,44.311,99.609,-56.64,1
7.140801,0.348,0.729,-0.46,30.151,102.05,-56.457,1
7.14775,0.344,0.73,-0.459,19.226,104.919,-56.823,1
7.155985,0.337,0.72,-0.484,11.901,106.933,-57.495,1
7.162909,0.325,0.691,-0.5,8.483,108.581,-57.983,1
7.172143,0.339,0.678,-0.514,9.155,109.741,-58.349,1
7.179144,0.337,0.652,-0.521,13.488,110.717,-59.204,1
7.187608,0.345,0.612,-0.531,17.578,111.938,-58.837,1
7.194214,0.367,0.575,-0.532,17.211,113.464,-58.166,1
7.202509,0.392,0.559,-0.54,11.413,115.539,-57.373,1
7.209493,0.384,0.559,-0.543,2.99,117.675,-56.823,1
7.216369,0.357,0.57,-0.545,-7.812,120.117,-56.091,1
7.225217,0.331,0.592,-0.544,-16.296,122.07,-55.847,1
7.233569,0.323,0.601,-0.538,-19.714,123.291,-55.725,1
7.24225,0.301,0.604,-0.53,-19.714,124.694,-55.725,1
7.250583,0.273,0.587,-0.524,-17.089,125.793,-55.847,1
7.257101,0.261,0.563,-0.514,-13.854,126.892,-55.969,1
7.265326,0.246,0.53,-0.506,-9.643,128.051,-55.541,1
7.273614,0.258,0.497,-0.494,-9.765,130.004,-55.053,1
7.28066,0.24,0.479,-0.495,-18.127,132.324,-54.443,1
7.288868,0.153,0.481,-0.499,-37.414,136.474,-54.748,1
7.297587,0.14,0.485,-0.506,-58.471,138.61,-54.687,1
7.304535,0.115,0.491,-0.515,-75.927,142.395,-55.48,1
7.311492,0.075,0.489,-0.526,-88.867,143.493,-57.128,1
7.319125,0.038,0.491,-0.53,-92.407,144.653,-58.776,1
7.327773,0.013,0.494,-0.545,-87.036,143.981,-60.791,1
7.334068,-0.032,0.484,-0.546,-71.533,142.944,-62.316,1
7.34279,-0.067,0.449,-0.561,-49.865,141.052,-64.147,1
7.35118,-0.098,0.418,-0.564,-16.296,138.671,-64.636,1
7.358177,-0.102,0.383,-0.575,14.526,136.291,-64.086,1
7.36724,-0.11,0.335,-0.583,41.381,135.131,-63.049,1
7.373896,-0.11,0.283,-0.597,58.776,134.948,-61.157,1
7.382381,-0.108,0.245,-0.61,65.246,136.413,-58.044,1
7.389384,-0.139,0.213,-0.638,54.931,138.549,-55.358,1
7.397067,-0.17,0.189,-0.665,31.982,141.784,-53.405,1
7.405331,-0.205,0.183,-0.687,3.173,144.592,-51.574,1
7.414057,-0.223,0.187,-0.7,-22.216,147.338,-50.415,1
7.42103,-0.218,0.193,-0.719,-43.395,149.475,-49.682,1
7.427862,-0.22,0.194,-0.727,-61.645,152.16,-48.828,1
7.436257,-0.256,0.194,-0.751,-81.787,154.357,-48.156,1
7.444697,-0.259,0.204,-0.759,-104.187,156.494,-47.79,1
7.453296,-0.272,0.219,-0.774,-117.309,157.47,-47.607,1
7.460479,-0.295,0.23,-0.776,-120.727,157.897,-47.851,1
7.467542,-0.318,0.246,-0.783,-115.051,158.02,-48.217,1
7.475868,-0.348,0.228,-0.8,-101.806,156.799,-48.217,1
7.484475,-0.386,0.22,-0.822,-86.914,156.494,-48.095,1
7.492832,-0.431,0.231,-0.847,-64.88,155.761,-47.363,1
7.49956,-0.49,0.224,-0.863,-50.842,155.7,-46.325,1
7.507543,-0.526,0.188,-0.886,-44.494,156.494,-45.104,1
7.51716,-0.597,0.173,-0.902,-49.804,158.752,-43.701,1
7.525625,-0.612,0.15,-0.984,-61.401,160.217,-42.297,1
7.533968,-0.667,0.127,-1.006,-81.481,163.452,-41.137,1
7.54057,-0.712,0.125,-1.09,-101.562,166.748,-40.832,1
7.549326,-0.796,0.084,-1.117,-123.657,168.029,-40.405,1
7.556411,-0.848,0.094,-1.14,-140.38,170.837,-40.222,1
7.565111,-0.837,0.123,-1.186,-137.939,167.724,-40.832,1
7.573381,-0.863,0.109,-1.212,-120.422,166.015,-40.71,1
7.582321,-0.901,0.075,-1.255,-99.06,161.499,-41.076,1
7.588669,-0.969,0.016,-1.236,-98.266,159.79,-40.161,1
7.596519,-0.914,0.0,-1.289,-105.224,158.63,-39.428,1
7.60626,-0.954,-0.014,-1.291,-114.929,155.761,-39.733,1
7.612795,-0.985,-0.028,-1.308,-119.079,153.869,-39.916,1
7.620398,-0.987,-0.044,-1.327,-123.352,150.268,-40.1,1
7.630141,-0.982,-0.062,-1.323,-126.464,147.338,-41.015,1
7.637494,-0.967,-0.089,-1.328,-131.53,143.005,-41.015,1
7.64578,-0.895,-0.116,-1.358,-133.85,138.916,-40.527,1
7.654011,-0.895,-0.137,-1.369,-135.498,133.3,-40.71,1
7.663817,-0.901,-0.154,-1.377,-134.765,128.295,-39.916,1
7.670567,-0.904,-0.195,-1.392,-135.742,121.215,-40.1,1
7.679219,-0.919,-0.21,-1.389,-135.498,116.333,-39.489,1
7.687314,-0.936,-0.23,-1.41,-135.864,108.032,-39.672,1
7.695281,-0.959,-0.249,-1.402,-136.169,102.355,-39.428,1
7.702277,-0.97,-0.283,-1.42,-140.747,95.153,-39.733,1
7.710263,-0.999,-0.31,-1.398,-148.254,88.134,-39.733,1
7.718443,-1.018,-0.324,-1.395,-153.259,81.176,-39.55,1
7.726593,-1.015,-0.338,-1.373,-153.625,73.974,-39.489,1
7.734289,-0.986,-0.358,-1.362,-153.747,66.589,-38.635,1
7.74278,-0.956,-0.375,-1.345,-149.719,57.128,-37.048,1
7.749625,-0.915,-0.374,-1.316,-140.075,49.194,-34.729,1
7.758189,-0.892,-0.373,-1.289,-123.718,40.344,-31.677,1
7.766842,-0.902,-0.382,-1.249,-101.745,31.555,-28.625,1
7.773519,-0.908,-0.4,-1.219,-79.65,23.498,-25.085,1
7.78229,-0.94,-0.431,-1.191,-64.086,16.174,-21.118,1
7.789616,-0.967,-0.457,-1.173,-54.016,9.155,-15.686,1
7.796042,-1.002,-0.479,-1.157,-49.743,3.417,-10.131,1
7.804482,-1.012,-0.498,-1.143,-49.438,-1.77,-4.272,1
7.81324,-1.028,-0.505,-1.108,-52.612,-6.286,2.014,1
7.819796,-1.061,-0.504,-1.069,-55.419,-10.498,8.3,1
7.828652,-1.095,-0.505,-1.038,-58.288,-14.16,14.648,1
7.836967,-1.108,-0.509,-1.005,-61.523,-18.31,22.521,1
7.845374,-1.119,-0.509,-0.97,-63.232,-21.789,29.663,1
7.852371,-1.129,-0.505,-0.934,-60.119,-26.184,38.269,1
7.861098,-1.145,-0.517,-0.915,-55.297,-29.907,46.081,1
7.869214,-1.159,-0.529,-0.893,-48.889,-33.874,54.26,1
7.877101,-1.191,-0.55,-0.876,-39.306,-38.818,64.331,1
7.884162,-1.217,-0.554,-0.861,-26.367,-43.579,73.242,1
7.89282,-1.27,-0.568,-0.847,-12.695,-48.095,82.397,1
7.900076,-1.289,-0.584,-0.834,4.516,-54.504,92.59,1
7.908049,-1.324,-0.6,-0.821,19.042,-59.265,101.806,1
7.91677,-1.348,-0.641,-0.828,28.625,-64.27,111.45,1
7.923424,-1.388,-0.695,-0.831,33.569,-68.664,121.826,1
7.932319,-1.428,-0.718,-0.837,35.644,-73.181,132.812,1
7.94074,-1.486,-0.744,-0.822,39.306,-77.636,146.606,1
7.947699,-1.561,-0.788,-0.824,40.893,-81.359,159.118,1
7.955693,-1.614,-0.847,-0.827,41.198,-85.266,172.912,1
7.963945,-1.67,-0.91,-0.845,44.555,-89.416,190.368,1
7.972401,-1.773,-0.958,-0.828,52.856,-93.444,206.542,1
7.979544,-1.895,-1.065,-0.833,63.537,-98.815,226.684,1
7.987983,-2.044,-1.143,-0.831,72.937,-103.027,245.239,1
7.996145,-2.25,-1.241,-0.839,76.599,-107.055,264.648,1
8.004095,-2.523,-1.38,-0.874,72.814,-110.717,285.705,1
8.012417,-2.717,-1.489,-0.902,62.438,-114.501,313.11,1
8.01938,-3.054,-1.589,-0.936,49.133,-117.37,338.928,1
8.027304,-3.354,-1.726,-1.0,38.696,-120.239,366.577,1
8.035105,-3.648,-1.874,-1.077,25.634,-125.122,396.728,1
8.043966,-4.121,-1.984,-1.189,20.507,-130.737,430.297,1
8.052266,-4.549,-2.131,-1.316,32.287,-142.578,471.252,1
8.059164,-5.298,-2.161,-1.5,60.119,-155.944,510.803,1
8.067047,-6.133,-2.378,-1.693,99.792,-179.138,557.067,1
8.075927,-6.814,-2.602,-2.006,111.022,-201.171,596.801,1
8.083828,-7.717,-2.768,-2.253,92.285,-224.914,640.441,1
8.091635,-8.996,-2.793,-2.442,50.72,-244.323,685.79,1
8.098119,-10.117,-2.581,-2.463,18.249,-270.751,740.051,1
8.106544,-11.384,-2.281,-2.473,23.254,-291.809,777.893,1
8.115032,-12.745,-1.897,-2.446,64.88,-333.496,825.378,1
8.123079,-14.188,-1.487,-2.36,126.831,-379.028,858.337,1
8.129657,-15.841,-1.038,-2.224,186.157,-431.701,883.361,1
8.138273,-15.995,-0.655,-2.032,236.145,-501.525,903.503,1
8.146558,-15.999,-0.273,-1.803,258.178,-552.063,911.987,1
8.153537,-15.999,0.129,-1.479,279.968,-625.732,916.87,1
8.160577,-15.999,0.5,-1.079,301.025,-677.734,915.039,1
8.167265,-15.999,0.764,-0.744,333.74,-743.957,906.921,1
8.176119,-15.999,1.113,-0.208,376.708,-811.584,891.113,1
8.183096,-15.999,1.339,0.191,417.724,-895.019,861.022,1
8.191718,-15.999,1.588,0.598,444.519,-960.449,828.491,1
8.198557,-15.999,1.883,0.851,477.111,-1032.104,784.362,1
8.207169,-15.999,2.076,1.188,517.334,-1100.158,729.98,1
8.214248,-15.999,2.223,1.425,557.861,-1165.405,666.809,1
8.222708,-15.999,2.23,1.817,570.007,-1220.947,600.219,1
8.229676,-15.999,2.224,2.355,587.524,-1255.554,520.141,1
8.238347,-15.999,2.437,2.796,599.121,-1270.69,430.297,1
8.24494,-15.999,2.56,2.89,626.037,-1283.813,330.444,1
8.25264,-15.999,2.98,3.216,683.593,-1276.184,205.505,1
8.261355,-15.999,3.299,3.189,761.474,-1269.897,89.111,1
8.269121,-15.999,3.229,3.311,908.63,-1248.962,-41.87,1
8.276064,-15.999,2.822,2.986,1009.765,-1218.078,-188.781,1
8.283174,-15.999,2.43,2.99,1047.546,-1157.348,-331.909,1
8.291346,-15.999,1.891,2.566,1047.729,-1058.227,-463.317,1
8.30016,-15.999,1.295,2.005,961.547,-963.195,-573.852,1
8.306767,-15.999,0.842,1.684,836.852,-847.106,-654.235,1
8.313986,-15.999,0.599,1.458,677.368,-750.732,-709.167,1
8.321027,-15.999,0.529,1.521,543.64,-648.925,-740.112,1
8.328886,-15.395,0.549,1.38,446.96,-576.293,-761.291,1
8.336774,-14.88,0.528,1.465,394.775,-502.99,-773.071,1
8.343841,-14.558,0.474,1.436,365.783,-446.411,-780.334,1
8.35146,-14.166,0.375,1.619,381.469,-382.08,-779.602,1
8.360088,-13.464,0.207,1.475,423.156,-326.904,-775.451,1
8.367146,-12.696,-0.025,1.462,460.51,-266.174,-767.333,1
8.375952,-12.132,-0.398,1.295,449.707,-208.068,-753.845,1
8.38457,-11.166,-0.821,1.272,361.938,-137.146,-730.957,1
8.391206,-9.834,-1.067,1.256,261.413,-90.698,-709.167,1
8.399874,-8.922,-1.234,1.264,191.894,-54.199,-685.302,1
8.407012,-7.77,-1.334,1.268,157.348,-22.277,-655.517,1
8.41571,-7.027,-1.449,1.245,151.733,0.305,-627.99,1
8.422686,-6.412,-1.509,1.195,162.353,18.92,-598.571,1
8.431017,-5.933,-1.542,1.185,193.359,35.766,-568.237,1
8.437921,-5.525,-1.562,1.118,232.116,52.49,-537.475,1
8.446167,-5.032,-1.556,1.052,273.132,69.03,-505.737,1
8.45503,-4.53,-1.524,0.944,313.598,90.698,-466.674,1
8.462024,-4.007,-1.465,0.854,335.327,107.36,-432.067,1
8.46872,-3.504,-1.356,0.757,356.872,125.305,-395.629,1
8.477413,-3.115,-1.238,0.655,376.342,140.014,-358.764,1
8.483998,-2.867,-1.111,0.59,386.901,156.738,-321.838,1
8.492229,-2.706,-0.999,0.502,375.976,170.288,-285.766,1
8.49877,-2.566,-0.878,0.478,353.698,183.654,-249.877,1
8.507468,-2.397,-0.756,0.418,334.533,191.894,-221.13,1
8.514075,-2.28,-0.666,0.416,314.697,200.561,-188.415,1
8.520997,-2.214,-0.621,0.394,288.33,207.702,-158.081,1
8.529355,-2.102,-0.587,0.384,252.807,214.111,-131.408,1
8.536367,-1.944,-0.559,0.374,215.515,219.604,-107.727,1
8.543207,-1.754,-0.524,0.368,185.302,223.327,-86.975,1
8.550998,-1.554,-0.479,0.366,169.799,225.28,-68.359,1
8.559829,-1.425,-0.452,0.363,163.146,224.548,-51.025,1
8.56632,-1.231,-0.416,0.351,165.832,224.426,-37.109,1
8.574324,-1.077,-0.387,0.331,172.119,220.275,-18.798,1
8.582606,-0.913,-0.35,0.333,178.1,217.651,-3.601,1
8.589155,-0.876,-0.315,0.314,180.053,214.782,10.925,1
8.597944,-0.766,-0.316,0.354,168.518,213.439,23.925,1
8.604595,-0.671,-0.317,0.367,143.615,214.477,36.376,1
8.611732,-0.603,-0.289,0.402,109.558,215.82,47.363,1
8.620096,-0.6,-0.246,0.405,72.814,218.322,57.006,1
8.62856,-0.658,-0.148,0.395,46.447,219.055,65.002,1
8.635339,-0.621,-0.093,0.405,25.817,216.735,70.678,1
8.644254,-0.585,-0.053,0.382,15.563,215.454,75.5,1
8.65121,-0.522,-0.007,0.355,11.413,211.486,78.857,1
8.658022,-0.456,0.047,0.333,18.798,207.946,81.298,1
8.66586,-0.361,0.08,0.304,37.78,202.148,83.068,1
8.673096,-0.208,0.125,0.276,60.546,197.265,84.777,1
8.681402,-0.062,0.147,0.23,77.697,191.406,86.608,1
8.688552,0.007,0.158,0.214,86.853,187.072,87.89,1
8.695139,0.019,0.166,0.17,82.641,183.105,89.477,1
8.702162,0.047,0.18,0.139,69.519,180.114,90.454,1
8.709083,0.045,0.188,0.119,45.715,178.1,90.942,1
8.716354,0.155,0.205,0.087,21.24,175.109,91.552,1
8.724255,0.211,0.278,0.092,-4.272,173.4,89.965,1
8.732642,0.289,0.336,0.055,-19.775,173.645,88.256,1
8.739513,0.304,0.368,0.028,-37.109,168.273,85.51,1
8.747917,0.322,0.373,0.037,-46.936,164.855,81.97,1
8.754794,0.361,0.41,0.05,-46.691,158.691,77.88,1
8.762019,0.414,0.438,0.064,-31.311,154.846,73.425,1
8.768497,0.56,0.467,0.064,-8.728,148.925,69.519,1
8.776126,0.783,0.506,0.085,32.226,144.714,65.795,1
8.783497,0.887,0.518,0.077,77.27,138.122,63.049,1
8.791857,0.655,0.474,0.066,112.67,135.681,60.424,1
8.799022,0.644,0.434,0.03,128.479,132.141,57.861,1
8.805655,0.668,0.399,0.04,138.244,130.615,56.64,1
8.813279,0.619,0.374,-0.008,133.85,127.624,54.931,1
8.821518,0.627,0.35,-0.006,124.267,127.075,53.71,1
8.828146,0.864,0.359,-0.01,117.431,125.244,52.917,1
8.836359,1.14,0.433,0.02,123.413,122.619,52.734,1
8.843048,0.939,0.495,-0.033,136.413,120.727,51.025,1
8.850025,0.869,0.526,-0.041,144.775,115.295,47.546,1
8.858257,0.806,0.531,-0.023,152.648,114.501,45.776,1
8.865314,0.86,0.566,-0.018,167.419,110.717,44.555,1
8.873429,0.922,0.596,-0.017,178.771,109.558,43.762,1
8.880318,0.846,0.615,-0.065,180.786,107.604,42.541,1
8.889133,0.783,0.573,-0.09,162.231,107.116,41.198,1
8.895293,0.687,0.563,-0.042,136.352,107.727,39.672,1
8.903954,0.771,0.539,-0.055,111.572,109.497,37.963,1
8.912293,0.511,0.53,-0.055,93.688,112.182,36.071,1
8.919298,0.749,0.564,-0.154,81.481,110.778,33.569,1
8.925979,0.669,0.616,-0.046,87.28,112.426,31.372,1
8.932484,0.584,0.662,-0.195,97.717,112.06,28.869,1
8.941362,0.65,0.69,-0.044,111.45,110.778,27.343,1
8.948094,0.649,0.684,-0.106,123.168,111.694,25.634,1
8.954947,0.667,0.747,-0.052,126.22,108.947,24.169,1
8.961415,0.69,0.765,-0.063,127.624,113.22,23.864,1
8.969358,0.769,0.778,-0.002,116.271,110.534,21.85,1
8.976412,0.767,0.757,0.031,112.487,114.807,21.301,1
8.983258,0.747,0.738,-0.006,106.994,113.525,19.287,1
8.990305,0.735,0.707,0.019,112.792,116.271,18.493,1
8.998565,0.726,0.661,-0.026,121.093,114.868,18.188,1
9.005065,0.744,0.66,-0.026,134.033,116.821,18.432,1
9.013369,0.739,0.639,-0.108,142.517,114.135,17.822,1
9.018964,0.68,0.648,-0.053,151.794,113.159,18.249,1
9.026773,0.744,0.674,-0.065,166.931,114.562,19.531,1
9.03352,0.727,0.672,-0.067,172.119,113.83,20.202,1
9.040421,0.786,0.749,-0.039,168.212,116.455,21.24,1
9.047501,0.749,0.796,-0.004,157.836,117.187,21.362,1
9.055791,0.791,0.942,0.104,153.381,119.934,20.996,1
9.062904,0.838,1.08,0.179,157.775,120.483,19.531,1
9.069322,0.818,1.197,0.283,173.767,121.582,17.456,1
9.076299,0.789,1.277,0.298,187.622,122.009,15.502,1
9.084082,0.76,1.31,0.322,200.073,122.192,12.939,1
9.090666,0.761,1.326,0.322,209.777,123.474,10.559,1
9.097656,0.833,1.308,0.334,215.698,124.755,7.995,1
9.105551,0.63,1.221,0.299,216.979,127.258,6.958,1
9.113511,0.576,1.16,0.311,213.256,128.112,5.187,1
9.120546,0.464,1.035,0.309,208.557,133.911,5.065,1
9.12871,0.444,0.927,0.251,194.152,136.84,5.004,1
9.135225,0.333,0.83,0.246,171.325,143.798,5.615,1
9.142958,0.253,0.771,0.217,139.648,150.756,5.432,1
9.150379,0.192,0.731,0.23,102.661,160.4,5.493,1
9.157233,0.16,0.706,0.228,63.964,168.762,4.76,1
9.164109,0.116,0.726,0.258,38.452,176.147,3.54,1
9.17201,0.1,0.793,0.27,21.423,183.532,1.525,1
9.178584,0.079,0.884,0.282,21.911,189.27,-1.342,1
9.187054,0.072,0.997,0.282,31.799,192.138,-4.394,1
9.193453,0.181,1.204,0.354,53.833,193.969,-8.422,1
9.200936,0.033,1.302,0.324,76.293,197.631,-12.939,1
9.208024,0.021,1.317,0.297,87.158,198.852,-17.639,1
9.216313,0.01,1.31,0.291,92.224,204.04,-20.751,1
9.224647,0.013,1.291,0.268,91.979,207.092,-23.437,1
9.231287,0.003,1.242,0.254,90.148,213.012,-26.184,1
9.238404,-0.006,1.208,0.209,85.815,218.383,-28.259,1
9.247254,-0.063,1.187,0.146,80.322,223.815,-30.09,1
9.254078,-0.162,1.183,0.084,71.899,228.515,-32.104,1
9.260427,-0.106,1.245,0.059,67.321,233.52,-34.301,1
9.268243,-0.076,1.283,-0.083,63.476,237.548,-36.987,1
9.276208,-0.139,1.348,-0.15,61.218,239.624,-40.1,1
9.284763,-0.171,1.479,-0.185,70.861,241.333,-43.395,1
9.292715,-0.204,1.563,-0.196,93.078,241.699,-47.546,1
9.299409,-0.239,1.601,-0.237,114.868,241.577,-50.17,1
9.307637,-0.215,1.645,-0.275,132.019,241.027,-51.94,1
9.315795,-0.193,1.728,-0.306,146.484,241.333,-52.673,1
9.324034,-0.179,1.758,-0.369,153.869,242.248,-53.344,1
9.332606,-0.184,1.706,-0.404,152.465,243.713,-53.344,1
9.339596,-0.184,1.621,-0.426,140.991,246.765,-53.222,1
9.347974,-0.184,1.479,-0.449,127.258,249.389,-51.757,1
9.356639,-0.204,1.407,-0.467,107.543,251.281,-50.659,1
9.363681,-0.209,1.43,-0.467,97.412,253.112,-51.025,1
9.372298,-0.291,1.515,-0.468,98.51,254.333,-52.185,1
9.378931,-0.401,1.605,-0.508,105.773,254.272,-53.71,1
9.386902,-0.485,1.639,-0.545,93.322,253.967,-57.189,1
9.395311,-0.505,1.693,-0.55,78.063,254.882,-59.875,1
9.401467,-0.509,1.72,-0.592,70.678,254.76,-63.293,1
9.409875,-0.599,1.722,-0.638,66.101,253.478,-67.687,1
9.416597,-0.648,1.69,-0.689,63.476,252.075,-71.777,1
9.424895,-0.661,1.658,-0.769,56.823,250.244,-76.538,1
9.432709,-0.668,1.624,-0.836,45.593,247.07,-81.298,1
9.441368,-0.663,1.591,-0.888,32.104,243.957,-87.524,1
9.448374,-0.634,1.527,-0.946,24.047,240.417,-92.407,1
9.455361,-0.614,1.455,-0.984,24.414,235.656,-96.496,1
9.464236,-0.607,1.383,-1.005,35.4,230.041,-100.036,1
9.471229,-0.606,1.321,-1.011,52.734,223.51,-102.722,1
9.479591,-0.624,1.235,-0.997,69.641,216.369,-104.919,1
9.486156,-0.633,1.146,-0.969,74.829,211.181,-105.346,1
9.494975,-0.674,1.105,-0.928,79.528,206.542,-105.59,1
9.501576,-0.712,1.042,-0.871,82.458,202.331,-105.041,1
9.510349,-0.723,0.984,-0.817,84.228,199.523,-104.064,1
9.517261,-0.708,0.966,-0.776,85.815,196.472,-102.539,1
9.526103,-0.681,0.992,-0.755,87.585,194.152,-101.684,1
9.533103,-0.641,1.034,-0.766,89.111,190.917,-100.708,1
9.543558,-0.609,1.062,-0.782,90.576,187.072,-100.158,1
9.550617,-0.578,1.077,-0.813,92.529,182.861,-99.975,1
9.559091,-0.573,1.065,-0.845,94.787,179.016,-100.097,1
9.565798,-0.573,1.06,-0.879,98.266,175.292,-99.975,1
9.574221,-0.583,1.068,-0.919,102.905,171.264,-99.853,1
9.580768,-0.582,1.085,-0.958,107.666,167.114,-99.182,1
9.589209,-0.587,1.088,-1.001,111.206,162.719,-98.754,1
9.59783,-0.568,1.073,-1.025,112.304,157.714,-98.266,1
9.604857,-0.55,1.033,-1.044,109.802,153.686,-97.595,1
9.613533,-0.529,0.992,-1.06,103.759,149.963,-96.74,1
9.619948,-0.519,0.979,-1.059,95.825,146.606,-96.313,1
9.628616,-0.511,0.977,-1.046,87.097,142.761,-95.703,1
9.63542,-0.52,0.978,-1.03,78.979,138.916,-95.214,1
9.643582,-0.519,0.972,-1.02,73.059,135.375,-94.909,1
9.653466,-0.488,0.947,-1.006,67.871,131.896,-94.482,1
9.662116,-0.456,0.942,-0.984,64.025,127.624,-93.688,1
9.670466,-0.433,0.952,-0.984,62.561,123.596,-93.261,1
9.677479,-0.407,0.963,-0.976,61.95,119.567,-92.712,1
9.685971,-0.374,0.961,-0.968,62.377,116.516,-92.285,1
9.69305,-0.344,0.943,-0.966,60.302,112.548,-91.43,1
9.701669,-0.332,0.92,-0.95,57.373,109.802,-90.515,1
9.708314,-0.312,0.895,-0.94,53.222,107.36,-89.843,1
9.717121,-0.329,0.884,-0.914,47.546,105.468,-88.684,1
9.724282,-0.308,0.91,-0.915,41.381,103.515,-87.28,1
9.733141,-0.358,0.919,-0.91,35.339,100.891,-86.181,1
9.740224,-0.348,0.891,-0.892,30.456,98.632,-84.838,1
9.747371,-0.345,0.84,-0.877,25.878,97.29,-83.007,1
9.755676,-0.336,0.78,-0.884,18.798,95.092,-81.054,1
9.764435,-0.345,0.736,-0.865,12.939,93.383,-78.735,1
9.771386,-0.357,0.712,-0.875,8.3,90.942,-75.805,1
9.780346,-0.376,0.702,-0.87,7.08,88.684,-72.692,1
9.787353,-0.395,0.704,-0.877,8.972,86.242,-69.519,1
9.795743,-0.392,0.716,-0.895,13.671,82.702,-65.368,1
9.802823,-0.371,0.728,-0.907,19.714,80.139,-61.828,1
9.811752,-0.314,0.727,-0.929,23.376,77.758,-58.532,1
9.820476,-0.226,0.709,-0.935,25.207,74.951,-54.382,1
9.82672,-0.164,0.681,-0.962,24.658,73.12,-51.025,1
9.834979,-0.12,0.681,-0.979,20.568,69.519,-48.278,1
9.843846,-0.122,0.696,-0.955,18.554,66.467,-46.386,1
9.850915,-0.116,0.671,-0.964,15.624,63.476,-44.555,1
9.858023,-0.104,0.643,-0.955,11.169,59.814,-42.724,1
9.866723,-0.1,0.625,-0.942,6.591,55.725,-40.832,1
9.873914,-0.082,0.616,-0.937,2.685,51.879,-39.062,1
9.882198,-0.076,0.602,-0.927,-1.525,48.217,-37.536,1
9.889228,-0.062,0.587,-0.895,-4.455,44.982,-35.827,1
9.898016,-0.012,0.587,-0.884,-6.286,42.236,-34.057,1
9.905236,-0.018,0.617,-0.875,-5.737,39.245,-31.738,1
9.913604,-0.008,0.649,-0.869,-3.601,36.56,-30.09,1
9.92162,0.004,0.67,-0.884,-0.427,33.447,-28.198,1
9.928699,0.004,0.681,-0.902,3.417,30.09,-26.0,1
9.936581,0.01,0.669,-0.909,7.324,26.55,-23.559,1
9.943111,0.023,0.65,-0.918,8.789,22.338,-21.423,1
9.951868,0.015,0.641,-0.915,8.728,18.554,-18.432,1
9.958525,0.008,0.627,-0.904,6.713,14.709,-15.991,1
9.965376,0.005,0.616,-0.895,2.807,10.986,-13.488,1
9.973757,0.006,0.618,-0.867,-1.037,7.873,-11.718,1
9.981899,0.001,0.623,-0.849,-5.676,3.234,-9.399,1
9.988899,-0.02,0.646,-0.821,-8.117,-0.732,-7.812,1
9.996737,-0.055,0.673,-0.799,-7.69,-5.004,-6.103,1
