timestamp_s,ax,ay,az,gx,gy,gz,label
0.006773,0.861,0.541,0.066,-0.488,-1.464,-0.854,1
0.013436,0.864,0.541,0.069,0.0,-1.586,-0.915,1
0.021782,0.86,0.54,0.069,0.61,-1.525,-0.915,1
0.028381,0.862,0.539,0.068,0.427,-1.525,-1.037,1
0.035785,0.863,0.538,0.069,0.366,-1.22,-0.976,1
0.043419,0.857,0.541,0.073,0.61,-1.281,-1.159,1
0.05204,0.863,0.539,0.069,0.854,-1.403,-0.915,1
0.058812,0.859,0.538,0.067,0.732,-1.098,-1.037,1
0.066517,0.859,0.529,0.066,0.427,-1.037,-1.159,1
0.073183,0.858,0.528,0.064,0.122,-0.976,-1.098,1
0.081617,0.86,0.53,0.067,0.183,-0.61,-0.976,1
0.088337,0.865,0.525,0.063,0.427,-0.671,-0.915,1
0.096429,0.862,0.522,0.064,-0.122,-0.854,-0.732,1
0.103245,0.861,0.524,0.067,-0.183,-0.793,-0.793,1
0.111277,0.86,0.526,0.066,-0.671,-0.671,-0.732,1
0.119193,0.857,0.529,0.066,-0.976,-0.793,-0.915,1
0.125807,0.86,0.525,0.07,-1.159,-0.732,-0.488,1
0.133548,0.856,0.531,0.07,-1.037,-0.61,-0.427,1
0.141186,0.859,0.531,0.07,-1.342,-0.671,-0.305,1
0.148663,0.86,0.537,0.07,-1.22,-0.61,-0.366,1
0.155425,0.861,0.534,0.065,-1.525,-0.488,-0.305,1
0.163439,0.862,0.533,0.06,-1.708,-0.427,-0.366,1
0.170478,0.865,0.534,0.061,-1.708,-0.427,-0.244,1
0.178744,0.863,0.535,0.063,-1.403,-0.427,-0.549,1
0.186337,0.862,0.534,0.062,-1.098,-0.61,-0.122,1
0.194521,0.862,0.537,0.058,-0.427,-0.549,-0.488,1
0.202912,0.865,0.535,0.063,-0.305,-0.915,-0.488,1
0.209744,0.86,0.533,0.062,-0.488,-0.854,-0.61,1
0.21756,0.862,0.533,0.065,-0.427,-0.793,-0.732,1
0.224582,0.862,0.533,0.066,-0.305,-0.854,-0.549,1
0.232286,0.864,0.535,0.069,-0.305,-0.732,-0.549,1
0.239361,0.863,0.53,0.065,-0.122,-0.549,-0.671,1
0.247706,0.866,0.532,0.065,-0.061,-0.671,-0.61,1
0.256106,0.863,0.523,0.063,0.366,-0.549,-0.732,1
0.262852,0.863,0.526,0.061,0.183,-0.549,-0.427,1
0.269302,0.864,0.528,0.061,0.122,-0.488,-0.488,1
0.276632,0.862,0.523,0.058,0.366,-0.488,-0.305,1
0.284117,0.864,0.526,0.06,0.366,-0.549,-0.366,1
0.292366,0.863,0.525,0.058,0.122,-0.549,-0.122,1
0.298781,0.867,0.526,0.059,0.488,-0.61,-0.183,1
0.306848,0.864,0.525,0.057,0.305,-0.793,-0.183,1
0.313314,0.86,0.521,0.06,0.671,-0.915,-0.061,1
0.321264,0.86,0.525,0.062,0.793,-0.793,-0.122,1
0.327923,0.859,0.522,0.062,0.671,-0.732,-0.061,1
0.33542,0.861,0.523,0.064,0.488,-0.854,0.061,1
0.343485,0.863,0.524,0.062,0.488,-0.732,-0.244,1
0.35156,0.86,0.524,0.065,0.732,-0.732,0.122,1
0.358227,0.862,0.525,0.061,0.854,-0.793,0.427,1
0.366167,0.861,0.531,0.064,0.549,-0.671,0.305,1
0.372465,0.866,0.529,0.061,0.793,-0.915,0.183,1
0.380805,0.864,0.532,0.062,0.366,-0.732,0.305,1
0.387141,0.86,0.531,0.063,0.488,-0.915,0.427,1
0.3939,0.863,0.536,0.058,0.366,-0.915,0.244,1
0.40162,0.86,0.534,0.063,0.305,-0.793,0.366,1
0.408735,0.86,0.53,0.058,0.61,-1.037,0.305,1
0.416741,0.862,0.53,0.062,0.366,-0.793,0.305,1
0.423081,0.863,0.529,0.06,0.244,-0.915,0.244,1
0.430845,0.859,0.528,0.066,0.488,-0.732,0.366,1
0.438685,0.861,0.527,0.062,0.488,-1.098,0.488,1
0.445287,0.857,0.534,0.067,0.427,-0.976,0.488,1
0.452123,0.863,0.53,0.071,0.854,-1.037,0.61,1
0.46043,0.858,0.532,0.068,0.671,-0.915,0.732,1
0.466918,0.859,0.533,0.07,0.061,-0.854,0.305,1
0.474274,0.861,0.538,0.073,0.305,-0.732,0.244,1
0.482179,0.859,0.538,0.075,0.305,-0.671,0.427,1
0.48881,0.865,0.537,0.074,0.61,-0.488,0.305,1
0.495782,0.864,0.535,0.076,0.488,-0.488,0.366,1
0.503996,0.86,0.537,0.073,1.037,-0.549,0.366,1
0.51039,0.862,0.532,0.069,1.037,-0.305,0.366,1
0.517494,0.864,0.533,0.07,1.22,-0.366,0.305,1
0.525349,0.862,0.531,0.068,1.464,-0.305,0.183,1
0.53329,0.858,0.533,0.066,1.892,-0.061,0.183,1
0.539935,0.862,0.534,0.059,1.831,-0.366,0.427,1
0.548368,0.856,0.533,0.06,1.342,-0.549,0.183,1
0.554505,0.863,0.53,0.062,0.549,-0.366,0.366,1
0.561414,0.862,0.538,0.064,0.122,-0.427,0.427,1
0.569859,0.863,0.53,0.065,0.122,-0.61,0.305,1
0.576401,0.859,0.53,0.067,0.183,-0.427,0.244,1
0.583618,0.86,0.531,0.067,0.244,-0.732,0.549,1
0.590167,0.856,0.531,0.071,0.427,-0.61,0.427,1
0.598702,0.858,0.532,0.068,0.61,-0.366,0.366,1
0.605202,0.861,0.53,0.07,0.305,-0.305,0.488,1
0.61428,0.86,0.533,0.069,-0.122,-0.305,0.366,1
0.620594,0.859,0.532,0.072,-0.671,-0.244,0.488,1
0.627453,0.859,0.536,0.072,-1.464,-0.244,0.488,1
0.63482,0.861,0.536,0.072,-1.953,-0.061,0.488,1
0.643001,0.868,0.538,0.068,-1.892,0.0,0.488,1
0.649582,0.862,0.539,0.067,-1.159,0.061,0.488,1
0.658098,0.865,0.537,0.069,-0.244,-0.183,0.427,1
0.664707,0.861,0.538,0.067,0.549,-0.366,0.549,1
0.671418,0.86,0.54,0.067,0.976,-0.244,0.61,1
0.678453,0.855,0.538,0.062,1.159,-0.244,0.305,1
0.686234,0.855,0.537,0.065,1.159,-0.244,0.305,1
0.694147,0.851,0.531,0.065,1.525,-0.122,0.488,1
0.701738,0.85,0.532,0.062,1.281,-0.305,0.427,1
0.70824,0.859,0.535,0.063,0.976,-0.122,0.305,1
0.715194,0.859,0.532,0.062,0.427,-0.122,0.549,1
0.721977,0.86,0.529,0.063,0.305,-0.183,0.488,1
0.730148,0.86,0.531,0.067,0.427,-0.305,0.732,1
0.73636,0.862,0.532,0.062,0.915,-0.244,0.732,1
0.744715,0.867,0.534,0.067,1.159,-0.488,0.671,1
0.751174,0.865,0.536,0.064,1.464,-0.305,0.61,1
0.759699,0.864,0.534,0.061,1.953,-0.183,0.854,1
0.765881,0.861,0.537,0.064,2.075,-0.427,0.732,1
0.772969,0.862,0.537,0.065,1.831,-0.244,0.732,1
0.780924,0.862,0.536,0.065,1.342,-0.244,0.671,1
0.788621,0.86,0.539,0.067,1.342,-0.427,0.61,1
0.795805,0.859,0.541,0.072,1.464,-0.366,0.732,1
0.804629,0.862,0.536,0.069,1.22,-0.427,0.61,1
0.811007,0.862,0.541,0.072,0.732,-0.183,0.488,1
0.818649,0.858,0.54,0.071,0.427,-0.244,0.793,1
0.825419,0.858,0.539,0.068,0.427,-0.488,0.427,1
0.833439,0.858,0.541,0.071,0.793,-0.305,0.427,1
0.840105,0.859,0.539,0.071,1.037,-0.305,0.366,1
0.84851,0.855,0.537,0.073,0.793,-0.183,0.61,1
0.855222,0.858,0.541,0.066,0.671,-0.366,0.427,1
0.86337,0.86,0.541,0.066,0.793,-0.244,0.244,1
0.870023,0.86,0.541,0.067,0.732,-0.061,0.244,1
0.878143,0.863,0.54,0.066,0.549,-0.061,0.366,1
0.885883,0.859,0.534,0.064,0.427,-0.305,0.244,1
0.892617,0.86,0.54,0.063,0.366,-0.366,0.488,1
0.899372,0.857,0.542,0.066,0.244,-0.122,0.488,1
0.906687,0.86,0.542,0.064,0.488,-0.061,0.366,1
0.915391,0.856,0.543,0.066,0.732,-0.061,0.244,1
0.922072,0.858,0.544,0.063,0.854,-0.244,0.305,1
0.930182,0.856,0.542,0.066,0.732,-0.488,0.305,1
0.937067,0.858,0.543,0.06,0.427,-0.183,0.244,1
0.945191,0.861,0.538,0.058,0.122,-0.427,0.366,1
0.951825,0.858,0.54,0.061,0.183,-0.61,0.305,1
0.959936,0.857,0.537,0.055,0.305,-0.61,0.244,1
0.967868,0.858,0.54,0.057,0.122,-0.671,0.122,1
0.974744,0.857,0.537,0.056,0.0,-0.671,0.305,1
0.981472,0.856,0.54,0.057,0.305,-0.854,0.183,1
0.988916,0.858,0.538,0.056,0.549,-0.854,0.305,1
0.996948,0.862,0.541,0.057,0.488,-1.098,0.244,1
1.00331,0.856,0.54,0.059,0.732,-1.159,0.427,1
1.011251,0.862,0.539,0.057,0.427,-1.22,0.183,1
1.017902,0.861,0.537,0.058,0.0,-1.281,0.305,1
1.026038,0.859,0.537,0.06,-0.183,-1.159,0.244,1
1.03214,0.863,0.534,0.062,-0.183,-1.281,0.244,1
1.039834,0.856,0.53,0.064,-0.122,-1.464,0.305,1
1.048462,0.855,0.538,0.065,-0.061,-1.342,0.366,1
1.054612,0.859,0.537,0.068,0.061,-1.281,0.427,1
1.061182,0.859,0.54,0.071,0.366,-1.342,0.427,1
1.06905,0.862,0.535,0.07,0.671,-1.403,0.366,1
1.07698,0.86,0.541,0.067,0.854,-1.281,0.488,1
1.084655,0.86,0.54,0.071,0.732,-1.281,0.305,1
1.091292,0.867,0.543,0.07,0.732,-1.281,0.305,1
1.097914,0.865,0.541,0.066,0.671,-1.281,0.366,1
1.105964,0.864,0.541,0.066,0.793,-1.647,0.427,1
1.112944,0.861,0.541,0.071,0.732,-1.22,0.366,1
1.120035,0.86,0.538,0.067,0.732,-1.22,0.305,1
1.128138,0.854,0.538,0.067,0.488,-1.342,0.366,1
1.135669,0.856,0.536,0.067,0.732,-1.403,0.305,1
1.142377,0.86,0.535,0.067,0.976,-1.342,0.305,1
1.149694,0.853,0.535,0.07,0.976,-1.586,0.305,1
1.15665,0.855,0.538,0.071,1.281,-1.586,0.427,1
1.164846,0.857,0.536,0.067,1.281,-1.586,0.366,1
1.172037,0.858,0.534,0.07,0.854,-1.525,0.366,1
1.18013,0.855,0.536,0.069,0.488,-1.525,0.427,1
1.186849,0.858,0.534,0.07,0.0,-1.403,0.366,1
1.195163,0.858,0.536,0.068,-0.671,-1.464,0.61,1
1.202419,0.856,0.537,0.068,-1.281,-1.525,0.61,1
1.20904,0.862,0.537,0.071,-1.892,-1.464,0.61,1
1.21683,0.861,0.542,0.07,-2.441,-1.403,0.732,1
1.2248,0.862,0.537,0.075,-3.54,-1.342,0.488,1
1.232081,0.861,0.544,0.074,-3.417,-1.525,0.732,1
1.238878,0.853,0.546,0.075,-3.54,-1.342,0.61,1
1.246964,0.863,0.545,0.074,-3.051,-1.647,0.549,1
1.255519,0.858,0.548,0.075,-2.868,-1.403,0.549,1
1.261916,0.857,0.55,0.073,-2.136,-1.342,0.61,1
1.269757,0.86,0.545,0.074,-1.525,-1.77,0.366,1
1.276642,0.857,0.546,0.077,-0.61,-1.586,0.244,1
1.28421,0.853,0.541,0.079,0.122,-1.525,0.305,1
1.290787,0.854,0.542,0.078,-0.061,-1.342,0.061,1
1.298791,0.857,0.546,0.081,-0.549,-1.403,0.183,1
1.307225,0.861,0.542,0.08,-0.915,-1.403,0.0,1
1.313855,0.857,0.539,0.08,-0.854,-1.22,0.244,1
1.322001,0.859,0.541,0.079,-0.488,-1.22,0.305,1
1.328897,0.858,0.539,0.077,-0.61,-1.098,0.305,1
1.336526,0.859,0.538,0.075,-0.61,-1.098,0.0,1
1.344742,0.855,0.541,0.076,-0.549,-1.159,0.061,1
1.352612,0.858,0.542,0.073,-0.244,-1.037,0.183,1
1.359332,0.853,0.544,0.078,-0.061,-1.159,0.305,1
1.366929,0.855,0.542,0.078,0.183,-1.159,0.122,1
1.374148,0.856,0.543,0.075,0.183,-1.281,0.305,1
1.382139,0.853,0.541,0.076,0.122,-1.159,0.244,1
1.389006,0.855,0.542,0.078,-0.061,-1.098,0.244,1
1.397135,0.856,0.542,0.074,-0.122,-0.976,0.122,1
1.404064,0.854,0.541,0.074,0.061,-1.22,0.427,1
1.411076,0.857,0.54,0.075,-0.122,-1.037,0.244,1
1.418731,0.86,0.539,0.077,-0.061,-1.037,0.0,1
1.425956,0.859,0.541,0.077,-0.305,-0.732,0.061,1
1.434307,0.861,0.54,0.077,-0.549,-0.976,0.549,1
1.441368,0.861,0.539,0.076,-0.732,-0.915,0.305,1
1.449559,0.862,0.543,0.081,-0.427,-0.976,0.183,1
1.456198,0.856,0.546,0.078,0.305,-0.915,0.549,1
1.464696,0.857,0.541,0.079,0.671,-0.976,0.305,1
1.470926,0.854,0.543,0.083,1.098,-0.976,0.427,1
1.479442,0.854,0.542,0.082,0.671,-0.671,0.244,1
1.487244,0.859,0.547,0.079,0.793,-0.915,0.244,1
1.493777,0.856,0.543,0.075,0.732,-0.671,0.183,1
1.500394,0.856,0.545,0.074,0.366,-0.732,0.183,1
1.507188,0.859,0.548,0.074,0.305,-0.854,0.0,1
1.515799,0.855,0.542,0.074,0.549,-0.732,0.061,1
1.52229,0.857,0.544,0.076,0.366,-0.854,0.244,1
1.529767,0.86,0.544,0.081,-0.427,-0.793,0.122,1
1.537768,0.861,0.545,0.08,-1.464,-0.793,0.244,1
1.544567,0.86,0.55,0.081,-2.563,-0.366,0.122,1
1.552527,0.866,0.546,0.082,-3.112,-0.488,0.061,1
1.560493,0.864,0.55,0.083,-2.258,-0.549,0.061,1
1.567121,0.863,0.548,0.083,-1.342,-0.488,0.122,1
1.575577,0.868,0.542,0.085,-1.586,-0.549,-0.061,1
1.581831,0.864,0.543,0.09,-1.708,-0.549,-0.122,1
1.589927,0.868,0.545,0.088,-1.403,-0.488,-0.122,1
1.598374,0.856,0.55,0.094,-1.647,-0.183,0.061,1
1.605199,0.855,0.548,0.088,-2.502,-0.183,0.122,1
1.613673,0.864,0.549,0.086,-4.638,0.305,-0.061,1
1.619883,0.865,0.553,0.08,-6.774,0.671,0.061,1
1.627128,0.871,0.558,0.083,-9.216,0.366,0.122,1
1.634746,0.856,0.557,0.076,-9.399,0.976,-0.122,1
1.642854,0.905,0.556,0.073,-9.277,0.0,0.061,1
1.649181,0.875,0.559,0.078,-10.803,1.281,-0.061,1
1.657285,0.861,0.561,0.062,-9.155,0.488,-0.244,1
1.665212,0.867,0.551,0.073,-7.263,-0.366,-0.488,1
1.673103,0.864,0.535,0.084,-6.103,-0.488,-0.488,1
1.679449,0.83,0.526,0.089,-5.432,0.061,-0.488,1
1.687588,0.837,0.512,0.086,-5.187,0.183,0.122,1
1.694278,0.819,0.504,0.078,-3.906,0.122,0.854,1
1.703445,0.874,0.496,0.076,-5.126,0.488,1.037,1
1.709473,0.812,0.51,0.075,-4.76,1.098,1.525,1
1.717832,0.875,0.504,0.065,-1.953,0.854,1.77,1
1.724172,0.89,0.498,0.063,-1.586,0.854,1.586,1
1.732023,0.879,0.496,0.069,-1.77,0.488,1.586,1
1.739435,0.866,0.496,0.068,-1.22,0.488,1.77,1
1.747817,0.849,0.491,0.068,0.61,0.671,2.319,1
1.754588,0.783,0.5,0.065,0.061,0.854,2.685,1
1.762304,0.806,0.51,0.058,-0.732,0.793,3.234,1
1.769717,0.768,0.505,0.051,-2.441,1.22,3.662,1
1.776399,0.771,0.52,0.035,-5.004,1.892,4.028,1
1.785547,0.822,0.523,0.007,-5.554,1.647,3.967,1
1.791866,0.853,0.531,0.005,-4.211,1.098,4.211,1
1.799939,0.875,0.53,-0.004,-1.403,0.0,4.272,1
1.80811,0.887,0.534,-0.008,1.831,-0.305,4.272,1
1.814761,0.904,0.537,-0.015,3.479,-1.464,3.906,1
1.82217,0.916,0.535,-0.013,4.028,-2.075,4.272,1
1.830449,0.911,0.529,-0.007,1.77,-2.502,4.15,1
1.836949,0.888,0.532,-0.003,-0.183,-2.99,3.967,1
1.845055,0.875,0.531,0.01,-1.647,-3.356,4.028,1
1.852679,0.852,0.528,0.018,-3.051,-3.479,4.15,1
1.859284,0.833,0.528,0.021,-3.845,-3.845,3.967,1
1.867127,0.828,0.527,0.026,-4.943,-3.845,4.211,1
1.87537,0.817,0.516,0.025,-6.713,-3.784,4.089,1
1.88219,0.811,0.514,0.025,-8.422,-3.845,4.455,1
1.890358,0.812,0.504,0.024,-10.314,-3.845,4.821,1
1.897049,0.819,0.494,0.02,-13.671,-3.601,5.249,1
1.905446,0.825,0.488,0.016,-15.319,-3.906,5.676,1
1.912036,0.827,0.489,0.013,-15.136,-4.333,5.92,1
1.920181,0.839,0.483,0.014,-14.099,-4.638,6.408,1
1.926771,0.851,0.477,0.014,-13.061,-5.249,7.019,1
1.934433,0.858,0.471,0.018,-11.413,-5.493,7.568,1
1.940973,0.854,0.465,0.015,-10.314,-6.103,8.117,1
1.949235,0.845,0.445,0.016,-10.314,-6.347,8.85,1
1.955671,0.842,0.444,0.019,-11.84,-6.652,9.826,1
1.964148,0.833,0.443,0.026,-13.122,-6.652,10.864,1
1.970677,0.817,0.449,0.031,-13.244,-6.958,11.413,1
1.978479,0.814,0.444,0.031,-12.634,-7.385,12.573,1
1.986078,0.807,0.44,0.041,-12.695,-7.446,13.061,1
1.992462,0.816,0.444,0.041,-13.183,-7.629,13.977,1
2.000564,0.811,0.436,0.043,-13.061,-7.934,14.77,1
2.007881,0.814,0.439,0.045,-11.779,-7.751,15.441,1
2.015672,0.814,0.438,0.055,-10.253,-7.995,16.174,1
2.022268,0.821,0.441,0.053,-7.385,-8.3,17.089,1
2.030194,0.816,0.454,0.047,-6.347,-8.422,18.249,1
2.037163,0.802,0.461,0.049,-7.263,-8.605,18.737,1
2.045223,0.808,0.461,0.052,-10.437,-8.85,19.836,1
2.052737,0.81,0.469,0.062,-12.756,-8.789,20.446,1
2.061196,0.816,0.476,0.067,-13.244,-9.033,20.751,1
2.066935,0.8,0.475,0.083,-13.366,-9.521,21.545,1
2.075069,0.786,0.484,0.11,-11.779,-9.277,22.399,1
2.081672,0.809,0.493,0.135,-9.155,-9.338,23.315,1
2.089665,0.827,0.503,0.16,-6.713,-9.582,23.986,1
2.096407,0.844,0.52,0.2,-4.577,-9.521,24.658,1
2.1043,0.855,0.549,0.256,-0.915,-9.826,25.756,1
2.112237,0.878,0.596,0.35,-2.746,-10.437,26.855,1
2.118856,0.879,0.648,0.433,-1.831,-9.277,27.526,1
2.126928,0.877,0.757,0.585,9.094,-10.803,28.015,1
2.134509,0.825,0.882,0.778,29.907,-10.864,27.526,1
2.141295,0.785,1.038,1.024,63.293,-11.169,26.123,1
2.147928,0.741,1.209,1.336,110.717,-9.704,22.705,1
2.155604,0.706,1.327,1.602,153.381,-7.141,19.287,1
2.16275,0.682,1.414,1.98,190.856,-1.708,14.648,1
2.170581,0.668,1.455,2.392,198.12,10.681,10.925,1
2.17727,0.716,1.493,2.785,176.879,27.343,6.408,1
2.185142,0.717,1.541,3.186,149.963,45.837,3.112,1
2.19179,0.728,1.607,3.469,121.093,69.335,-1.22,1
2.199807,0.701,1.675,3.76,111.206,93.872,-5.859,1
2.206474,0.672,1.695,3.959,116.516,119.812,-9.765,1
2.214759,0.546,1.681,4.067,123.107,140.991,-13.183,1
2.221309,0.423,1.641,4.066,130.432,168.945,-16.174,1
2.229742,0.333,1.593,3.976,129.211,197.021,-18.371,1
2.23622,0.128,1.564,3.795,117.431,224.243,-20.263,1
2.244288,-0.026,1.576,3.568,113.708,249.328,-23.071,1
2.251386,-0.214,1.582,3.276,122.375,271.301,-25.573,1
2.259497,-0.429,1.57,2.953,134.216,291.198,-27.282,1
2.266696,-0.644,1.582,2.601,143.737,306.213,-28.503,1
2.273614,-0.837,1.597,2.302,154.235,322.021,-29.052,1
2.28058,-1.033,1.604,1.946,162.658,336.73,-29.785,1
2.288475,-1.28,1.594,1.606,163.024,349.853,-30.334,1
2.295401,-1.497,1.56,1.279,151.306,360.9,-30.761,1
2.301888,-1.656,1.544,1.026,127.075,373.901,-31.555,1
2.309593,-1.844,1.558,0.704,95.581,385.498,-33.874,1
2.317874,-2.02,1.579,0.361,58.654,395.996,-38.024,1
2.32455,-2.186,1.622,0.009,20.874,403.625,-44.799,1
2.332378,-2.341,1.666,-0.341,-8.666,407.836,-53.527,1
2.339344,-2.459,1.705,-0.655,-22.949,408.386,-63.781,1
2.348977,-2.521,1.738,-0.994,-20.507,406.738,-72.204,1
2.355209,-2.551,1.709,-1.364,-9.643,400.39,-83.801,1
2.363629,-2.584,1.621,-1.758,-8.056,391.967,-92.956,1
2.370034,-2.545,1.528,-2.127,-11.779,380.981,-101.44,1
2.378112,-2.425,1.443,-2.423,-14.465,367.309,-109.497,1
2.385787,-2.236,1.352,-2.657,-14.587,351.44,-116.516,1
2.393814,-2.02,1.244,-2.858,-12.329,333.74,-122.375,1
2.401023,-1.776,1.083,-3.101,-7.568,314.086,-126.831,1
2.407887,-1.573,0.882,-3.321,0.183,290.588,-130.126,1
2.415609,-1.344,0.678,-3.506,10.009,267.089,-131.408,1
2.422786,-1.067,0.486,-3.675,20.141,240.661,-130.798,1
2.431101,-0.856,0.307,-3.769,31.555,214.721,-127.99,1
2.439387,-0.633,0.15,-3.86,39.245,187.744,-123.352,1
2.446264,-0.479,0.01,-3.851,38.513,162.536,-118.286,1
2.454568,-0.286,-0.011,-3.828,50.415,137.817,-112.976,1
2.461337,-0.125,-0.079,-3.799,63.293,111.511,-107.421,1
2.469197,-0.001,-0.159,-3.715,59.814,88.989,-101.257,1
2.476987,0.109,-0.211,-3.619,50.109,67.504,-95.581,1
2.485093,0.256,-0.228,-3.434,40.039,47.485,-90.148,1
2.491785,0.332,-0.222,-3.309,37.658,28.015,-84.533,1
2.499632,0.415,-0.213,-3.145,33.569,9.094,-79.284,1
2.50816,0.448,-0.201,-2.974,31.127,-7.324,-74.401,1
2.514765,0.453,-0.181,-2.772,24.902,-23.254,-70.129,1
2.522706,0.426,-0.163,-2.603,17.822,-36.682,-66.162,1
2.530469,0.428,-0.13,-2.38,10.192,-48.4,-62.622,1
2.538582,0.41,-0.083,-2.162,8.117,-60.607,-58.776,1
2.54687,0.401,-0.043,-1.955,11.169,-69.641,-55.969,1
2.553583,0.395,-0.022,-1.749,14.709,-77.27,-53.222,1
2.561529,0.373,0.0,-1.554,15.441,-82.702,-51.025,1
2.568615,0.363,0.011,-1.38,12.878,-85.571,-49.194,1
2.575402,0.357,0.023,-1.235,9.704,-88.134,-46.936,1
2.583809,0.385,0.05,-1.063,10.559,-89.66,-44.799,1
2.590832,0.391,0.073,-0.949,13.671,-90.209,-42.663,1
2.599025,0.415,0.086,-0.825,13.793,-90.332,-40.832,1
2.606447,0.425,0.089,-0.713,10.803,-88.562,-39.306,1
2.614385,0.452,0.089,-0.621,3.417,-86.425,-37.719,1
2.620887,0.481,0.088,-0.529,-6.042,-83.435,-36.132,1
2.629128,0.502,0.098,-0.454,-16.296,-79.895,-33.996,1
2.636975,0.518,0.102,-0.381,-25.573,-75.744,-32.409,1
2.644057,0.537,0.102,-0.337,-32.47,-71.655,-29.846,1
2.651781,0.581,0.102,-0.289,-32.836,-68.298,-27.77,1
2.659945,0.602,0.09,-0.244,-31.738,-64.88,-25.695,1
2.667788,0.615,0.083,-0.21,-33.813,-61.889,-23.864,1
2.67437,0.632,0.067,-0.181,-42.541,-56.457,-21.24,1
2.681617,0.639,0.075,-0.165,-50.659,-52.368,-19.47,1
2.690002,0.637,0.083,-0.146,-59.265,-47.668,-17.211,1
2.698333,0.643,0.098,-0.142,-63.537,-43.579,-15.075,1
2.705525,0.664,0.11,-0.132,-63.537,-39.428,-12.634,1
2.712586,0.677,0.118,-0.125,-60.668,-35.949,-10.559,1
2.721067,0.667,0.127,-0.134,-59.082,-32.348,-8.972,1
2.728035,0.663,0.129,-0.142,-58.776,-29.296,-7.324,1
2.735591,0.664,0.13,-0.156,-60.18,-25.634,-5.737,1
2.744021,0.674,0.125,-0.171,-62.988,-22.277,-4.272,1
2.750882,0.685,0.127,-0.197,-64.636,-19.592,-3.051,1
2.758685,0.703,0.131,-0.207,-62.805,-17.333,-1.525,1
2.76686,0.74,0.142,-0.21,-56.823,-15.258,-0.61,1
2.773686,0.741,0.156,-0.229,-49.133,-12.878,0.976,1
2.782,0.72,0.173,-0.255,-43.273,-11.169,1.586,1
2.789117,0.72,0.18,-0.273,-38.94,-9.643,1.953,1
2.795915,0.713,0.189,-0.286,-34.057,-7.751,2.197,1
2.803581,0.715,0.208,-0.291,-26.794,-6.347,2.258,1
2.811415,0.749,0.207,-0.301,-19.226,-5.065,2.258,1
2.819644,0.743,0.203,-0.312,-15.502,-3.479,2.441,1
2.826493,0.75,0.206,-0.337,-14.77,-1.708,2.685,1
2.83469,0.755,0.203,-0.364,-16.174,-0.305,2.441,1
2.841942,0.783,0.197,-0.386,-16.845,1.281,2.441,1
2.849143,0.798,0.192,-0.399,-17.883,2.258,2.502,1
2.857094,0.804,0.189,-0.418,-18.737,3.967,2.685,1
2.86532,0.802,0.192,-0.432,-19.47,4.943,2.746,1
2.871965,0.806,0.198,-0.442,-18.005,6.042,3.234,1
2.880288,0.816,0.205,-0.454,-15.075,6.896,3.112,1
2.887321,0.821,0.207,-0.46,-11.291,7.69,3.112,1
2.895437,0.829,0.21,-0.463,-7.385,8.544,3.295,1
2.903216,0.826,0.212,-0.477,-4.394,9.399,3.173,1
2.909456,0.818,0.213,-0.483,-2.99,10.131,3.295,1
2.916977,0.816,0.211,-0.497,-2.685,10.925,3.051,1
2.925119,0.814,0.207,-0.507,-3.051,12.023,2.99,1
2.932088,0.812,0.21,-0.512,-2.99,12.634,3.112,1
2.940371,0.807,0.209,-0.524,-3.051,13.244,2.868,1
2.946661,0.805,0.207,-0.531,-3.295,14.038,2.685,1
2.95471,0.806,0.205,-0.546,-3.784,14.465,2.807,1
2.961382,0.812,0.208,-0.561,-5.004,14.831,2.441,1
2.969194,0.805,0.214,-0.575,-5.676,15.197,2.258,1
2.977522,0.805,0.225,-0.597,-5.004,15.502,2.258,1
2.98417,0.794,0.222,-0.616,-4.089,15.075,2.014,1
2.991071,0.79,0.224,-0.626,-3.173,15.014,1.77,1
2.998995,0.781,0.221,-0.631,-2.197,14.648,1.464,1
3.005669,0.78,0.223,-0.634,0.305,14.343,1.525,1
3.012822,0.779,0.217,-0.642,2.685,13.793,1.647,1
3.019991,0.774,0.208,-0.645,4.211,13.488,1.281,1
3.028112,0.773,0.2,-0.649,5.554,13.061,1.525,1
3.034806,0.779,0.198,-0.656,5.126,13.0,1.647,1
3.042739,0.784,0.201,-0.668,3.479,12.817,1.831,1
3.050396,0.78,0.212,-0.68,1.953,12.573,1.77,1
3.057125,0.775,0.224,-0.69,1.464,12.207,1.953,1
3.065277,0.762,0.228,-0.705,1.647,11.901,1.831,1
3.071804,0.758,0.236,-0.716,0.854,10.925,2.197,1
3.079145,0.75,0.236,-0.728,0.244,10.314,1.708,1
3.08722,0.746,0.241,-0.735,0.854,9.521,1.586,1
3.093789,0.743,0.239,-0.736,2.929,8.3,1.22,1
3.101155,0.743,0.241,-0.728,4.394,7.385,1.281,1
3.10778,0.747,0.232,-0.721,5.859,6.591,1.098,1
3.115763,0.742,0.236,-0.714,6.286,5.737,0.793,1
3.12229,0.743,0.226,-0.715,5.554,5.187,0.549,1
3.130015,0.745,0.224,-0.711,4.15,4.821,0.427,1
3.13841,0.742,0.229,-0.707,3.417,4.394,0.427,1
3.144573,0.739,0.227,-0.711,3.295,3.906,0.488,1
3.152065,0.731,0.225,-0.717,3.051,3.295,0.488,1
3.158632,0.734,0.226,-0.72,1.77,2.746,0.427,1
3.166924,0.738,0.221,-0.721,0.061,2.441,0.61,1
3.173299,0.74,0.22,-0.714,-1.037,1.647,0.427,1
3.18098,0.748,0.227,-0.716,0.122,0.976,0.61,1
3.188768,0.745,0.224,-0.718,2.136,0.0,0.915,1
3.195238,0.741,0.219,-0.715,2.929,-0.671,0.61,1
3.203659,0.746,0.216,-0.716,3.295,-1.464,0.549,1
3.210245,0.748,0.215,-0.709,3.662,-2.014,0.671,1
3.218266,0.754,0.215,-0.7,4.638,-2.929,0.915,1
3.225114,0.761,0.212,-0.695,5.187,-3.417,1.342,1
3.23391,0.762,0.217,-0.688,4.516,-3.601,1.22,1
3.240403,0.76,0.217,-0.684,2.99,-3.845,1.586,1
3.248676,0.756,0.225,-0.678,1.159,-4.028,1.525,1
3.255623,0.763,0.227,-0.674,-0.427,-4.272,1.647,1
3.262274,0.762,0.235,-0.668,-0.976,-4.699,1.342,1
3.270353,0.762,0.237,-0.663,-0.427,-4.821,1.342,1
3.278406,0.761,0.241,-0.652,1.22,-5.187,1.281,1
3.285019,0.77,0.238,-0.645,3.112,-5.859,1.403,1
3.292642,0.768,0.229,-0.636,3.845,-5.798,1.098,1
3.301222,0.766,0.226,-0.627,4.028,-5.859,1.281,1
3.30838,0.763,0.223,-0.622,3.967,-5.615,0.976,1
3.315519,0.76,0.217,-0.62,3.112,-5.493,1.281,1
3.323094,0.756,0.211,-0.617,2.075,-5.187,1.403,1
3.329649,0.755,0.211,-0.612,1.037,-4.76,1.342,1
3.337421,0.758,0.212,-0.61,0.488,-4.638,1.281,1
3.345548,0.761,0.213,-0.6,1.22,-4.638,1.525,1
3.352408,0.764,0.213,-0.594,2.624,-4.028,1.159,1
3.35915,0.766,0.214,-0.588,3.723,-3.967,1.159,1
3.367181,0.764,0.21,-0.579,4.211,-3.54,1.403,1
3.373682,0.76,0.21,-0.574,4.028,-2.868,1.22,1
3.381378,0.764,0.207,-0.563,4.211,-2.685,1.525,1
3.389253,0.768,0.211,-0.559,4.882,-2.197,1.586,1
3.397601,0.767,0.211,-0.56,5.493,-1.525,1.77,1
3.404042,0.76,0.213,-0.555,5.432,-0.976,1.831,1
3.410996,0.759,0.211,-0.555,4.15,-0.488,2.136,1
3.418982,0.758,0.208,-0.558,1.464,0.488,2.502,1
3.425563,0.757,0.208,-0.562,-1.342,1.22,2.685,1
3.433335,0.757,0.212,-0.563,-2.197,1.953,2.807,1
3.441826,0.756,0.214,-0.567,-2.38,2.136,3.112,1
3.447987,0.751,0.221,-0.564,-1.464,2.258,3.417,1
3.456478,0.749,0.223,-0.568,0.122,2.563,3.662,1
3.462773,0.744,0.229,-0.575,2.197,2.502,4.028,1
3.470661,0.735,0.238,-0.575,4.15,2.441,3.845,1
3.477904,0.737,0.237,-0.579,4.577,2.868,4.089,1
3.485383,0.743,0.244,-0.588,3.601,2.807,4.333,1
3.493349,0.738,0.245,-0.591,2.136,3.173,4.211,1
3.500887,0.748,0.252,-0.608,-0.061,3.479,4.516,1
3.507497,0.753,0.263,-0.62,-2.197,3.784,4.394,1
3.515558,0.753,0.271,-0.63,-4.455,3.845,4.455,1
3.522378,0.761,0.278,-0.64,-5.615,3.54,4.089,1
3.529297,0.764,0.286,-0.646,-5.371,3.234,4.089,1
3.537217,0.762,0.29,-0.654,-4.394,2.746,3.784,1
3.544114,0.762,0.287,-0.662,-3.051,1.892,3.601,1
3.551393,0.759,0.281,-0.666,-3.173,1.464,3.417,1
3.5594,0.763,0.279,-0.667,-3.601,0.793,2.99,1
3.565981,0.766,0.279,-0.672,-3.173,0.366,2.624,1
3.574055,0.76,0.274,-0.678,-2.807,-0.061,2.441,1
3.582652,0.75,0.27,-0.685,-2.746,-0.732,2.38,1
3.589116,0.747,0.27,-0.685,-3.173,-0.854,1.953,1
3.595963,0.74,0.267,-0.688,-2.99,-1.464,1.892,1
3.603946,0.738,0.261,-0.682,-1.403,-1.892,1.403,1
3.610642,0.741,0.264,-0.684,0.549,-2.319,1.159,1
3.618024,0.736,0.261,-0.679,2.319,-2.99,0.793,1
3.625225,0.74,0.25,-0.675,3.662,-3.54,0.549,1
3.632914,0.742,0.251,-0.667,5.126,-4.211,0.183,1
3.639921,0.748,0.243,-0.663,6.286,-4.577,0.122,1
3.648381,0.747,0.241,-0.654,6.164,-5.065,0.0,1
3.65468,0.754,0.229,-0.645,5.31,-5.554,-0.061,1
3.662737,0.757,0.222,-0.637,3.784,-5.31,-0.244,1
3.669384,0.758,0.22,-0.629,2.624,-5.371,-0.244,1
3.676658,0.751,0.219,-0.616,2.319,-5.554,-0.183,1
3.684562,0.75,0.212,-0.605,2.502,-5.371,0.061,1
3.691389,0.751,0.211,-0.6,2.929,-5.004,0.061,1
3.699214,0.752,0.211,-0.592,3.723,-4.943,0.366,1
3.706059,0.756,0.209,-0.583,4.638,-4.76,0.61,1
3.71435,0.759,0.206,-0.581,4.821,-4.516,0.793,1
3.72187,0.769,0.204,-0.574,4.882,-4.272,1.037,1
3.7285,0.78,0.205,-0.572,5.187,-3.906,1.403,1
3.73679,0.782,0.208,-0.569,5.615,-3.662,1.647,1
3.743784,0.781,0.209,-0.563,5.432,-3.356,1.953,1
3.750506,0.786,0.21,-0.559,5.432,-2.807,2.441,1
3.758122,0.79,0.217,-0.556,3.967,-2.441,2.868,1
3.765104,0.785,0.225,-0.555,2.99,-1.831,2.99,1
3.77274,0.777,0.23,-0.551,2.502,-1.342,3.295,1
3.77971,0.77,0.237,-0.546,3.051,-0.976,3.417,1
3.787896,0.767,0.241,-0.544,3.479,-0.732,3.723,1
3.795097,0.77,0.239,-0.543,3.54,-0.122,3.662,1
3.802359,0.768,0.242,-0.544,3.601,0.366,3.601,1
3.809445,0.758,0.253,-0.541,4.272,0.671,3.601,1
3.817916,0.75,0.25,-0.547,5.676,0.915,3.845,1
3.824763,0.739,0.26,-0.552,6.591,1.464,3.784,1
3.832997,0.738,0.257,-0.559,7.263,1.831,3.601,1
3.839472,0.74,0.264,-0.565,6.774,2.258,3.234,1
3.846312,0.735,0.263,-0.578,5.92,2.807,3.051,1
3.854588,0.733,0.264,-0.593,5.004,3.112,2.807,1
3.861273,0.744,0.278,-0.612,5.31,3.051,2.807,1
3.867957,0.746,0.277,-0.631,7.324,2.99,2.136,1
3.87542,0.749,0.271,-0.656,8.666,2.075,1.892,1
3.883438,0.759,0.26,-0.677,8.178,1.586,1.647,1
3.891484,0.784,0.255,-0.684,6.042,0.915,1.77,1
3.898052,0.788,0.257,-0.687,4.577,0.183,1.892,1
3.905955,0.793,0.262,-0.689,4.577,-0.61,1.892,1
3.912708,0.792,0.26,-0.691,4.76,-1.647,2.258,1
3.921029,0.779,0.259,-0.695,4.089,-2.197,2.136,1
3.927883,0.78,0.257,-0.702,3.601,-2.807,2.075,1
3.935633,0.785,0.263,-0.705,2.868,-3.112,2.075,1
3.94362,0.792,0.269,-0.7,3.601,-3.967,2.319,1
3.951544,0.785,0.275,-0.7,4.821,-4.577,2.136,1
3.958097,0.777,0.277,-0.686,6.469,-5.187,2.502,1
3.966119,0.773,0.271,-0.682,6.835,-5.676,2.685,1
3.972754,0.762,0.272,-0.671,6.042,-5.981,2.502,1
3.980967,0.767,0.273,-0.663,4.455,-6.164,2.502,1
3.988571,0.757,0.274,-0.657,3.234,-6.652,2.563,1
3.996689,0.749,0.275,-0.639,2.746,-6.53,2.563,1
4.003042,0.754,0.272,-0.623,2.258,-6.53,2.624,1
4.011164,0.756,0.277,-0.61,1.403,-6.713,2.563,1
4.018975,0.75,0.277,-0.599,1.831,-6.53,2.441,1
4.026801,0.746,0.284,-0.587,2.258,-6.469,2.258,1
4.033627,0.746,0.283,-0.578,3.051,-6.225,2.075,1
4.040687,0.747,0.284,-0.57,2.929,-6.164,1.892,1
4.049178,0.744,0.282,-0.565,3.173,-5.981,1.892,1
4.055863,0.747,0.277,-0.557,3.234,-5.737,1.831,1
4.064296,0.746,0.28,-0.546,3.295,-5.371,1.77,1
4.070915,0.753,0.28,-0.538,3.295,-4.76,1.647,1
4.079141,0.758,0.28,-0.529,2.807,-4.211,1.708,1
4.08695,0.763,0.281,-0.525,1.831,-3.601,1.586,1
4.093776,0.77,0.284,-0.517,1.403,-2.929,1.586,1
4.101649,0.77,0.285,-0.514,1.403,-2.258,1.647,1
4.108313,0.775,0.287,-0.508,2.197,-1.708,1.708,1
4.116264,0.78,0.287,-0.503,2.502,-0.976,1.586,1
4.122893,0.774,0.282,-0.502,2.868,-0.305,1.586,1
4.131459,0.766,0.282,-0.497,2.868,0.427,1.708,1
4.13831,0.749,0.285,-0.497,4.211,0.915,1.22,1
4.145015,0.76,0.281,-0.489,7.507,1.159,0.915,1
4.152639,0.704,0.296,-0.469,13.916,1.647,1.281,1
4.159299,0.75,0.288,-0.482,16.784,2.502,1.342,1
4.16681,0.765,0.282,-0.491,15.991,2.929,1.403,1
4.175221,0.762,0.279,-0.503,12.084,4.333,1.403,1
4.181863,0.761,0.286,-0.514,7.202,5.371,1.403,1
4.188722,0.763,0.29,-0.526,4.333,6.164,1.403,1
4.196911,0.76,0.292,-0.535,3.54,6.591,1.464,1
4.204695,0.75,0.286,-0.543,5.187,6.835,1.403,1
4.211194,0.75,0.279,-0.56,7.324,6.774,1.403,1
4.218288,0.75,0.273,-0.568,8.544,7.202,1.586,1
4.226798,0.756,0.272,-0.585,8.605,7.385,1.953,1
4.233114,0.765,0.263,-0.604,7.751,7.507,2.136,1
4.241104,0.778,0.269,-0.621,7.812,7.385,2.502,1
4.248357,0.793,0.272,-0.64,7.263,7.507,2.99,1
4.255145,0.797,0.28,-0.661,5.615,7.019,3.356,1
4.26313,0.801,0.28,-0.67,3.173,7.141,3.662,1
4.269594,0.797,0.283,-0.676,0.488,6.652,3.723,1
4.278117,0.799,0.283,-0.685,-2.868,6.103,4.15,1
4.284564,0.788,0.295,-0.694,-5.31,5.493,4.272,1
4.29242,0.767,0.296,-0.695,-6.042,4.882,4.516,1
4.298899,0.749,0.299,-0.697,-6.164,4.272,4.516,1
4.306852,0.737,0.29,-0.7,-6.042,3.601,4.577,1
4.314976,0.733,0.285,-0.705,-5.859,3.295,4.333,1
4.321438,0.728,0.286,-0.705,-5.737,2.563,4.577,1
4.329535,0.735,0.292,-0.708,-4.882,1.892,4.516,1
4.336051,0.734,0.292,-0.712,-2.99,0.976,4.394,1
4.3442,0.732,0.289,-0.708,-0.732,-0.061,3.845,1
4.351179,0.726,0.284,-0.712,0.793,-1.22,3.906,1
4.359527,0.733,0.286,-0.704,1.77,-2.258,4.028,1
4.366788,0.733,0.283,-0.698,2.136,-2.929,3.784,1
4.373683,0.737,0.285,-0.692,1.708,-3.601,3.662,1
4.380317,0.734,0.288,-0.683,0.671,-4.15,3.479,1
4.389154,0.731,0.286,-0.674,0.244,-4.638,3.356,1
4.395264,0.729,0.287,-0.672,-0.427,-5.371,3.051,1
4.402902,0.734,0.286,-0.659,-1.037,-5.737,2.99,1
4.410838,0.734,0.283,-0.651,-1.098,-6.164,2.868,1
4.418744,0.738,0.283,-0.641,-0.915,-6.774,2.929,1
4.425154,0.738,0.277,-0.624,0.427,-7.08,2.685,1
4.432962,0.744,0.276,-0.617,1.586,-7.507,2.563,1
4.440611,0.748,0.271,-0.602,2.319,-7.751,2.868,1
4.44883,0.759,0.268,-0.589,2.624,-7.446,2.99,1
4.455442,0.755,0.271,-0.58,2.441,-7.263,3.234,1
4.462394,0.754,0.268,-0.562,1.464,-7.019,3.662,1
4.470355,0.758,0.265,-0.553,0.549,-6.408,3.967,1
4.477525,0.756,0.259,-0.543,-1.159,-5.92,4.394,1
4.485344,0.748,0.258,-0.536,-2.624,-4.882,4.394,1
4.49326,0.747,0.251,-0.539,-3.845,-4.394,4.699,1
4.50092,0.744,0.256,-0.533,-4.577,-3.295,5.126,1
4.508151,0.742,0.258,-0.537,-5.249,-2.746,5.187,1
4.515767,0.741,0.25,-0.537,-5.737,-1.953,5.737,1
4.523565,0.739,0.241,-0.538,-6.225,-1.464,6.164,1
4.530474,0.739,0.235,-0.537,-6.408,-0.732,6.835,1
4.538919,0.735,0.222,-0.537,-6.103,-0.366,7.324,1
4.545683,0.73,0.211,-0.537,-5.31,0.366,8.117,1
4.552963,0.724,0.211,-0.533,-4.211,0.915,9.033,1
4.559883,0.722,0.203,-0.536,-3.54,1.77,9.948,1
4.567963,0.722,0.203,-0.538,-2.441,2.624,11.23,1
4.57617,0.713,0.201,-0.538,-2.258,3.784,12.512,1
4.582726,0.705,0.197,-0.546,-2.868,4.882,13.427,1
4.590866,0.688,0.191,-0.552,-3.54,6.103,14.892,1
4.599062,0.673,0.184,-0.562,-5.187,7.263,15.991,1
4.60686,0.653,0.181,-0.582,-7.812,8.605,17.395,1
4.613089,0.641,0.169,-0.598,-10.437,10.07,18.615,1
4.621368,0.626,0.162,-0.624,-12.939,11.535,20.446,1
4.628116,0.62,0.159,-0.662,-15.014,12.512,21.85,1
4.635797,0.597,0.15,-0.726,-17.272,13.366,23.376,1
4.644307,0.553,0.14,-0.809,-20.202,13.854,24.841,1
4.650746,0.514,0.126,-0.889,-23.742,14.099,26.245,1
4.658777,0.473,0.11,-0.983,-26.977,14.282,28.015,1
4.667109,0.445,0.087,-1.115,-30.029,14.282,29.785,1
4.674159,0.397,0.034,-1.296,-39.733,13.732,31.738,1
4.680618,0.362,-0.014,-1.476,-56.823,13.244,34.484,1
4.688864,0.335,-0.077,-1.781,-79.406,11.718,38.146,1
4.697054,0.328,-0.142,-2.081,-104.064,7.385,43.518,1
4.703547,0.329,-0.213,-2.413,-117.309,1.953,47.912,1
4.71173,0.303,-0.29,-2.731,-127.014,-9.399,54.626,1
4.719397,0.283,-0.383,-3.045,-131.042,-21.362,61.157,1
4.727574,0.226,-0.49,-3.347,-142.639,-36.071,67.626,1
4.735561,0.113,-0.59,-3.625,-153.686,-51.33,75.561,1
4.743842,0.011,-0.695,-3.9,-160.156,-70.8,84.045,1
4.751407,-0.112,-0.817,-4.111,-166.076,-91.369,94.36,1
4.759287,-0.247,-0.898,-4.265,-176.818,-112.182,106.018,1
4.766264,-0.346,-0.931,-4.401,-189.208,-137.084,121.215,1
4.773894,-0.523,-0.944,-4.49,-199.951,-159.79,135.742,1
4.782413,-0.722,-0.905,-4.516,-208.618,-182.067,151.123,1
4.789313,-0.951,-0.795,-4.504,-206.665,-205.749,166.809,1
4.797736,-1.206,-0.674,-4.437,-196.289,-230.529,182.189,1
4.804384,-1.448,-0.559,-4.323,-188.964,-253.967,197.326,1
4.812947,-1.722,-0.37,-4.169,-185.791,-276.123,211.791,1
4.82058,-2.071,-0.112,-3.971,-188.72,-299.255,227.6,1
4.827521,-2.325,0.14,-3.817,-191.894,-319.335,240.722,1
4.835452,-2.603,0.44,-3.597,-190.856,-339.843,252.624,1
4.843747,-2.838,0.805,-3.302,-188.537,-359.802,263.122,1
4.851328,-3.094,1.229,-2.9,-174.987,-379.455,270.629,1
4.859388,-3.373,1.657,-2.468,-154.724,-395.08,274.536,1
4.866649,-3.636,2.069,-2.083,-135.925,-408.874,273.864,1
4.875217,-3.816,2.444,-1.656,-116.516,-420.959,269.653,1
4.882223,-3.925,2.901,-1.102,-89.355,-430.725,261.474,1
4.89057,-3.884,3.298,-0.551,-50.476,-442.199,246.398,1
4.898701,-3.831,3.671,0.068,-18.737,-448.303,228.088,1
4.905031,-3.788,4.103,0.808,4.272,-451.477,204.223,1
4.913538,-3.654,4.413,1.598,12.451,-444.396,176.391,1
4.919733,-3.418,4.611,2.285,0.244,-430.358,146.179,1
4.927443,-3.113,4.746,2.898,-24.291,-411.56,115.966,1
4.935251,-2.752,4.866,3.51,-29.479,-392.639,89.782,1
4.942216,-2.331,4.73,3.964,-33.874,-365.6,59.02,1
4.950207,-1.911,4.497,4.206,-53.405,-335.266,30.09,1
4.958179,-1.414,4.279,4.358,-70.983,-300.537,2.624,1
4.964821,-1.016,3.993,4.297,-69.58,-271.728,-22.033,1
4.972249,-0.654,3.608,4.237,-62.316,-243.53,-43.64,1
4.980521,-0.288,3.179,4.054,-64.392,-217.041,-61.34,1
4.988846,-0.003,2.807,3.941,-66.04,-193.725,-75.561,1
4.995723,0.257,2.408,3.761,-57.739,-169.494,-86.669,1
5.003671,0.482,2.047,3.54,-55.114,-145.507,-96.679,1
5.011682,0.627,1.728,3.309,-55.297,-124.694,-103.149,1
5.019149,0.751,1.451,3.034,-56.579,-110.229,-107.238,1
5.027434,0.85,1.187,2.777,-58.593,-92.163,-111.511,1
5.035067,0.912,0.962,2.519,-61.218,-79.772,-113.159,1
5.043226,0.951,0.759,2.291,-63.842,-69.885,-113.525,1
5.051002,0.999,0.612,2.153,-58.715,-62.011,-113.159,1
5.057768,0.975,0.51,2.074,-35.034,-55.419,-112.243,1
5.065794,0.931,0.4,1.981,-7.873,-47.119,-111.145,1
5.073723,0.891,0.295,1.886,-1.953,-38.391,-109.619,1
5.082317,0.849,0.208,1.797,-5.554,-29.052,-107.849,1
5.089504,0.788,0.144,1.691,-11.718,-19.592,-105.346,1
5.097786,0.729,0.066,1.557,-18.066,-9.826,-102.355,1
5.106194,0.705,0.002,1.423,-23.62,-2.014,-99.06,1
5.114324,0.683,-0.056,1.268,-30.7,4.394,-94.848,1
5.12238,0.673,-0.091,1.163,-35.766,8.605,-90.454,1
5.128854,0.654,-0.12,1.075,-30.883,12.39,-85.693,1
5.136248,0.655,-0.148,1.022,-21.423,15.014,-81.359,1
5.144424,0.664,-0.203,0.95,-14.282,18.005,-76.66,1
5.152229,0.657,-0.24,0.876,-13.854,21.423,-71.166,1
5.15882,0.67,-0.26,0.775,-15.808,24.963,-65.246,1
5.167049,0.696,-0.278,0.675,-14.831,26.672,-59.753,1
5.173992,0.724,-0.304,0.57,-13.305,27.832,-54.138,1
5.182083,0.748,-0.323,0.465,-15.319,28.625,-48.828,1
5.190137,0.75,-0.309,0.383,-17.944,28.93,-43.395,1
5.19882,0.748,-0.294,0.309,-20.69,28.259,-38.635,1
5.20567,0.749,-0.278,0.26,-22.033,27.221,-34.118,1
5.21377,0.752,-0.25,0.244,-17.761,25.756,-30.273,1
5.220537,0.737,-0.234,0.23,-13.488,24.597,-26.672,1
5.228014,0.706,-0.213,0.229,-13.0,23.559,-23.071,1
5.236917,0.689,-0.188,0.228,-11.657,23.254,-19.409,1
5.243485,0.708,-0.175,0.207,-8.911,22.277,-15.441,1
5.251476,0.73,-0.169,0.176,-8.422,21.728,-12.268,1
5.259675,0.757,-0.16,0.14,-10.62,20.935,-8.972,1
5.266614,0.783,-0.135,0.102,-12.451,19.836,-6.042,1
5.274477,0.802,-0.099,0.074,-11.901,18.188,-3.112,1
5.282677,0.828,-0.06,0.057,-9.826,15.991,-0.549,1
5.290914,0.833,-0.023,0.056,-9.338,13.793,2.197,1
5.29734,0.836,0.013,0.058,-9.582,11.901,4.333,1
5.305671,0.839,0.054,0.068,-9.704,9.704,6.591,1
5.312398,0.853,0.118,0.089,-7.873,7.141,8.789,1
5.320368,0.856,0.175,0.122,-6.53,5.676,10.437,1
5.32813,0.861,0.22,0.152,-7.629,4.028,12.145,1
5.335891,0.863,0.274,0.181,-6.347,3.234,13.549,1
5.342309,0.888,0.32,0.177,-1.342,2.136,14.343,1
5.350001,0.906,0.357,0.166,0.61,1.22,15.136,1
5.358164,0.905,0.391,0.174,-0.427,0.244,15.258,1
5.364979,0.907,0.425,0.176,-1.159,-0.244,15.075,1
5.371833,0.918,0.458,0.18,-0.976,-1.281,14.465,1
5.379542,0.922,0.469,0.187,-0.915,-1.831,13.793,1
5.387615,0.921,0.474,0.189,-3.295,-2.563,13.183,1
5.396205,0.92,0.498,0.201,-4.211,-2.99,12.023,1
5.402658,0.929,0.501,0.206,-3.295,-3.479,10.925,1
5.411262,0.935,0.507,0.197,-1.953,-4.15,9.948,1
5.417392,0.943,0.502,0.191,-0.793,-4.76,8.666,1
5.425052,0.966,0.488,0.178,-1.708,-5.493,7.629,1
5.432066,0.98,0.484,0.173,-2.502,-6.408,6.774,1
5.440201,0.981,0.492,0.182,-2.258,-7.568,5.92,1
5.448602,0.992,0.491,0.2,-2.319,-8.422,5.126,1
5.455383,0.927,0.473,0.209,-7.568,-8.789,4.516,1
5.463754,0.97,0.479,0.21,-11.108,-8.544,3.784,1
5.470596,0.957,0.502,0.226,-8.178,-10.192,2.624,1
5.478891,0.957,0.483,0.249,-3.234,-10.559,1.953,1
5.486075,0.952,0.465,0.251,-3.234,-11.169,1.281,1
5.494227,0.932,0.462,0.264,-3.723,-10.742,0.305,1
5.500663,0.922,0.46,0.259,-4.394,-10.925,0.0,1
5.508529,0.901,0.465,0.279,-5.859,-10.925,-0.671,1
5.516618,0.875,0.46,0.291,-7.507,-10.681,-1.342,1
5.524107,0.863,0.458,0.303,-7.873,-10.559,-2.075,1
5.532368,0.845,0.443,0.317,-6.469,-10.681,-2.563,1
5.539319,0.844,0.437,0.322,-5.249,-10.498,-2.807,1
5.547805,0.844,0.416,0.329,-5.92,-10.192,-2.807,1
5.556121,0.838,0.402,0.328,-8.605,-10.07,-2.746,1
5.562571,0.835,0.398,0.339,-10.681,-9.765,-2.868,1
5.572737,0.845,0.398,0.361,-9.338,-9.765,-2.563,1
5.579517,0.847,0.384,0.381,-6.591,-9.216,-2.38,1
5.586308,0.856,0.369,0.387,-6.408,-8.422,-2.319,1
5.594546,0.873,0.365,0.391,-7.019,-7.263,-2.136,1
5.603099,0.887,0.358,0.39,-7.69,-6.408,-2.014,1
5.609942,0.896,0.35,0.383,-8.483,-5.432,-1.708,1
5.617575,0.908,0.343,0.379,-9.216,-4.943,-1.464,1
5.625654,0.915,0.34,0.368,-10.009,-4.089,-0.915,1
5.633077,0.92,0.338,0.358,-10.07,-3.845,-0.305,1
5.64067,0.92,0.345,0.344,-8.972,-3.906,0.0,1
5.648949,0.92,0.342,0.335,-6.408,-4.028,0.244,1
5.655787,0.916,0.344,0.33,-3.356,-4.333,0.915,1
5.662653,0.906,0.344,0.323,-1.586,-4.272,0.915,1
5.670944,0.895,0.349,0.311,-2.014,-4.394,1.22,1
5.677717,0.878,0.355,0.306,-3.601,-4.211,1.281,1
5.686701,0.871,0.356,0.309,-3.906,-4.638,1.464,1
5.693519,0.863,0.368,0.317,-3.601,-4.76,1.647,1
5.701078,0.856,0.379,0.324,-3.479,-4.821,1.708,1
5.709151,0.848,0.388,0.324,-4.333,-4.882,1.647,1
5.71562,0.843,0.392,0.331,-5.187,-4.76,1.403,1
5.723587,0.848,0.395,0.334,-4.943,-4.516,1.098,1
5.731054,0.854,0.387,0.336,-2.319,-4.638,1.22,1
5.737742,0.866,0.386,0.332,2.624,-5.126,1.22,1
5.745843,0.871,0.378,0.323,6.835,-5.187,0.915,1
5.752937,0.892,0.357,0.323,8.972,-5.371,1.22,1
5.759713,0.893,0.349,0.312,9.704,-4.943,1.953,1
5.767413,0.895,0.343,0.303,10.925,-4.943,2.563,1
5.774544,0.901,0.348,0.299,13.488,-5.432,2.868,1
5.782171,0.898,0.347,0.293,16.662,-5.981,3.173,1
5.789315,0.896,0.351,0.298,19.592,-6.774,3.417,1
5.797941,0.887,0.355,0.322,18.981,-6.53,3.784,1
5.806085,0.891,0.355,0.327,14.16,-5.981,3.845,1
5.812457,0.891,0.355,0.338,8.422,-5.493,4.089,1
5.81922,0.894,0.364,0.343,5.187,-5.065,4.577,1
5.827351,0.899,0.368,0.339,5.126,-5.004,4.699,1
5.835289,0.902,0.37,0.337,6.286,-5.004,5.004,1
5.842082,0.901,0.369,0.334,6.225,-4.76,5.371,1
5.849193,0.899,0.369,0.326,3.234,-4.272,5.31,1
5.857652,0.897,0.374,0.319,-0.671,-4.089,5.554,1
5.865752,0.896,0.384,0.315,-0.732,-4.15,5.432,1
5.872367,0.899,0.398,0.308,1.953,-4.638,5.249,1
5.880447,0.889,0.396,0.315,4.882,-4.943,5.249,1
5.887449,0.883,0.4,0.316,6.347,-5.249,5.126,1
5.895648,0.881,0.408,0.32,6.53,-5.126,4.943,1
5.90264,0.876,0.408,0.324,5.676,-4.943,4.638,1
5.910675,0.871,0.416,0.329,3.662,-4.882,4.516,1
5.918308,0.88,0.414,0.333,2.197,-4.943,4.455,1
5.925052,0.889,0.418,0.337,1.647,-4.455,4.15,1
5.932933,0.887,0.415,0.337,1.098,-4.455,3.906,1
5.940156,0.891,0.41,0.338,-0.122,-4.028,3.723,1
5.947038,0.889,0.412,0.339,-1.037,-3.723,3.723,1
5.955177,0.887,0.417,0.339,-1.098,-3.601,3.845,1
5.963632,0.89,0.419,0.332,-0.305,-3.479,3.784,1
5.970361,0.89,0.416,0.327,-0.305,-3.54,3.784,1
5.978488,0.887,0.421,0.322,-0.427,-3.601,3.601,1
5.985981,0.888,0.424,0.313,0.0,-3.845,3.601,1
5.993697,0.888,0.428,0.309,0.244,-4.089,3.295,1
6.0,0.883,0.428,0.314,0.427,-4.516,3.295,1
6.007984,0.88,0.429,0.316,0.427,-4.821,3.112,1
6.014474,0.874,0.436,0.324,0.976,-5.187,2.746,1
6.022191,0.869,0.436,0.334,1.708,-5.187,2.685,1
6.030255,0.87,0.435,0.336,1.953,-5.126,2.319,1
6.0373,0.859,0.436,0.345,1.037,-4.821,2.197,1
6.045123,0.852,0.437,0.338,0.0,-4.638,1.77,1
6.05193,0.855,0.435,0.331,-0.732,-3.967,1.586,1
6.06042,0.856,0.432,0.328,-0.244,-4.394,1.281,1
6.067499,0.849,0.429,0.32,1.037,-4.577,0.976,1
6.074183,0.854,0.424,0.315,2.319,-4.699,0.915,1
6.082272,0.866,0.409,0.314,2.258,-4.943,0.549,1
6.089039,0.871,0.404,0.312,2.014,-5.126,0.671,1
6.097181,0.879,0.395,0.312,0.915,-5.249,0.61,1
6.105252,0.878,0.391,0.312,1.281,-5.676,0.671,1
6.111414,0.888,0.39,0.309,1.525,-6.042,1.098,1
6.119847,0.893,0.39,0.314,0.976,-6.53,1.037,1
6.126605,0.892,0.388,0.319,0.061,-6.591,1.464,1
6.13462,0.884,0.395,0.324,0.122,-6.835,1.403,1
6.142767,0.875,0.401,0.331,0.671,-7.324,1.525,1
6.149948,0.865,0.406,0.347,2.014,-7.629,1.281,1
6.156702,0.864,0.406,0.359,3.417,-7.507,1.159,1
6.164843,0.861,0.407,0.376,4.638,-7.812,1.342,1
6.171808,0.856,0.404,0.386,4.943,-7.568,1.281,1
6.180506,0.855,0.401,0.39,2.929,-7.019,1.037,1
6.185804,0.863,0.402,0.393,-0.061,-6.103,1.098,1
6.194174,0.868,0.407,0.389,-1.464,-5.432,0.732,1
6.200203,0.88,0.405,0.38,-1.464,-4.882,0.793,1
6.208537,0.885,0.4,0.375,-0.488,-4.882,0.854,1
6.215409,0.892,0.393,0.365,0.183,-4.699,0.732,1
6.223593,0.899,0.396,0.363,0.366,-4.577,0.61,1
6.230512,0.894,0.392,0.359,0.671,-4.638,0.915,1
6.238843,0.895,0.392,0.352,1.464,-4.638,0.976,1
6.245615,0.896,0.388,0.347,2.746,-4.821,1.098,1
6.25317,0.891,0.387,0.346,4.516,-5.187,1.342,1
6.261467,0.891,0.378,0.35,7.141,-5.371,1.708,1
6.267863,0.882,0.37,0.357,10.253,-5.371,1.77,1
6.276035,0.883,0.363,0.35,12.39,-5.371,2.319,1
6.283969,0.868,0.366,0.342,14.709,-5.249,2.624,1
6.290892,0.898,0.361,0.285,13.854,-5.798,2.075,1
6.298466,0.899,0.361,0.363,12.451,-5.92,2.136,1
6.305566,0.856,0.348,0.276,19.287,-7.202,2.746,1
6.313098,0.856,0.338,0.333,24.719,-6.713,2.929,1
6.321806,0.849,0.32,0.291,24.963,-6.958,3.662,1
6.330444,0.85,0.326,0.3,22.949,-8.605,3.967,1
6.336933,0.849,0.325,0.299,19.836,-8.117,4.394,1
6.344534,0.823,0.333,0.308,13.671,-8.85,4.821,1
6.352955,0.8,0.348,0.309,9.826,-8.605,5.126,1
6.360724,0.78,0.358,0.317,6.835,-9.399,5.187,1
6.368149,0.783,0.364,0.323,6.958,-9.033,5.859,1
6.377007,0.787,0.367,0.323,6.835,-10.07,5.859,1
6.383805,0.803,0.368,0.312,3.601,-9.826,6.103,1
6.391573,0.801,0.375,0.322,-0.915,-10.681,6.469,1
6.400511,0.798,0.385,0.333,-5.432,-10.803,6.652,1
6.406941,0.827,0.397,0.351,-6.53,-11.169,6.652,1
6.41452,0.809,0.408,0.363,-5.798,-11.474,6.835,1
6.421625,0.832,0.402,0.374,-5.981,-11.962,6.652,1
6.430781,0.893,0.395,0.392,-5.493,-12.023,6.652,1
6.437672,0.855,0.398,0.384,-8.666,-10.986,6.835,1
6.445622,0.925,0.404,0.381,-10.375,-11.779,7.019,1
6.453672,0.853,0.415,0.405,-7.995,-11.108,7.141,1
6.461431,0.87,0.434,0.393,-4.577,-11.84,7.019,1
6.470711,0.876,0.421,0.405,-4.882,-11.718,6.958,1
6.477597,0.882,0.426,0.402,-7.812,-11.169,7.08,1
6.485945,0.875,0.439,0.406,-9.216,-11.23,7.08,1
6.493234,0.863,0.452,0.405,-7.934,-11.23,6.896,1
6.500848,0.855,0.455,0.402,-6.408,-11.474,6.53,1
6.508541,0.845,0.453,0.4,-6.408,-11.413,6.164,1
6.516291,0.848,0.45,0.398,-7.507,-11.535,5.981,1
6.525118,0.851,0.458,0.396,-8.3,-11.901,5.798,1
6.532926,0.839,0.464,0.404,-7.507,-11.779,5.493,1
6.541996,0.834,0.471,0.409,-7.019,-12.145,5.187,1
6.54937,0.831,0.468,0.406,-7.263,-12.145,4.821,1
6.556731,0.833,0.464,0.416,-8.972,-12.023,4.272,1
6.565962,0.832,0.46,0.417,-10.559,-11.84,4.394,1
6.573873,0.829,0.45,0.415,-11.474,-11.474,4.028,1
6.581779,0.829,0.454,0.419,-10.559,-11.596,3.723,1
6.588671,0.828,0.449,0.42,-7.263,-11.352,3.356,1
6.597746,0.831,0.443,0.42,-4.638,-11.779,3.173,1
6.604918,0.835,0.436,0.418,-1.77,-11.901,3.173,1
6.612587,0.829,0.43,0.415,-0.671,-12.084,3.112,1
6.620302,0.825,0.422,0.415,-1.037,-11.962,3.112,1
6.629452,0.823,0.412,0.413,-2.868,-12.023,3.112,1
6.636692,0.818,0.4,0.414,-5.126,-11.84,3.417,1
6.645841,0.82,0.383,0.408,-7.812,-12.084,3.845,1
6.653798,0.809,0.368,0.402,-9.887,-12.329,4.15,1
6.66203,0.811,0.341,0.396,-11.84,-12.573,4.516,1
6.66926,0.819,0.322,0.401,-13.671,-13.0,5.554,1
6.678048,0.817,0.301,0.403,-13.0,-13.671,6.286,1
6.685306,0.818,0.274,0.41,-10.375,-14.465,7.263,1
6.693553,0.816,0.244,0.41,-7.751,-15.258,8.85,1
6.701443,0.811,0.22,0.417,-7.263,-15.93,10.314,1
6.708953,0.799,0.2,0.434,-7.934,-16.601,11.962,1
6.718006,0.782,0.201,0.466,-8.117,-17.089,14.282,1
6.726007,0.763,0.2,0.49,-8.117,-17.578,15.808,1
6.73288,0.757,0.188,0.526,-7.995,-18.066,17.639,1
6.74186,0.746,0.175,0.559,-10.192,-17.883,19.287,1
6.750414,0.743,0.176,0.618,-9.399,-18.615,21.362,1
6.756823,0.729,0.207,0.713,-0.244,-20.263,23.01,1
6.765644,0.711,0.225,0.863,16.357,-21.606,23.925,1
6.772426,0.725,0.215,1.035,39.184,-23.132,25.024,1
6.780787,0.72,0.192,1.285,56.457,-22.644,26.428,1
6.788826,0.7,0.18,1.597,70.495,-20.507,28.625,1
6.795527,0.691,0.181,2.001,88.378,-15.869,31.127,1
6.802328,0.629,0.167,2.457,108.093,-8.117,33.996,1
6.809291,0.607,0.124,2.913,117.004,0.854,36.926,1
6.818516,0.538,0.12,3.32,122.07,15.014,40.954,1
6.825865,0.422,0.116,3.791,117.858,33.691,44.86,1
6.834224,0.295,0.116,4.302,109.374,55.236,49.438,1
6.843354,0.199,0.126,4.683,110.961,83.435,54.809,1
6.850447,0.078,0.099,5.057,118.713,113.525,61.218,1
6.858376,-0.023,0.072,5.308,124.023,142.456,67.077,1
6.86608,-0.188,0.048,5.479,122.863,173.583,73.608,1
6.873226,-0.392,0.037,5.58,121.582,205.993,80.688,1
6.882089,-0.685,0.045,5.62,124.999,244.689,89.843,1
6.889558,-1.005,0.096,5.555,126.953,272.705,97.045,1
6.89744,-1.343,0.176,5.425,127.807,310.607,106.811,1
6.905418,-1.703,0.279,5.253,130.737,342.59,114.929,1
6.912135,-2.077,0.417,5.023,139.587,372.131,122.985,1
6.919667,-2.456,0.548,4.752,149.658,400.878,131.347,1
6.928815,-2.854,0.698,4.45,159.118,427.429,140.319,1
6.935784,-3.338,0.89,4.055,168.151,453.002,149.353,1
6.943557,-3.733,1.065,3.656,171.874,480.712,160.034,1
6.95241,-4.148,1.327,3.242,171.142,502.319,168.395,1
6.960035,-4.594,1.695,2.695,170.043,522.155,175.537,1
6.967109,-4.932,2.008,2.183,154.724,542.358,179.565,1
6.975477,-5.23,2.362,1.641,141.235,557.189,179.138,1
6.981974,-5.546,2.709,1.061,129.76,567.565,174.56,1
6.990671,-5.612,2.981,0.479,113.586,576.11,167.724,1
6.999171,-5.809,3.283,-0.129,87.158,579.162,156.066,1
7.005794,-6.016,3.583,-0.668,58.776,583.496,139.038,1
7.012734,-5.963,3.929,-1.23,20.935,582.641,116.271,1
7.021655,-5.759,4.229,-1.72,0.305,574.218,87.707,1
7.02828,-5.434,4.387,-2.155,-8.3,561.95,56.579,1
7.036692,-5.008,4.4,-2.595,-27.587,545.837,25.695,1
7.044023,-4.508,4.361,-3.006,-56.152,527.038,-5.31,1
7.053162,-4.103,4.218,-3.454,-82.824,499.755,-41.748,1
7.060383,-3.776,4.004,-3.701,-88.439,471.618,-70.617,1
7.068408,-3.404,3.76,-3.941,-64.758,436.828,-99.548,1
7.077059,-3.148,3.474,-4.145,-32.226,403.198,-120.361,1
7.085354,-2.841,3.102,-4.287,-21.911,371.582,-136.779,1
7.091624,-2.5,2.708,-4.425,-31.372,342.468,-150.756,1
7.100859,-2.309,2.459,-4.484,-41.32,312.316,-163.696,1
7.109069,-2.062,2.081,-4.569,-40.222,276.916,-176.086,1
7.116067,-1.842,1.713,-4.644,-37.048,244.323,-184.753,1
7.124164,-1.631,1.318,-4.634,-30.7,211.975,-192.077,1
7.133143,-1.408,0.99,-4.575,-17.211,173.95,-197.387,1
7.139959,-1.222,0.685,-4.463,-4.638,143.188,-199.34,1
7.149657,-0.95,0.394,-4.337,4.272,114.624,-198.303,1
7.15684,-0.731,0.173,-4.22,-1.708,83.129,-194.641,1
7.164362,-0.595,0.002,-4.033,-18.432,58.959,-189.575,1
7.173488,-0.438,-0.12,-3.769,-32.958,36.987,-183.715,1
7.180744,-0.368,-0.214,-3.53,-42.236,12.634,-175.903,1
7.188765,-0.317,-0.322,-3.255,-49.499,-9.826,-166.564,1
7.197142,-0.247,-0.381,-2.986,-52.795,-26.55,-158.386,1
7.206369,-0.215,-0.444,-2.676,-54.443,-43.09,-147.827,1
7.213623,-0.22,-0.471,-2.424,-56.762,-55.419,-139.16,1
7.222042,-0.213,-0.475,-2.128,-54.26,-67.321,-129.15,1
7.23084,-0.188,-0.459,-1.853,-50.292,-75.5,-120.666,1
7.239829,-0.176,-0.435,-1.598,-49.926,-82.092,-112.06,1
7.249016,-0.176,-0.409,-1.409,-49.743,-86.486,-103.576,1
7.257896,-0.162,-0.375,-1.215,-46.264,-89.355,-95.947,1
7.264879,-0.125,-0.348,-1.031,-41.198,-90.881,-88.867,1
7.273724,-0.08,-0.34,-0.9,-40.222,-90.209,-83.129,1
7.282756,-0.019,-0.319,-0.765,-41.137,-89.233,-76.416,1
7.289993,0.035,-0.287,-0.638,-38.085,-87.524,-70.312,1
7.298464,0.073,-0.266,-0.533,-34.606,-84.899,-65.002,1
7.307036,0.126,-0.248,-0.457,-34.912,-81.481,-59.143,1
7.316339,0.143,-0.222,-0.399,-38.452,-77.087,-54.016,1
7.323876,0.135,-0.205,-0.373,-40.283,-73.364,-50.17,1
7.332835,0.155,-0.184,-0.329,-39.794,-69.152,-45.898,1
7.340781,0.186,-0.173,-0.3,-37.658,-65.673,-42.48,1
7.34939,0.184,-0.161,-0.26,-32.348,-62.499,-38.818,1
7.357424,0.329,-0.193,-0.247,-27.221,-58.654,-34.423,1
7.366186,0.325,-0.158,-0.187,-16.723,-55.908,-29.907,1
7.373566,0.375,-0.134,-0.182,-3.112,-52.307,-25.451,1
7.38267,0.362,-0.121,-0.188,3.295,-49.377,-22.094,1
7.390388,0.387,-0.125,-0.22,4.516,-44.982,-18.615,1
7.397749,0.436,-0.113,-0.238,3.234,-42.053,-15.197,1
7.405266,0.496,-0.096,-0.249,1.831,-37.78,-12.207,1
7.414818,0.53,-0.073,-0.268,-1.22,-34.729,-9.521,1
7.42308,0.547,-0.062,-0.281,-4.638,-31.005,-6.225,1
7.431883,0.602,-0.055,-0.286,-2.441,-28.564,-3.356,1
7.440683,0.654,-0.055,-0.267,2.38,-25.939,-0.732,1
7.447867,0.69,-0.043,-0.274,5.859,-23.254,2.38,1
7.456355,0.696,-0.022,-0.27,3.417,-19.531,5.065,1
7.464435,0.695,0.01,-0.294,-0.732,-16.296,6.958,1
7.472842,0.684,0.041,-0.323,-4.943,-13.061,9.155,1
7.480021,0.695,0.088,-0.347,-6.591,-10.192,10.803,1
7.488408,0.69,0.151,-0.387,-7.08,-7.385,12.023,1
7.497323,0.684,0.188,-0.416,-7.69,-5.187,12.634,1
7.504266,0.673,0.209,-0.446,-7.934,-3.051,13.122,1
7.511377,0.661,0.232,-0.466,-6.896,-1.22,13.305,1
7.519591,0.659,0.246,-0.481,-5.554,0.488,13.61,1
7.526835,0.691,0.251,-0.5,-5.554,1.647,13.427,1
7.53572,0.712,0.251,-0.5,-3.112,2.807,13.305,1
7.543315,0.733,0.254,-0.509,-0.732,3.479,13.61,1
7.550429,0.734,0.25,-0.526,-1.098,4.638,13.305,1
7.558515,0.729,0.252,-0.538,-4.821,6.225,13.122,1
7.566006,0.73,0.275,-0.557,-7.873,7.751,13.122,1
7.574479,0.717,0.312,-0.58,-8.911,9.155,13.183,1
7.582761,0.723,0.335,-0.608,-9.277,9.887,12.451,1
7.589305,0.721,0.343,-0.64,-10.253,10.375,11.718,1
7.597143,0.713,0.355,-0.669,-11.23,10.681,10.864,1
7.605616,0.693,0.363,-0.688,-11.779,11.047,10.07,1
7.612344,0.68,0.366,-0.707,-11.779,11.291,9.094,1
7.621845,0.673,0.367,-0.719,-11.413,11.047,8.483,1
7.628992,0.668,0.356,-0.731,-11.108,11.047,7.446,1
7.635568,0.663,0.344,-0.728,-10.131,10.498,6.774,1
7.643058,0.664,0.335,-0.732,-7.568,9.643,6.286,1
7.652141,0.666,0.327,-0.734,-5.126,8.789,6.164,1
7.659695,0.664,0.327,-0.748,-5.371,8.3,5.798,1
7.668037,0.665,0.33,-0.748,-8.239,7.69,5.554,1
7.675086,0.656,0.336,-0.753,-13.549,7.385,5.126,1
7.683702,0.648,0.342,-0.763,-15.808,6.591,4.699,1
7.691925,0.632,0.341,-0.762,-15.014,5.859,4.028,1
7.698983,0.624,0.331,-0.766,-12.39,4.882,3.601,1
7.706653,0.613,0.312,-0.76,-9.887,3.845,3.234,1
7.714135,0.616,0.301,-0.756,-7.873,3.295,3.234,1
7.723064,0.617,0.293,-0.749,-6.225,2.624,2.868,1
7.730476,0.626,0.279,-0.741,-2.563,1.708,2.868,1
7.737872,0.629,0.264,-0.742,2.441,1.037,3.051,1
7.746901,0.636,0.249,-0.737,6.042,0.366,3.051,1
7.754102,0.64,0.24,-0.745,7.568,-0.061,3.54,1
7.762937,0.643,0.235,-0.749,5.676,-0.549,3.784,1
7.769681,0.651,0.238,-0.751,3.356,-0.61,4.089,1
7.778289,0.653,0.244,-0.758,2.075,-0.976,4.272,1
7.784997,0.649,0.248,-0.76,1.708,-1.22,4.394,1
7.792843,0.64,0.245,-0.765,0.305,-1.586,4.699,1
7.800589,0.632,0.247,-0.765,-1.22,-1.77,4.699,1
7.810103,0.633,0.25,-0.763,-1.708,-1.892,4.699,1
7.817144,0.645,0.249,-0.76,-0.488,-2.319,4.821,1
7.824999,0.649,0.248,-0.766,1.77,-3.295,5.187,1
7.833705,0.647,0.242,-0.769,2.807,-4.15,5.371,1
7.840768,0.643,0.238,-0.774,3.417,-4.455,5.615,1
7.848392,0.643,0.234,-0.767,2.746,-4.943,5.676,1
7.856391,0.66,0.229,-0.77,3.417,-5.065,5.92,1
7.8658,0.665,0.22,-0.76,2.014,-5.31,6.042,1
7.872536,0.679,0.231,-0.753,0.793,-4.943,6.591,1
7.8817,0.702,0.247,-0.76,-0.732,-5.126,6.896,1
7.889679,0.694,0.262,-0.767,-2.624,-4.699,7.08,1
7.898163,0.69,0.268,-0.779,-6.286,-4.638,6.958,1
7.905041,0.696,0.278,-0.772,-8.178,-4.76,6.713,1
7.912735,0.704,0.283,-0.775,-8.85,-4.76,6.652,1
7.921639,0.695,0.287,-0.77,-7.873,-5.31,6.591,1
7.92933,0.685,0.289,-0.77,-5.615,-5.859,6.652,1
7.936791,0.685,0.286,-0.77,-2.563,-6.591,6.774,1
7.945964,0.677,0.286,-0.771,0.0,-6.896,6.958,1
7.952394,0.673,0.279,-0.776,-0.244,-7.141,6.591,1
7.961624,0.666,0.276,-0.773,-2.441,-7.019,6.774,1
7.968095,0.663,0.275,-0.772,-4.272,-7.202,6.774,1
7.977295,0.67,0.286,-0.762,-3.967,-7.507,6.713,1
7.984928,0.678,0.289,-0.767,-4.089,-7.751,6.652,1
7.993916,0.667,0.298,-0.771,-5.798,-8.056,6.347,1
8.000893,0.672,0.304,-0.768,-7.202,-8.422,6.103,1
8.009043,0.676,0.313,-0.765,-7.385,-8.789,5.615,1
8.016902,0.674,0.321,-0.759,-6.347,-9.521,5.249,1
8.025211,0.664,0.32,-0.755,-5.31,-10.131,4.943,1
8.031809,0.659,0.319,-0.746,-4.272,-10.681,4.272,1
8.039512,0.659,0.319,-0.734,-3.662,-11.23,4.211,1
8.047971,0.655,0.322,-0.724,-2.624,-10.864,3.784,1
8.055285,0.651,0.315,-0.716,-1.77,-11.169,3.662,1
8.064593,0.652,0.316,-0.709,-1.037,-11.352,3.295,1
8.071645,0.658,0.312,-0.701,-1.342,-11.352,2.807,1
8.080614,0.679,0.312,-0.693,-1.281,-11.352,2.563,1
8.087792,0.693,0.306,-0.693,-1.281,-11.718,2.136,1
8.096664,0.705,0.303,-0.686,-1.342,-11.718,1.586,1
8.103946,0.712,0.305,-0.687,-1.831,-12.023,1.403,1
8.112952,0.716,0.3,-0.682,-2.502,-12.268,0.854,1
8.120125,0.709,0.293,-0.678,-3.295,-12.451,0.61,1
8.128849,0.699,0.289,-0.672,-4.455,-12.084,0.366,1
8.135706,0.688,0.286,-0.664,-4.638,-11.901,0.305,1
8.144329,0.684,0.288,-0.663,-3.845,-11.779,0.305,1
8.153625,0.688,0.283,-0.655,-2.014,-11.352,0.122,1
8.159997,0.689,0.286,-0.658,-0.183,-10.986,0.183,1
8.169397,0.69,0.28,-0.65,-0.183,-10.925,0.061,1
8.176734,0.7,0.283,-0.645,-1.647,-10.07,0.366,1
8.184331,0.705,0.287,-0.637,-2.502,-9.765,0.366,1
8.19347,0.7,0.287,-0.633,-2.99,-9.338,0.305,1
8.202338,0.69,0.285,-0.628,-3.845,-9.033,0.366,1
8.20947,0.693,0.287,-0.63,-4.577,-8.483,0.061,1
8.217158,0.69,0.294,-0.622,-4.516,-7.934,0.183,1
8.226336,0.691,0.291,-0.619,-4.211,-7.507,-0.122,1
8.233269,0.691,0.298,-0.616,-4.089,-6.774,-0.305,1
8.24265,0.692,0.299,-0.616,-4.211,-6.53,-0.244,1
8.25066,0.686,0.301,-0.609,-4.333,-5.737,-0.488,1
8.25814,0.691,0.301,-0.606,-2.99,-5.493,-0.793,1
8.266669,0.693,0.3,-0.604,-0.793,-5.187,-1.098,1
8.275374,0.697,0.298,-0.597,1.159,-4.76,-1.342,1
8.28259,0.702,0.3,-0.597,1.464,-4.455,-1.647,1
8.291636,0.702,0.301,-0.596,0.732,-3.662,-1.892,1
8.298767,0.697,0.301,-0.588,-1.647,-2.807,-2.136,1
8.307671,0.703,0.303,-0.587,-2.929,-2.197,-2.38,1
8.315038,0.709,0.303,-0.583,-3.112,-1.831,-2.807,1
8.324515,0.718,0.31,-0.583,-2.258,-1.159,-2.929,1
8.331526,0.72,0.311,-0.585,-0.793,-0.671,-3.173,1
8.340368,0.721,0.316,-0.589,1.037,-0.488,-3.295,1
8.347683,0.722,0.32,-0.592,1.281,0.0,-3.234,1
8.355747,0.721,0.318,-0.593,0.671,0.549,-3.417,1
8.364087,0.723,0.328,-0.592,0.732,1.159,-3.54,1
8.371057,0.73,0.334,-0.594,2.929,1.647,-3.784,1
8.378029,0.732,0.329,-0.604,4.211,1.953,-4.333,1
8.385608,0.734,0.323,-0.615,4.089,2.441,-4.577,1
8.393085,0.74,0.322,-0.628,3.601,2.807,-5.126,1
8.401796,0.73,0.33,-0.641,3.601,3.173,-5.493,1
8.408439,0.723,0.324,-0.654,3.417,3.295,-5.737,1
8.418207,0.713,0.321,-0.659,2.441,3.479,-5.92,1
8.425948,0.705,0.317,-0.666,0.854,3.906,-6.53,1
8.43234,0.699,0.306,-0.672,-0.305,4.089,-7.08,1
8.440545,0.688,0.302,-0.671,-0.915,4.699,-7.507,1
8.448442,0.694,0.294,-0.672,-1.647,4.821,-7.873,1
8.45732,0.701,0.29,-0.674,-2.807,5.004,-8.178,1
8.464299,0.7,0.281,-0.683,-3.54,5.126,-8.239,1
8.472984,0.694,0.274,-0.684,-5.371,5.371,-8.483,1
8.480887,0.692,0.269,-0.687,-7.385,5.615,-8.544,1
8.488006,0.696,0.27,-0.688,-8.178,5.493,-8.789,1
8.496895,0.692,0.264,-0.691,-7.446,5.554,-9.033,1
8.504234,0.689,0.25,-0.699,-7.019,5.187,-9.094,1
8.511717,0.677,0.239,-0.703,-6.164,5.004,-9.094,1
8.520478,0.677,0.221,-0.705,-5.31,4.699,-8.972,1
8.527368,0.679,0.218,-0.714,-2.868,4.577,-8.85,1
8.536007,0.687,0.214,-0.72,-0.061,3.967,-8.361,1
8.543063,0.691,0.205,-0.731,0.732,3.295,-8.239,1
8.55224,0.689,0.199,-0.737,0.061,2.807,-7.568,1
8.559017,0.683,0.191,-0.744,-0.732,2.502,-7.263,1
8.567155,0.682,0.183,-0.743,-0.183,1.708,-6.713,1
8.575016,0.693,0.185,-0.747,1.159,0.915,-5.981,1
8.583901,0.695,0.187,-0.746,2.38,0.0,-5.126,1
8.591819,0.687,0.185,-0.745,2.136,-0.488,-4.394,1
8.599145,0.685,0.18,-0.743,0.549,-0.915,-3.845,1
8.60763,0.682,0.179,-0.739,-2.075,-1.342,-3.112,1
8.616367,0.68,0.181,-0.731,-3.295,-1.831,-2.258,1
8.623626,0.678,0.183,-0.724,-2.99,-2.197,-1.831,1
8.630946,0.675,0.187,-0.714,-2.014,-2.624,-1.159,1
8.6402,0.668,0.179,-0.704,-0.488,-3.295,-0.549,1
8.648951,0.671,0.176,-0.698,0.122,-3.479,-0.122,1
8.656003,0.678,0.178,-0.694,0.305,-3.54,0.488,1
8.663035,0.68,0.187,-0.689,0.671,-3.784,1.037,1
8.67069,0.678,0.184,-0.691,-1.586,-4.028,1.403,1
8.67839,0.675,0.188,-0.684,-4.699,-3.967,2.014,1
8.686884,0.669,0.198,-0.67,-7.019,-3.784,2.075,1
8.694376,0.67,0.21,-0.666,-6.652,-3.845,2.502,1
8.702261,0.678,0.207,-0.66,-4.211,-4.211,2.563,1
8.710768,0.687,0.205,-0.654,-1.281,-4.15,2.624,1
8.718728,0.688,0.197,-0.657,1.403,-4.516,3.051,1
8.725949,0.689,0.193,-0.652,3.662,-4.455,3.234,1
8.738221,0.714,0.19,-0.658,5.92,-4.638,3.601,1
8.747272,0.727,0.199,-0.66,7.995,-4.394,4.089,1
8.756246,0.728,0.206,-0.676,6.958,-4.821,4.577,1
8.765979,0.731,0.213,-0.676,3.845,-4.516,5.004,1
8.772612,0.741,0.223,-0.685,0.976,-4.272,5.31,1
8.781569,0.743,0.237,-0.676,-0.671,-4.394,5.615,1
8.787739,0.741,0.244,-0.676,-1.037,-4.333,5.798,1
8.794286,0.74,0.256,-0.67,0.0,-4.15,5.676,1
8.802645,0.734,0.262,-0.669,1.037,-3.845,5.737,1
8.809552,0.723,0.267,-0.676,0.915,-3.845,5.676,1
8.816769,0.714,0.272,-0.675,0.244,-3.662,5.676,1
8.825375,0.701,0.28,-0.672,-0.793,-3.356,5.371,1
8.834101,0.696,0.287,-0.67,-1.098,-3.051,5.126,1
8.84151,0.693,0.287,-0.668,-1.098,-2.99,5.004,1
8.848519,0.694,0.288,-0.668,-1.159,-2.868,4.699,1
8.856244,0.694,0.285,-0.665,-0.793,-2.685,4.211,1
8.865201,0.698,0.286,-0.656,-1.281,-2.38,4.028,1
8.872123,0.695,0.283,-0.654,-1.586,-2.014,3.601,1
8.879626,0.694,0.285,-0.651,-2.38,-1.708,3.051,1
8.888115,0.688,0.286,-0.645,-2.99,-1.464,3.112,1
8.896074,0.695,0.288,-0.649,-2.685,-1.281,2.685,1
8.904236,0.701,0.294,-0.644,-1.281,-1.098,2.563,1
8.912256,0.703,0.291,-0.648,-0.366,-1.098,2.319,1
8.919081,0.703,0.29,-0.648,-0.549,-0.793,2.014,1
8.927417,0.698,0.294,-0.649,-1.159,-0.61,1.953,1
8.93535,0.696,0.296,-0.651,-0.793,-0.488,1.831,1
8.94267,0.692,0.294,-0.653,0.122,-0.305,1.586,1
8.95178,0.7,0.29,-0.65,1.342,-0.305,1.22,1
8.959316,0.702,0.291,-0.651,3.54,-0.244,1.22,1
8.966605,0.708,0.29,-0.653,3.662,0.122,1.098,1
8.974007,0.705,0.29,-0.656,2.563,0.183,0.671,1
8.982699,0.701,0.283,-0.653,0.915,0.61,0.915,1
8.989765,0.698,0.283,-0.656,-0.427,0.732,0.793,1
8.998732,0.687,0.286,-0.655,-0.488,0.915,0.671,1
9.005985,0.686,0.283,-0.655,-0.976,1.22,0.427,1
9.01436,0.687,0.284,-0.66,-1.037,1.464,0.305,1
9.021764,0.687,0.288,-0.662,-1.403,1.403,0.061,1
9.030668,0.693,0.291,-0.665,-1.708,1.831,0.061,1
9.037326,0.699,0.288,-0.673,-2.563,1.586,-0.549,1
9.045252,0.701,0.288,-0.672,-4.638,2.075,-0.915,1
9.053311,0.689,0.284,-0.678,-5.92,1.892,-1.037,1
9.061744,0.688,0.281,-0.677,-6.042,1.586,-1.831,1
9.069815,0.687,0.275,-0.675,-5.493,1.403,-1.831,1
9.076945,0.697,0.273,-0.669,-4.211,1.098,-1.831,1
9.085925,0.693,0.268,-0.67,-2.563,1.037,-2.014,1
9.092606,0.702,0.266,-0.667,-1.342,0.671,-1.892,1
9.100735,0.706,0.257,-0.667,-2.319,0.976,-1.77,1
9.109345,0.712,0.249,-0.667,-4.882,1.098,-1.586,1
9.116729,0.726,0.247,-0.666,-7.995,1.464,-1.464,1
9.125875,0.735,0.246,-0.67,-7.812,1.281,-1.22,1
9.134431,0.74,0.244,-0.671,-4.638,1.037,-0.976,1
9.141258,0.732,0.234,-0.677,-1.22,0.793,-0.793,1
9.149504,0.728,0.233,-0.687,2.441,0.61,-0.488,1
9.157758,0.724,0.219,-0.702,5.126,0.427,-0.061,1
9.164142,0.729,0.207,-0.708,4.821,0.305,0.488,1
9.171291,0.739,0.207,-0.714,3.784,0.427,0.61,1
9.178102,0.732,0.211,-0.725,2.502,0.244,0.732,1
9.185604,0.731,0.213,-0.725,0.61,0.0,1.037,1
9.193511,0.721,0.211,-0.729,-0.793,0.366,0.915,1
9.200549,0.71,0.212,-0.732,-2.807,-0.183,1.037,1
9.209713,0.7,0.216,-0.738,-4.089,-0.305,1.342,1
9.217981,0.694,0.216,-0.733,-5.187,-0.854,1.159,1
9.225237,0.692,0.212,-0.733,-6.103,-0.976,1.159,1
9.232109,0.69,0.213,-0.729,-7.568,-1.525,1.525,1
9.239124,0.688,0.215,-0.714,-9.46,-1.647,1.281,1
9.246703,0.686,0.226,-0.699,-10.925,-1.892,1.342,1
9.255255,0.698,0.231,-0.687,-10.498,-1.953,1.342,1
9.261957,0.701,0.244,-0.683,-8.056,-2.319,1.159,1
9.269316,0.695,0.246,-0.681,-6.103,-2.746,1.281,1
9.277981,0.693,0.245,-0.679,-5.187,-2.624,1.098,1
9.285932,0.694,0.245,-0.682,-5.31,-2.685,1.037,1
9.295331,0.695,0.246,-0.675,-5.126,-2.868,0.915,1
9.302987,0.699,0.252,-0.675,-4.272,-3.051,1.22,1
9.311644,0.708,0.255,-0.666,-2.624,-3.356,1.403,1
9.318621,0.713,0.26,-0.666,-0.732,-3.417,1.831,1
9.326508,0.716,0.265,-0.664,0.305,-3.417,1.708,1
9.334814,0.72,0.27,-0.66,0.61,-3.479,1.953,1
9.342799,0.727,0.272,-0.66,0.61,-3.479,1.953,1
9.351597,0.728,0.275,-0.659,-0.732,-3.295,1.953,1
9.35832,0.731,0.275,-0.655,-2.441,-3.234,2.136,1
9.366831,0.731,0.277,-0.654,-4.943,-2.99,2.136,1
9.375161,0.741,0.282,-0.654,-7.995,-2.746,2.258,1
9.383111,0.742,0.283,-0.657,-11.169,-2.38,1.77,1
9.390358,0.739,0.284,-0.664,-13.183,-1.953,1.77,1
9.39791,0.75,0.284,-0.676,-15.624,-2.136,1.831,1
9.406489,0.745,0.292,-0.684,-16.784,-1.77,1.708,1
9.415285,0.748,0.291,-0.699,-16.296,-2.502,1.647,1
9.423966,0.703,0.289,-0.718,-14.831,-2.563,1.098,1
9.432427,0.688,0.279,-0.73,-14.77,-3.356,0.488,1
9.439346,0.704,0.262,-0.737,-16.418,-3.784,0.183,1
9.448356,0.689,0.267,-0.742,-16.296,-4.272,-0.061,1
9.456978,0.677,0.261,-0.745,-13.61,-5.126,-0.305,1
9.464127,0.692,0.245,-0.744,-13.0,-5.859,-0.549,1
9.473028,0.679,0.242,-0.742,-13.183,-6.408,-0.671,1
9.481314,0.667,0.244,-0.746,-12.084,-6.774,-1.037,1
9.490554,0.683,0.239,-0.75,-11.718,-7.446,-1.586,1
9.497165,0.69,0.235,-0.751,-10.803,-8.178,-1.831,1
9.506208,0.694,0.239,-0.753,-7.507,-9.033,-2.38,1
9.514156,0.719,0.225,-0.76,-4.516,-10.253,-2.563,1
9.522278,0.729,0.22,-0.758,-3.906,-10.803,-2.99,1
9.531427,0.741,0.217,-0.75,-4.272,-11.718,-3.051,1
9.538496,0.724,0.217,-0.73,-5.004,-12.207,-3.479,1
9.548176,0.706,0.22,-0.704,-5.004,-12.634,-3.417,1
9.554758,0.71,0.225,-0.685,-5.249,-12.512,-3.356,1
9.563367,0.706,0.226,-0.664,-5.676,-12.39,-3.417,1
9.570869,0.714,0.234,-0.647,-5.004,-11.901,-3.54,1
9.580073,0.719,0.231,-0.641,-5.859,-11.535,-3.601,1
9.58656,0.729,0.231,-0.631,-7.385,-10.864,-3.845,1
9.595903,0.726,0.228,-0.624,-8.972,-10.253,-3.479,1
9.602783,0.74,0.222,-0.626,-10.192,-9.704,-3.356,1
9.612178,0.708,0.226,-0.622,-9.826,-9.216,-3.54,1
9.619056,0.709,0.223,-0.619,-9.887,-8.544,-3.479,1
9.628284,0.725,0.215,-0.613,-9.887,-8.483,-3.417,1
9.636864,0.726,0.217,-0.604,-8.666,-7.995,-3.173,1
9.644947,0.729,0.213,-0.61,-8.117,-7.568,-2.868,1
9.652949,0.721,0.215,-0.604,-9.094,-6.958,-2.929,1
9.661557,0.732,0.21,-0.6,-10.192,-6.164,-2.868,1
9.669655,0.722,0.216,-0.592,-9.704,-5.676,-2.502,1
9.677044,0.71,0.222,-0.587,-7.263,-5.065,-2.685,1
9.685963,0.717,0.219,-0.579,-6.164,-4.516,-2.624,1
9.693313,0.722,0.214,-0.577,-7.873,-3.479,-2.563,1
9.702066,0.725,0.209,-0.578,-9.277,-2.563,-2.441,1
9.709144,0.716,0.211,-0.573,-9.582,-1.647,-2.502,1
9.718547,0.73,0.212,-0.571,-10.314,-0.976,-2.441,1
9.726028,0.734,0.213,-0.576,-10.62,-0.305,-2.685,1
9.734718,0.716,0.21,-0.571,-10.314,0.732,-2.807,1
9.742637,0.726,0.206,-0.58,-10.62,1.525,-2.929,1
9.750099,0.739,0.2,-0.575,-10.559,2.014,-3.173,1
9.759067,0.736,0.2,-0.571,-9.643,3.051,-3.234,1
9.766149,0.732,0.189,-0.571,-8.605,4.089,-3.234,1
9.773815,0.743,0.184,-0.577,-9.216,4.333,-3.112,1
9.782266,0.749,0.187,-0.57,-9.277,5.798,-3.234,1
9.79094,0.755,0.184,-0.576,-9.948,6.53,-3.295,1
9.798682,0.755,0.179,-0.571,-10.681,7.812,-3.051,1
9.807259,0.757,0.168,-0.581,-11.657,8.666,-3.051,1
9.813935,0.77,0.161,-0.584,-13.427,9.887,-2.624,1
9.822001,0.795,0.152,-0.594,-15.197,10.986,-2.197,1
9.828839,0.787,0.154,-0.596,-15.258,12.145,-1.525,1
9.83731,0.772,0.149,-0.624,-17.333,12.939,-1.22,1
9.844474,0.772,0.142,-0.63,-19.653,13.366,-1.098,1
9.853369,0.795,0.144,-0.651,-19.653,14.465,-0.427,1
9.861746,0.799,0.144,-0.67,-18.554,14.831,0.549,1
9.869378,0.771,0.141,-0.69,-18.127,15.014,1.037,1
9.877809,0.745,0.141,-0.702,-17.944,14.77,1.831,1
9.885367,0.716,0.139,-0.712,-16.357,14.526,2.197,1
9.892671,0.709,0.138,-0.72,-14.587,14.221,3.173,1
9.900109,0.699,0.147,-0.713,-12.573,14.099,3.906,1
9.908996,0.699,0.155,-0.722,-12.207,13.61,4.211,1
9.916167,0.685,0.16,-0.725,-13.916,13.793,4.333,1
9.923695,0.676,0.16,-0.728,-16.601,13.671,4.272,1
9.931732,0.682,0.169,-0.725,-16.052,13.427,4.394,1
9.940685,0.689,0.189,-0.736,-10.803,12.329,3.234,1
9.948095,0.682,0.166,-0.731,-6.774,11.108,2.38,1
9.956344,0.644,0.127,-0.746,-7.141,10.62,2.258,1
9.963672,0.641,0.099,-0.753,-13.488,10.375,2.136,1
9.971975,0.737,0.065,-0.775,-22.094,10.681,2.258,1
9.979343,0.745,0.068,-0.78,-27.099,7.751,1.77,1
9.987072,0.702,0.086,-0.75,-17.395,7.995,2.075,1
9.996655,0.687,0.082,-0.774,-10.437,4.76,2.075,1
