timestamp_s,ax,ay,az,gx,gy,gz,label
0.004913,0.089,0.992,0.066,0.549,1.647,1.831,1
0.012082,0.091,0.99,0.061,0.427,1.586,2.014,1
0.020203,0.091,0.992,0.057,0.183,1.281,2.258,1
0.027336,0.097,0.989,0.054,0.244,0.854,1.953,1
0.034157,0.096,0.987,0.047,0.183,0.549,2.014,1
0.042573,0.099,0.992,0.047,-0.183,0.183,2.258,1
0.049255,0.098,1.002,0.047,-0.305,-0.427,2.075,1
0.058318,0.1,1.003,0.046,0.183,-1.037,1.892,1
0.065041,0.104,1.006,0.039,0.854,-1.586,1.77,1
0.072697,0.104,1.009,0.039,1.159,-2.075,1.464,1
0.079562,0.102,1.007,0.036,1.22,-2.929,1.403,1
0.087169,0.104,1.012,0.043,0.793,-3.356,1.159,1
0.095774,0.103,1.017,0.042,0.732,-3.723,0.732,1
0.103677,0.106,1.015,0.049,0.183,-4.15,0.793,1
0.111764,0.106,1.021,0.055,-0.183,-4.272,0.427,1
0.118715,0.103,1.02,0.056,-0.549,-4.821,0.061,1
0.127011,0.103,1.027,0.061,-0.488,-5.004,-0.244,1
0.135475,0.105,1.024,0.069,-0.183,-5.432,-0.305,1
0.143356,0.109,1.022,0.074,-0.061,-5.615,-0.549,1
0.15167,0.108,1.027,0.079,-0.061,-5.615,-0.732,1
0.159468,0.105,1.021,0.085,-0.244,-5.92,-0.915,1
0.165995,0.111,1.021,0.091,-1.403,-5.92,-1.037,1
0.174716,0.105,1.019,0.088,-1.281,-5.92,-1.525,1
0.182624,0.105,1.008,0.087,-1.098,-5.981,-1.464,1
0.191146,0.105,1.007,0.086,-0.549,-5.92,-1.77,1
0.197753,0.106,1.004,0.089,0.122,-6.225,-1.953,1
0.204762,0.105,0.999,0.091,0.305,-6.103,-1.953,1
0.211775,0.108,1.0,0.095,0.366,-6.347,-1.953,1
0.219817,0.104,0.991,0.101,-0.122,-6.042,-1.77,1
0.226813,0.105,0.99,0.108,-0.915,-6.164,-1.77,1
0.2352,0.108,0.986,0.113,-1.647,-5.798,-1.831,1
0.241755,0.109,0.982,0.116,-1.403,-5.676,-1.708,1
0.250271,0.103,0.979,0.121,-1.037,-5.249,-1.708,1
0.256848,0.1,0.976,0.123,-0.976,-5.065,-1.586,1
0.265384,0.102,0.973,0.121,-0.915,-4.821,-1.342,1
0.27238,0.099,0.969,0.125,-0.915,-4.516,-1.342,1
0.279329,0.099,0.972,0.126,-0.793,-4.272,-1.22,1
0.287699,0.099,0.971,0.119,-0.671,-4.211,-1.098,1
0.295551,0.107,0.976,0.122,-0.305,-3.784,-0.854,1
0.303957,0.111,0.976,0.114,0.488,-3.601,-0.915,1
0.310802,0.111,0.978,0.114,0.976,-3.356,-0.427,1
0.319134,0.114,0.982,0.111,1.098,-3.234,-0.61,1
0.326938,0.118,0.983,0.102,1.159,-3.051,-0.549,1
0.333675,0.119,0.99,0.1,1.647,-3.112,-0.488,1
0.341862,0.125,1.0,0.089,2.075,-2.868,-0.549,1
0.348741,0.132,1.022,0.08,2.38,-2.746,-0.427,1
0.356873,0.14,1.041,0.065,2.563,-2.929,-0.427,1
0.364898,0.141,1.073,0.047,3.295,-3.295,-0.854,1
0.371563,0.154,1.111,0.027,4.455,-3.54,-1.22,1
0.379281,0.169,1.146,0.0,6.469,-4.394,-2.075,1
0.386003,0.181,1.179,-0.025,6.774,-5.126,-3.295,1
0.394352,0.195,1.22,-0.051,5.676,-5.615,-4.638,1
0.401214,0.212,1.27,-0.081,3.723,-6.469,-6.225,1
0.409639,0.223,1.311,-0.104,1.892,-7.202,-7.629,1
0.416281,0.235,1.341,-0.138,-1.586,-8.239,-10.009,1
0.424703,0.251,1.361,-0.163,-5.859,-9.094,-12.084,1
0.431779,0.271,1.385,-0.183,-10.192,-10.559,-14.465,1
0.438728,0.272,1.41,-0.2,-14.892,-11.657,-16.845,1
0.447249,0.281,1.425,-0.21,-18.432,-12.939,-18.92,1
0.455203,0.285,1.437,-0.214,-22.216,-14.343,-21.789,1
0.463816,0.296,1.44,-0.224,-26.611,-16.174,-24.963,1
0.471764,0.311,1.442,-0.218,-30.639,-17.15,-27.343,1
0.479775,0.326,1.444,-0.21,-35.705,-18.432,-30.334,1
0.486511,0.343,1.442,-0.2,-41.015,-19.531,-32.714,1
0.494975,0.364,1.433,-0.18,-46.691,-20.263,-34.973,1
0.501726,0.372,1.427,-0.163,-52.734,-20.263,-37.414,1
0.508841,0.377,1.413,-0.138,-59.204,-20.446,-39.855,1
0.517392,0.378,1.395,-0.117,-66.528,-20.019,-42.297,1
0.525155,0.38,1.373,-0.099,-73.425,-19.897,-44.494,1
0.533116,0.376,1.356,-0.085,-79.772,-19.653,-46.569,1
0.541584,0.38,1.346,-0.078,-85.144,-19.348,-48.461,1
0.549594,0.39,1.352,-0.066,-87.646,-19.409,-50.354,1
0.556229,0.403,1.373,-0.048,-88.012,-19.775,-51.635,1
0.564518,0.414,1.395,-0.04,-85.083,-19.775,-53.771,1
0.572087,0.43,1.432,-0.007,-80.017,-20.08,-56.091,1
0.580045,0.434,1.469,0.009,-73.669,-20.69,-58.41,1
0.588107,0.458,1.525,0.017,-67.199,-21.179,-61.34,1
0.594747,0.448,1.577,0.021,-58.41,-21.301,-63.842,1
0.601578,0.432,1.6,0.0,-47.668,-22.399,-66.284,1
0.609699,0.481,1.589,-0.02,-42.785,-21.911,-69.152,1
0.618135,0.453,1.565,-0.07,-50.292,-21.118,-72.143,1
0.62489,0.448,1.597,-0.081,-59.387,-20.996,-75.5,1
0.632802,0.467,1.619,-0.094,-69.213,-20.202,-79.956,1
0.640632,0.467,1.657,-0.088,-79.04,-20.141,-84.472,1
0.648819,0.471,1.694,-0.069,-87.402,-20.019,-89.355,1
0.657162,0.422,1.78,-0.039,-90.454,-20.507,-94.543,1
0.663825,0.406,1.874,0.016,-84.655,-21.545,-99.487,1
0.671412,0.423,1.919,0.043,-77.27,-22.521,-105.346,1
0.680046,0.417,1.893,0.044,-69.763,-22.766,-109.68,1
0.687704,0.413,1.807,0.043,-66.04,-22.827,-114.562,1
0.694487,0.41,1.748,0.049,-72.143,-22.827,-118.957,1
0.702697,0.393,1.713,0.092,-83.74,-22.033,-121.948,1
0.710967,0.378,1.693,0.14,-95.336,-20.874,-125.122,1
0.717839,0.385,1.645,0.142,-97.9,-20.019,-128.173,1
0.725838,0.37,1.604,0.189,-96.557,-21.179,-131.591,1
0.734529,0.444,1.487,0.218,-87.829,-18.554,-133.911,1
0.742868,0.425,1.397,0.137,-79.467,-19.165,-134.399,1
0.749807,0.381,1.356,0.113,-69.885,-18.676,-135.192,1
0.758281,0.387,1.328,0.109,-59.265,-17.822,-135.62,1
0.765427,0.384,1.318,0.133,-41.442,-15.441,-136.23,1
0.774294,0.374,1.334,0.115,-19.47,-14.16,-139.16,1
0.782146,0.307,1.283,0.085,2.746,-16.723,-143.249,1
0.789194,0.19,1.165,0.093,24.291,-18.31,-146.606,1
0.79751,0.159,1.042,0.16,38.574,-19.165,-147.033,1
0.80649,0.138,0.985,0.258,56.335,-19.104,-147.216,1
0.813015,0.125,0.866,0.356,78.125,-17.7,-147.766,1
0.821466,0.163,0.74,0.372,97.29,-14.465,-147.033,1
0.829951,0.234,0.525,0.236,93.811,-9.155,-145.446,1
0.840968,0.267,0.279,0.049,52.612,-5.004,-142.761,1
0.85074,0.272,0.171,-0.043,-27.099,2.38,-137.451,1
0.858507,0.292,0.215,-0.015,-64.27,6.042,-133.667,1
0.867859,0.361,0.254,-0.071,-80.871,5.126,-129.76,1
0.875604,0.395,0.324,-0.022,-73.059,4.272,-126.098,1
0.882545,0.46,0.374,-0.046,-54.443,0.854,-123.535,1
0.891179,0.497,0.406,-0.022,-26.733,-1.586,-120.544,1
0.89756,0.55,0.438,-0.055,8.605,-5.554,-117.858,1
0.905782,0.557,0.451,-0.046,31.616,-7.08,-116.394,1
0.912407,0.576,0.455,-0.072,51.147,-8.544,-114.318,1
0.920178,0.597,0.461,-0.078,59.204,-9.399,-112.67,1
0.928539,0.605,0.477,-0.093,57.189,-8.3,-111.022,1
0.936596,0.605,0.504,-0.093,49.194,-8.3,-110.046,1
0.945083,0.633,0.518,-0.093,37.902,-7.385,-109.13,1
0.9531,0.676,0.522,-0.088,26.611,-7.263,-108.398,1
0.959955,0.673,0.556,-0.094,17.211,-6.53,-107.788,1
0.96832,0.673,0.571,-0.091,7.751,-7.263,-107.666,1
0.976171,0.678,0.569,-0.094,-3.723,-7.202,-107.177,1
0.984197,0.678,0.569,-0.104,-14.404,-8.422,-106.506,1
0.992249,0.683,0.589,-0.1,-20.568,-9.399,-105.163,1
1.000644,0.675,0.627,-0.108,-20.812,-12.756,-104.37,1
1.008481,0.68,0.617,-0.116,-21.118,-15.38,-102.844,1
1.017221,0.706,0.596,-0.129,-21.606,-18.676,-101.989,1
1.025329,0.685,0.546,-0.107,-31.982,-20.202,-98.144,1
1.033001,0.721,0.559,-0.126,-43.273,-22.521,-97.473,1
1.041059,0.684,0.544,-0.098,-53.894,-23.315,-96.252,1
1.047917,0.648,0.498,-0.125,-66.528,-24.23,-94.604,1
1.057229,0.556,0.478,-0.103,-78.43,-26.672,-93.017,1
1.063898,0.555,0.401,-0.124,-87.829,-29.052,-90.026,1
1.073122,0.455,0.42,-0.074,-81.665,-31.616,-87.829,1
1.081182,0.469,0.473,-0.074,-54.565,-35.156,-86.547,1
1.089163,0.506,0.554,-0.046,-7.019,-39.55,-88.073,1
1.097128,0.626,0.562,-0.042,47.607,-43.823,-90.759,1
1.105183,0.584,0.52,-0.065,108.093,-47.546,-93.322,1
1.111807,0.61,0.438,-0.135,133.544,-49.438,-93.078,1
1.119864,0.65,0.37,-0.141,135.742,-51.269,-92.529,1
1.127888,0.701,0.333,-0.14,126.22,-48.767,-91.369,1
1.135932,0.738,0.34,-0.16,108.093,-48.4,-90.148,1
1.142866,0.757,0.343,-0.172,89.721,-46.325,-88.989,1
1.150914,0.746,0.356,-0.178,71.472,-46.447,-87.585,1
1.15872,0.738,0.385,-0.19,64.88,-46.203,-86.181,1
1.166621,0.747,0.411,-0.181,68.603,-49.194,-85.327,1
1.174572,0.734,0.403,-0.175,84.289,-52.001,-84.594,1
1.182932,0.72,0.383,-0.153,113.281,-56.518,-83.374,1
1.191185,0.722,0.36,-0.145,135.62,-55.664,-83.618,1
1.198482,0.759,0.31,-0.172,141.357,-53.283,-84.96,1
1.206289,0.814,0.276,-0.184,127.014,-48.095,-87.036,1
1.214708,0.881,0.271,-0.193,99.609,-42.907,-91.003,1
1.222653,0.963,0.288,-0.145,86.669,-37.719,-93.811,1
1.229613,1.0,0.334,-0.126,88.745,-35.522,-97.045,1
1.238462,0.926,0.378,-0.096,106.506,-34.484,-99.792,1
1.245042,0.842,0.391,-0.071,135.131,-36.437,-101.379,1
1.2531,0.769,0.372,-0.015,168.029,-37.902,-102.539,1
1.261099,0.781,0.291,0.028,188.293,-37.78,-103.759,1
1.267427,0.76,0.225,0.081,191.223,-35.522,-104.37,1
1.275788,0.773,0.151,0.121,172.668,-30.639,-104.248,1
1.282513,0.693,0.124,0.161,143.127,-24.902,-105.163,1
1.290389,0.636,0.078,0.208,111.267,-18.859,-106.262,1
1.297375,0.606,0.068,0.25,81.665,-13.0,-107.36,1
1.305677,0.594,0.069,0.306,63.598,-9.094,-108.886,1
1.31423,0.562,0.067,0.36,53.71,-4.394,-111.45,1
1.321485,0.515,0.051,0.408,57.617,0.122,-113.586,1
1.328429,0.506,0.022,0.456,66.772,4.211,-115.783,1
1.336137,0.479,-0.025,0.48,75.195,9.46,-118.469,1
1.343993,0.429,-0.08,0.522,77.392,15.38,-120.971,1
1.350244,0.348,-0.152,0.541,72.326,23.681,-122.619,1
1.358417,0.286,-0.229,0.556,57.739,31.86,-123.229,1
1.366428,0.241,-0.295,0.58,36.743,41.198,-123.718,1
1.373545,0.142,-0.364,0.598,14.526,49.011,-123.413,1
1.381473,0.157,-0.429,0.624,-5.615,58.349,-122.985,1
1.38909,0.155,-0.5,0.64,-20.019,65.246,-121.398,1
1.396989,0.158,-0.577,0.663,-26.489,72.875,-118.957,1
1.404076,0.181,-0.693,0.674,-26.55,79.589,-115.173,1
1.412203,0.203,-0.787,0.667,-24.475,86.669,-110.473,1
1.419897,0.164,-0.924,0.607,-25.146,94.36,-104.553,1
1.428279,0.039,-1.02,0.559,-32.104,104.37,-97.29,1
1.435752,-0.028,-1.103,0.508,-38.391,113.281,-90.82,1
1.44366,-0.069,-1.17,0.45,-37.048,121.948,-83.007,1
1.451932,-0.207,-1.201,0.419,-27.587,128.967,-74.523,1
1.460194,-0.316,-1.292,0.318,-18.981,136.352,-64.636,1
1.467062,-0.387,-1.396,0.251,-16.174,146.24,-51.879,1
1.475346,-0.432,-1.471,0.164,-23.254,153.991,-39.794,1
1.484102,-0.525,-1.549,0.102,-27.954,162.109,-27.16,1
1.492557,-0.66,-1.559,0.054,-28.137,168.64,-11.474,1
1.501738,-0.829,-1.549,0.006,-11.352,175.659,5.126,1
1.509303,-0.931,-1.556,-0.069,5.798,179.382,20.08,1
1.517488,-1.1,-1.544,-0.144,16.906,183.898,35.4,1
1.524378,-1.266,-1.51,-0.187,19.653,187.744,53.71,1
1.53234,-1.447,-1.482,-0.21,18.798,192.077,69.152,1
1.540794,-1.588,-1.455,-0.229,17.7,195.922,84.838,1
1.547348,-1.701,-1.433,-0.25,18.92,200.195,100.891,1
1.555045,-1.816,-1.409,-0.293,17.028,203.796,116.638,1
1.563205,-1.936,-1.396,-0.337,5.798,208.618,135.498,1
1.571078,-2.063,-1.382,-0.373,-8.422,212.158,148.925,1
1.577796,-2.208,-1.368,-0.419,-28.442,217.407,165.039,1
1.586152,-2.375,-1.323,-0.436,-45.104,221.679,183.532,1
1.594803,-2.528,-1.34,-0.525,-51.696,226.318,199.279,1
1.602664,-2.715,-1.352,-0.559,-61.828,230.041,215.393,1
1.610732,-2.97,-1.361,-0.608,-72.814,234.68,233.093,1
1.61734,-3.235,-1.393,-0.663,-80.139,238.464,254.272,1
1.626713,-3.507,-1.443,-0.704,-79.406,242.797,275.756,1
1.634043,-3.804,-1.506,-0.761,-70.251,244.75,299.499,1
1.641117,-4.116,-1.507,-0.811,-49.804,246.337,326.66,1
1.649594,-4.456,-1.558,-0.873,-12.207,242.431,361.938,1
1.657475,-4.89,-1.641,-0.937,12.878,238.83,395.751,1
1.664865,-5.424,-1.752,-1.054,29.663,233.215,433.776,1
1.672699,-6.053,-1.888,-1.187,35.034,230.407,474.121,1
1.6812,-6.767,-2.029,-1.323,22.094,225.28,525.268,1
1.689339,-7.526,-2.018,-1.395,32.897,220.275,572.204,1
1.695969,-8.304,-2.075,-1.508,69.335,206.298,622.192,1
1.704086,-9.426,-2.058,-1.535,136.962,185.974,676.208,1
1.711991,-10.382,-2.044,-1.594,234.497,152.587,734.252,1
1.719758,-11.564,-1.939,-1.6,340.454,105.712,794.982,1
1.726712,-13.015,-1.803,-1.625,435.791,45.288,856.689,1
1.735636,-14.769,-1.585,-1.595,486.816,-23.803,916.748,1
1.743513,-15.999,-1.247,-1.497,517.089,-112.426,980.651,1
1.75202,-15.999,-0.757,-1.314,550.781,-196.166,1027.587,1
1.759989,-15.999,-0.08,-1.077,604.98,-306.457,1069.458,1
1.768113,-15.999,0.531,-0.817,660.583,-410.583,1092.773,1
1.776078,-15.999,1.19,-0.382,721.984,-524.292,1101.562,1
1.782694,-15.999,1.615,0.109,792.541,-664.245,1090.576,1
1.790664,-15.999,1.926,0.698,840.82,-785.949,1061.95,1
1.799291,-15.999,2.21,1.521,871.582,-903.869,1016.54,1
1.805983,-15.999,2.711,2.27,910.705,-1010.07,951.171,1
1.814221,-15.999,3.084,3.116,964.233,-1108.764,865.966,1
1.820976,-15.999,3.776,3.538,1064.453,-1185.424,745.91,1
1.829486,-15.999,4.345,3.79,1185.73,-1255.92,585.205,1
1.835994,-15.999,4.618,3.864,1324.951,-1296.813,381.469,1
1.843111,-15.999,4.192,3.814,1406.738,-1309.814,188.964,1
1.851589,-15.999,3.303,3.721,1376.098,-1278.991,-37.292,1
1.858423,-15.999,2.72,3.968,1266.113,-1202.331,-231.689,1
1.866834,-15.999,2.294,3.941,1219.726,-1086.731,-391.967,1
1.873739,-15.999,1.628,3.522,1225.647,-946.289,-545.959,1
1.882323,-15.999,0.998,2.941,1190.124,-802.917,-648.62,1
1.889397,-15.986,0.391,2.3,1041.748,-662.231,-720.031,1
1.897751,-14.79,0.136,2.081,808.654,-523.315,-759.277,1
1.90573,-13.663,0.031,1.917,565.246,-409.423,-772.399,1
1.913008,-12.672,0.178,1.734,378.295,-315.917,-767.394,1
1.92093,-12.05,0.339,1.71,328.796,-261.352,-756.347,1
1.927939,-11.515,0.365,1.614,346.984,-223.754,-747.192,1
1.93627,-11.109,0.25,1.557,387.268,-182.128,-736.816,1
1.943002,-10.61,0.002,1.48,405.395,-134.46,-723.693,1
1.950061,-10.084,-0.243,1.398,385.436,-86.669,-707.519,1
1.958,-9.527,-0.453,1.364,348.876,-40.1,-686.035,1
1.966333,-8.844,-0.701,1.261,298.706,2.624,-661.926,1
1.973223,-8.287,-0.832,1.238,246.582,37.17,-634.399,1
1.981441,-7.76,-0.918,1.105,216.125,66.589,-606.933,1
1.989572,-7.239,-1.009,0.97,209.106,87.341,-578.918,1
1.996419,-6.524,-1.097,0.767,228.576,106.445,-552.734,1
2.004589,-5.922,-1.317,0.602,242.004,119.995,-523.376,1
2.011299,-5.488,-1.458,0.408,218.505,139.709,-493.957,1
2.019737,-4.919,-1.555,0.334,181.213,150.756,-460.571,1
2.02801,-4.587,-1.615,0.279,150.756,163.269,-431.091,1
2.034922,-4.291,-1.566,0.256,135.437,164.733,-401.733,1
2.04333,-4.067,-1.54,0.278,144.592,169.433,-372.314,1
2.050063,-3.756,-1.565,0.225,146.85,169.433,-343.749,1
2.058897,-3.488,-1.616,0.224,142.395,172.424,-315.063,1
2.065402,-3.186,-1.663,0.179,131.347,173.461,-287.841,1
2.073899,-2.834,-1.68,0.166,119.323,176.025,-261.23,1
2.081077,-2.553,-1.62,0.149,112.365,175.537,-236.694,1
2.089246,-2.296,-1.647,0.122,103.027,176.391,-209.533,1
2.095937,-2.082,-1.637,0.132,100.524,175.659,-191.223,1
2.1039,-1.909,-1.584,0.152,98.083,176.208,-169.982,1
2.11115,-1.766,-1.52,0.129,95.886,175.231,-150.024,1
2.119278,-1.643,-1.444,0.132,92.834,175.292,-131.225,1
2.1284,-1.578,-1.354,0.128,89.05,173.339,-111.145,1
2.134835,-1.538,-1.3,0.132,88.562,172.485,-95.642,1
2.142725,-1.451,-1.281,0.102,82.763,171.813,-80.688,1
2.150668,-1.345,-1.258,0.083,70.861,171.691,-67.016,1
2.157269,-1.197,-1.209,0.045,57.678,170.959,-54.199,1
2.165605,-1.09,-1.161,0.029,50.292,168.701,-42.175,1
2.173408,-0.916,-1.124,-0.017,49.133,165.527,-30.517,1
2.180499,-0.751,-1.089,-0.047,52.917,160.888,-19.714,1
2.187385,-0.604,-1.041,-0.081,59.936,156.188,-9.094,1
2.195428,-0.49,-0.985,-0.1,67.626,149.78,0.671,1
2.202266,-0.394,-0.92,-0.11,74.768,144.653,9.765,1
2.210289,-0.319,-0.869,-0.118,77.636,139.526,16.662,1
2.217221,-0.261,-0.836,-0.114,77.758,135.437,24.78,1
2.22564,-0.212,-0.77,-0.12,77.819,130.31,31.616,1
2.232265,-0.112,-0.722,-0.12,86.669,124.45,38.146,1
2.240822,-0.02,-0.664,-0.117,98.632,119.079,44.311,1
2.247583,0.028,-0.614,-0.134,108.703,113.464,49.743,1
2.254477,0.067,-0.568,-0.146,112.243,108.276,54.87,1
2.262624,0.085,-0.512,-0.138,112.365,103.759,58.837,1
2.269276,0.145,-0.458,-0.134,112.67,100.646,62.133,1
2.277268,0.184,-0.4,-0.14,112.854,97.045,66.04,1
2.285218,0.217,-0.349,-0.14,111.938,93.994,69.091,1
2.292003,0.27,-0.294,-0.146,111.999,90.637,71.777,1
2.298982,0.332,-0.25,-0.164,112.243,87.768,74.035,1
2.306431,0.384,-0.198,-0.185,112.67,84.96,75.866,1
2.314861,0.404,-0.145,-0.219,111.877,81.848,77.087,1
2.32151,0.429,-0.102,-0.253,111.083,78.552,77.575,1
2.328564,0.497,-0.072,-0.289,108.886,75.866,77.27,1
2.335414,0.535,-0.053,-0.308,104.248,72.692,76.843,1
2.343855,0.593,-0.029,-0.343,98.876,69.641,75.866,1
2.3509,0.66,0.002,-0.366,93.322,67.382,74.462,1
2.358735,0.696,0.027,-0.389,88.378,65.307,72.937,1
2.365245,0.726,0.05,-0.404,85.937,63.354,71.289,1
2.373499,0.776,0.098,-0.416,86.791,60.668,69.763,1
2.379935,0.833,0.14,-0.424,90.515,58.044,67.81,1
2.388194,0.857,0.174,-0.435,95.703,55.236,65.856,1
2.394992,0.868,0.207,-0.447,100.646,52.551,63.354,1
2.402671,0.886,0.254,-0.451,105.59,49.926,61.462,1
2.410809,0.931,0.278,-0.451,110.656,47.485,58.654,1
2.418239,0.959,0.306,-0.448,115.478,44.006,55.358,1
2.425255,0.979,0.331,-0.447,117.919,41.564,52.429,1
2.432088,1.005,0.331,-0.421,118.164,39.489,49.255,1
2.439954,1.041,0.326,-0.408,115.539,38.696,46.997,1
2.446897,1.095,0.332,-0.392,111.633,38.024,44.372,1
2.454133,1.108,0.328,-0.376,105.773,38.635,42.419,1
2.461108,1.119,0.324,-0.375,95.642,39.367,40.283,1
2.468181,1.13,0.326,-0.372,77.819,41.137,38.452,1
2.476572,1.155,0.345,-0.372,60.119,42.541,36.987,1
2.485024,1.194,0.393,-0.354,53.71,42.48,35.339,1
2.492123,1.206,0.457,-0.332,66.772,40.649,33.691,1
2.498799,1.195,0.511,-0.319,97.534,37.292,31.555,1
2.506992,1.185,0.512,-0.316,132.873,34.362,29.541,1
2.513675,1.173,0.472,-0.336,155.395,33.203,27.526,1
2.520541,1.162,0.418,-0.366,158.142,33.752,25.817,1
2.527731,1.145,0.391,-0.395,146.972,36.499,23.62,1
2.536288,1.137,0.386,-0.436,129.699,39.55,21.24,1
2.542981,1.137,0.404,-0.465,117.248,42.053,18.981,1
2.549885,1.128,0.437,-0.494,115.356,42.846,16.784,1
2.556912,1.127,0.458,-0.512,123.168,41.992,14.099,1
2.56457,1.128,0.473,-0.52,137.329,41.381,11.108,1
2.572383,1.1,0.475,-0.532,150.878,40.222,8.85,1
2.581073,1.057,0.47,-0.542,157.531,40.1,6.286,1
2.587524,1.03,0.468,-0.562,157.165,40.344,3.906,1
2.597012,1.01,0.468,-0.58,156.25,40.405,2.197,1
2.603455,1.0,0.504,-0.595,167.785,41.259,-0.061,1
2.611748,1.027,0.505,-0.618,186.462,37.353,-2.075,1
2.618286,1.011,0.497,-0.627,203.43,36.193,-3.234,1
2.626639,1.021,0.49,-0.653,213.745,33.63,-3.906,1
2.633593,1.056,0.496,-0.642,223.388,33.264,-5.065,1
2.640576,1.052,0.499,-0.659,227.844,32.165,-6.103,1
2.649065,1.018,0.515,-0.65,231.933,32.226,-7.507,1
2.655205,0.985,0.523,-0.644,234.191,32.104,-8.666,1
2.66358,0.952,0.529,-0.638,233.947,33.325,-10.009,1
2.670513,0.926,0.513,-0.639,226.623,34.973,-11.291,1
2.678829,0.926,0.487,-0.64,211.853,37.17,-12.207,1
2.685663,0.941,0.459,-0.643,191.955,38.635,-12.939,1
2.693828,0.947,0.459,-0.641,174.255,40.039,-13.122,1
2.700974,0.949,0.469,-0.632,163.085,40.893,-14.16,1
2.70903,0.906,0.487,-0.611,162.048,41.381,-15.258,1
2.716796,0.91,0.502,-0.607,168.09,41.564,-16.113,1
2.725235,0.911,0.513,-0.593,179.016,41.137,-16.906,1
2.732235,0.891,0.52,-0.585,187.927,40.832,-17.639,1
2.739162,0.844,0.519,-0.578,193.115,40.039,-18.371,1
2.746231,0.819,0.523,-0.561,196.594,40.771,-18.92,1
2.754621,0.759,0.497,-0.563,191.406,41.503,-19.104,1
2.761204,0.76,0.461,-0.549,178.833,43.151,-19.348,1
2.768519,0.747,0.434,-0.544,159.057,45.043,-19.165,1
2.776967,0.734,0.412,-0.539,138.793,46.752,-19.165,1
2.785339,0.751,0.403,-0.533,116.149,48.278,-18.615,1
2.791992,0.727,0.404,-0.535,93.872,49.255,-18.493,1
2.800423,0.742,0.413,-0.519,85.021,49.865,-18.371,1
2.80699,0.767,0.412,-0.52,84.96,49.194,-18.371,1
2.815037,0.779,0.412,-0.513,90.637,48.522,-18.005,1
2.82147,0.797,0.403,-0.535,96.679,47.729,-17.517,1
2.829278,0.804,0.399,-0.535,103.454,46.264,-16.967,1
2.837353,0.807,0.395,-0.542,107.788,45.898,-16.479,1
2.845609,0.837,0.393,-0.559,108.093,45.288,-16.052,1
2.852468,0.797,0.391,-0.557,108.886,44.982,-15.686,1
2.860447,0.778,0.394,-0.572,106.201,44.677,-15.136,1
2.868302,0.79,0.401,-0.562,102.416,44.494,-14.831,1
2.874994,0.77,0.403,-0.577,94.299,45.166,-14.404,1
2.882994,0.778,0.397,-0.593,82.58,45.593,-14.099,1
2.890729,0.792,0.402,-0.605,69.335,45.959,-13.61,1
2.899203,0.818,0.438,-0.6,63.293,44.433,-13.061,1
2.905834,0.813,0.461,-0.582,66.162,43.395,-13.244,1
2.913629,0.801,0.474,-0.598,74.401,41.076,-12.878,1
2.920451,0.787,0.493,-0.591,83.19,39.367,-13.0,1
2.927064,0.782,0.503,-0.607,93.139,37.048,-13.0,1
2.935566,0.775,0.511,-0.618,101.379,34.057,-13.061,1
2.942101,0.79,0.515,-0.612,109.741,31.677,-13.183,1
2.950134,0.743,0.518,-0.618,118.164,29.235,-12.878,1
2.958391,0.75,0.511,-0.614,124.877,27.16,-12.817,1
2.967045,0.744,0.505,-0.61,125.488,25.573,-12.268,1
2.97417,0.764,0.5,-0.602,123.596,24.78,-12.084,1
2.980933,0.822,0.5,-0.582,123.962,24.23,-12.451,1
2.989427,0.741,0.478,-0.585,122.863,24.353,-12.023,1
2.996416,0.747,0.465,-0.589,114.807,23.559,-11.413,1
3.004505,0.774,0.47,-0.572,110.168,23.315,-11.108,1
3.012449,0.775,0.473,-0.579,107.299,23.376,-10.742,1
3.020316,0.773,0.476,-0.575,104.98,23.01,-10.07,1
3.026804,0.79,0.483,-0.583,103.576,22.644,-9.643,1
3.03551,0.79,0.489,-0.579,102.661,21.972,-9.46,1
3.042182,0.791,0.5,-0.582,103.942,21.911,-9.216,1
3.049981,0.788,0.515,-0.579,106.506,21.118,-9.094,1
3.056603,0.79,0.53,-0.568,113.525,20.935,-9.216,1
3.063601,0.831,0.517,-0.555,127.075,19.775,-9.643,1
3.071709,0.75,0.512,-0.548,133.605,20.751,-9.46,1
3.078779,0.798,0.5,-0.552,133.3,20.568,-9.216,1
3.086423,0.862,0.495,-0.515,132.568,22.399,-9.826,1
3.094897,0.81,0.459,-0.518,127.075,24.475,-9.338,1
3.102138,0.848,0.458,-0.521,116.394,26.184,-8.85,1
3.109935,0.82,0.444,-0.496,104.248,28.869,-8.3,1
3.116369,0.799,0.443,-0.524,85.388,30.883,-7.69,1
3.124778,0.85,0.467,-0.482,72.998,32.043,-8.056,1
3.131395,0.806,0.466,-0.485,62.866,34.79,-7.507,1
3.138094,0.786,0.472,-0.516,49.072,35.461,-7.263,1
3.146444,0.795,0.5,-0.492,40.466,36.376,-7.629,1
3.153077,0.799,0.517,-0.506,37.963,35.949,-7.995,1
3.16007,0.777,0.534,-0.498,39.55,35.095,-8.422,1
3.16868,0.789,0.534,-0.501,44.555,33.935,-8.544,1
3.175641,0.778,0.548,-0.5,51.513,31.86,-9.216,1
3.184258,0.791,0.541,-0.501,58.41,30.761,-9.155,1
3.191049,0.791,0.544,-0.499,62.255,28.625,-9.399,1
3.198039,0.793,0.537,-0.496,61.828,27.587,-9.216,1
3.206143,0.793,0.538,-0.5,59.143,26.367,-9.338,1
3.213048,0.79,0.545,-0.497,57.067,25.573,-9.46,1
3.221488,0.79,0.549,-0.491,56.823,24.108,-9.277,1
3.228077,0.785,0.55,-0.482,58.959,22.705,-9.094,1
3.234954,0.785,0.553,-0.485,62.622,21.423,-9.399,1
3.242813,0.785,0.56,-0.483,67.81,19.409,-9.033,1
3.249801,0.786,0.562,-0.481,74.096,17.761,-9.094,1
3.258245,0.79,0.563,-0.483,79.04,16.174,-9.033,1
3.264848,0.785,0.557,-0.484,82.458,14.404,-9.094,1
3.272719,0.782,0.551,-0.481,83.251,13.488,-8.85,1
3.279664,0.79,0.549,-0.48,81.542,12.023,-8.85,1
3.288219,0.78,0.54,-0.479,78.796,11.413,-8.422,1
3.294927,0.779,0.539,-0.475,76.232,10.803,-8.483,1
3.301886,0.778,0.537,-0.471,73.425,10.375,-8.422,1
3.310511,0.764,0.535,-0.472,69.396,10.375,-8.117,1
3.317562,0.761,0.533,-0.465,64.331,10.314,-7.873,1
3.324258,0.762,0.532,-0.462,58.837,10.009,-7.751,1
3.331864,0.763,0.528,-0.461,53.71,10.07,-7.568,1
3.339934,0.772,0.521,-0.458,49.133,9.948,-7.324,1
3.348151,0.77,0.519,-0.462,44.616,10.375,-7.568,1
3.354741,0.768,0.519,-0.457,39.855,10.314,-7.385,1
3.361739,0.778,0.508,-0.459,35.095,10.131,-7.141,1
3.369691,0.784,0.502,-0.461,31.433,9.704,-6.835,1
3.376251,0.795,0.499,-0.454,29.846,9.338,-6.774,1
3.38503,0.797,0.498,-0.453,29.968,8.544,-6.408,1
3.39165,0.812,0.488,-0.452,30.944,7.629,-6.042,1
3.398558,0.818,0.489,-0.443,32.958,7.019,-5.737,1
3.405397,0.822,0.484,-0.434,35.156,5.92,-5.31,1
3.412426,0.829,0.48,-0.436,35.583,5.493,-4.882,1
3.420979,0.83,0.476,-0.431,34.362,5.371,-4.455,1
3.427547,0.832,0.474,-0.423,30.578,5.004,-3.723,1
3.434438,0.828,0.476,-0.42,27.099,4.699,-3.54,1
3.441408,0.818,0.476,-0.419,22.155,4.882,-2.99,1
3.448889,0.813,0.487,-0.411,18.31,4.516,-2.441,1
3.455733,0.809,0.488,-0.411,16.052,4.089,-2.197,1
3.463497,0.804,0.498,-0.403,15.014,3.54,-1.831,1
3.470541,0.802,0.501,-0.396,14.953,2.868,-1.464,1
3.479526,0.8,0.507,-0.39,15.563,2.563,-1.342,1
3.486207,0.806,0.513,-0.38,16.906,1.953,-1.281,1
3.492939,0.81,0.519,-0.37,18.188,1.647,-0.976,1
3.49985,0.807,0.521,-0.363,18.981,1.586,-0.671,1
3.507663,0.808,0.53,-0.362,18.066,1.525,-0.915,1
3.514568,0.794,0.524,-0.361,15.686,1.281,-0.915,1
3.521363,0.895,0.536,-0.332,20.324,0.183,-1.464,1
3.529688,0.799,0.513,-0.345,22.521,1.22,-0.854,1
3.536071,0.799,0.523,-0.35,15.808,0.305,-0.549,1
3.543,0.811,0.54,-0.322,12.145,0.549,-0.854,1
3.550921,0.825,0.547,-0.332,9.094,1.831,-0.671,1
3.557696,0.823,0.552,-0.321,5.554,1.586,-1.098,1
3.56465,0.862,0.557,-0.312,13.427,1.403,-1.281,1
3.572539,0.798,0.548,-0.316,12.329,1.464,-0.793,1
3.579445,0.818,0.577,-0.32,9.643,1.037,-1.708,1
3.586847,0.804,0.588,-0.309,8.789,1.098,-1.892,1
3.593707,0.818,0.586,-0.31,9.399,0.854,-2.136,1
3.602062,0.819,0.582,-0.306,7.019,0.854,-2.441,1
3.608541,0.816,0.586,-0.314,2.929,0.61,-3.112,1
3.615497,0.834,0.608,-0.302,14.404,-0.976,-4.028,1
3.62269,0.8,0.583,-0.278,21.24,-0.793,-3.723,1
3.631073,0.795,0.595,-0.306,18.127,-1.953,-3.906,1
3.637834,0.81,0.61,-0.291,17.089,-1.953,-4.821,1
3.644888,0.841,0.635,-0.279,18.493,-2.807,-5.249,1
3.653222,0.857,0.631,-0.27,24.353,-2.685,-6.225,1
3.66019,0.848,0.616,-0.253,37.475,-3.967,-6.53,1
3.667946,0.808,0.609,-0.269,36.499,-3.845,-6.713,1
3.67646,0.849,0.603,-0.264,29.296,-3.662,-7.812,1
3.683053,0.84,0.586,-0.245,22.583,-2.563,-8.178,1
3.691281,0.831,0.602,-0.251,15.502,-2.685,-8.728,1
3.697929,0.861,0.58,-0.229,15.93,-1.708,-9.826,1
3.704997,0.858,0.581,-0.227,15.93,-1.281,-10.192,1
3.713313,0.857,0.587,-0.233,15.136,-1.037,-10.681,1
3.721704,0.861,0.588,-0.223,13.122,-0.549,-11.718,1
3.728322,0.867,0.592,-0.219,11.291,0.0,-12.023,1
3.736462,0.876,0.594,-0.215,9.582,0.732,-12.573,1
3.742963,0.881,0.603,-0.208,8.422,1.342,-13.183,1
3.751134,0.889,0.598,-0.212,6.53,1.708,-13.732,1
3.758958,0.921,0.628,-0.192,9.643,2.258,-15.014,1
3.765415,0.9,0.629,-0.196,14.16,2.624,-16.357,1
3.773729,0.903,0.641,-0.191,18.066,2.319,-17.578,1
3.782097,0.939,0.636,-0.181,23.559,2.197,-18.371,1
3.789014,0.975,0.62,-0.178,23.681,2.685,-19.226,1
3.797303,0.981,0.6,-0.157,22.583,3.601,-20.263,1
3.80495,0.992,0.614,-0.149,18.005,5.249,-21.179,1
3.812947,0.999,0.597,-0.135,8.361,7.324,-21.24,1
3.820187,1.03,0.604,-0.125,-1.525,9.46,-22.277,1
3.828512,1.02,0.63,-0.115,-9.46,11.352,-23.62,1
3.836375,0.979,0.633,-0.111,-12.207,13.0,-24.78,1
3.844363,1.007,0.651,-0.108,-14.16,13.854,-25.939,1
3.852634,1.013,0.674,-0.103,-6.652,14.404,-27.038,1
3.860557,0.986,0.699,-0.096,7.263,14.16,-29.296,1
3.867209,0.971,0.708,-0.099,18.371,13.854,-30.822,1
3.875487,0.977,0.703,-0.091,25.573,13.61,-31.982,1
3.88211,0.984,0.648,-0.094,23.315,14.16,-32.165,1
3.890641,1.049,0.676,-0.071,22.644,14.892,-33.569,1
3.897056,1.068,0.698,-0.055,17.15,16.845,-34.667,1
3.903937,1.02,0.742,-0.065,11.047,17.883,-37.414,1
3.912239,0.947,0.745,-0.056,6.103,18.188,-38.574,1
3.920009,0.97,0.777,-0.053,1.586,19.653,-40.71,1
3.926859,0.976,0.79,-0.047,1.831,19.226,-43.395,1
3.936014,1.011,0.8,-0.022,11.108,19.836,-46.142,1
3.942702,0.923,0.78,-0.044,15.319,20.019,-48.522,1
3.951222,0.974,0.798,-0.035,21.911,19.653,-52.612,1
3.960274,1.045,0.756,-0.019,41.625,19.104,-54.504,1
3.966996,1.006,0.828,-0.062,43.762,20.385,-55.664,1
3.973853,0.942,0.769,-0.063,43.701,16.784,-58.105,1
3.982109,1.031,0.807,-0.017,56.335,21.789,-58.532,1
3.988623,1.007,0.796,-0.04,54.321,17.761,-60.913,1
3.998335,1.017,0.86,0.007,62.072,21.789,-63.171,1
4.005198,1.028,0.852,-0.01,75.561,20.141,-66.406,1
4.01231,0.967,0.839,-0.004,89.538,22.644,-68.969,1
4.020471,0.989,0.799,-0.019,99.609,22.338,-70.983,1
4.027199,0.952,0.763,0.012,108.581,23.437,-73.242,1
4.03501,0.981,0.725,-0.015,116.027,24.719,-74.462,1
4.041649,0.964,0.688,-0.011,122.131,25.085,-75.683,1
4.048676,0.937,0.685,-0.04,127.319,26.489,-76.293,1
4.05704,0.936,0.66,-0.071,130.92,25.878,-77.209,1
4.063603,0.901,0.66,-0.091,134.216,26.855,-76.782,1
4.07287,0.875,0.71,-0.128,142.761,25.268,-76.782,1
4.079852,0.909,0.75,-0.12,159.851,24.597,-76.599,1
4.087704,0.933,0.777,-0.144,183.837,23.437,-77.636,1
4.096115,0.913,0.787,-0.142,203.369,22.888,-78.002,1
4.104054,0.911,0.778,-0.16,218.749,22.827,-79.101,1
4.112545,0.878,0.752,-0.139,228.21,23.01,-79.772,1
4.120557,0.843,0.69,-0.143,232.666,24.414,-80.505,1
4.127174,0.813,0.624,-0.116,229.125,26.489,-80.322,1
4.135745,0.811,0.581,-0.137,216.308,29.846,-80.322,1
4.14228,0.812,0.557,-0.147,190.002,34.606,-80.2,1
4.150151,0.845,0.542,-0.155,156.066,39.916,-80.2,1
4.158582,0.866,0.562,-0.164,121.459,45.898,-80.078,1
4.165108,0.847,0.585,-0.158,90.637,51.33,-80.871,1
4.173486,0.797,0.608,-0.143,64.208,57.189,-81.97,1
4.181489,0.755,0.613,-0.136,42.907,62.133,-83.862,1
4.187982,0.721,0.605,-0.093,30.883,65.429,-85.815,1
4.196499,0.718,0.6,-0.064,30.761,67.382,-87.89,1
4.205102,0.691,0.582,-0.026,42.846,67.016,-89.599,1
4.211767,0.701,0.53,0.005,64.086,66.894,-91.552,1
4.219646,0.7,0.475,0.026,80.993,66.894,-92.529,1
4.228064,0.676,0.417,0.043,95.52,67.382,-93.078,1
4.236045,0.716,0.342,0.061,110.9,67.687,-92.59,1
4.242543,0.758,0.305,0.072,121.887,69.213,-91.308,1
4.250933,0.774,0.273,0.078,124.084,71.228,-89.965,1
4.258019,0.763,0.265,0.084,116.394,74.401,-88.5,1
4.266421,0.74,0.258,0.099,102.539,77.697,-87.646,1
4.273051,0.727,0.26,0.107,86.669,81.848,-86.486,1
4.280929,0.718,0.263,0.107,69.519,86.181,-85.998,1
4.289283,0.738,0.267,0.096,50.048,90.087,-85.571,1
4.297367,0.741,0.268,0.1,26.733,94.787,-85.632,1
4.30389,0.746,0.267,0.105,7.629,98.815,-86.059,1
4.312369,0.783,0.264,0.1,-3.906,100.891,-86.425,1
4.31913,0.794,0.265,0.118,-12.817,104.003,-86.669,1
4.327488,0.804,0.289,0.117,-16.052,105.163,-88.134,1
4.335403,0.756,0.3,0.142,-7.202,106.323,-89.111,1
4.34354,0.691,0.32,0.16,8.483,107.36,-89.599,1
4.350279,0.675,0.309,0.164,24.353,110.229,-90.637,1
4.3582,0.64,0.288,0.179,35.339,113.403,-91.613,1
4.366133,0.57,0.277,0.194,47.424,117.004,-91.308,1
4.373023,0.544,0.248,0.202,55.297,120.666,-91.186,1
4.381463,0.519,0.235,0.221,59.875,125.427,-91.735,1
4.388088,0.428,0.225,0.213,65.49,131.164,-91.552,1
4.3968,0.338,0.222,0.229,73.486,136.169,-90.576,1
4.403588,0.281,0.238,0.238,90.881,140.258,-89.416,1
4.410636,0.213,0.253,0.274,109.313,145.202,-88.745,1
4.418967,0.104,0.256,0.281,131.652,151.123,-88.256,1
4.427047,0.048,0.208,0.281,144.531,158.386,-86.914,1
4.434994,-0.036,0.132,0.261,133.85,168.457,-83.007,1
4.441609,-0.111,0.087,0.248,110.046,178.466,-79.162,1
4.45001,-0.144,0.058,0.22,83.74,187.744,-75.378,1
4.456968,-0.175,0.03,0.197,64.514,196.289,-71.594,1
4.465498,-0.254,0.0,0.166,54.992,203.979,-67.565,1
4.472494,-0.326,-0.032,0.136,54.626,210.876,-62.805,1
4.480772,-0.429,-0.07,0.084,60.913,216.674,-57.739,1
4.488962,-0.568,-0.147,0.031,70.129,222.839,-51.513,1
4.498021,-0.703,-0.233,-0.056,74.646,229.492,-42.541,1
4.506143,-0.778,-0.303,-0.135,69.335,236.694,-32.836,1
4.513911,-0.873,-0.369,-0.231,58.715,242.248,-24.291,1
4.522099,-0.904,-0.443,-0.34,41.564,247.741,-13.793,1
4.529036,-0.964,-0.514,-0.446,20.385,252.502,-4.211,1
4.537565,-1.037,-0.539,-0.522,-3.356,256.958,5.371,1
4.544523,-1.154,-0.53,-0.611,-23.864,260.803,13.549,1
4.552912,-1.274,-0.537,-0.692,-46.203,263.671,20.751,1
4.55963,-1.393,-0.532,-0.728,-74.829,266.479,26.428,1
4.56666,-1.449,-0.536,-0.816,-93.2,268.981,31.616,1
4.575051,-1.529,-0.527,-0.879,-100.341,267.944,36.804,1
4.581951,-1.604,-0.531,-0.949,-94.482,268.249,42.297,1
4.58954,-1.673,-0.547,-1.016,-84.106,264.404,48.217,1
4.597949,-1.757,-0.585,-1.095,-72.753,262.084,55.48,1
4.606101,-1.843,-0.61,-1.198,-67.382,258.239,62.744,1
4.614002,-1.958,-0.646,-1.294,-65.185,254.15,71.716,1
4.620799,-2.07,-0.694,-1.374,-66.528,249.755,79.65,1
4.629098,-2.207,-0.745,-1.445,-68.847,245.91,88.623,1
4.636444,-2.346,-0.814,-1.526,-72.692,241.821,98.51,1
4.645962,-2.485,-0.894,-1.59,-76.416,236.755,109.741,1
4.65402,-2.61,-0.977,-1.67,-73.608,230.712,124.45,1
4.660739,-2.74,-1.06,-1.735,-64.392,225.036,139.526,1
4.668742,-2.843,-1.128,-1.796,-44.921,217.224,156.616,1
4.67596,-2.949,-1.217,-1.859,-19.226,208.19,176.025,1
4.68471,-2.994,-1.332,-2.051,-8.178,197.753,199.157,1
4.691965,-3.225,-1.516,-2.19,0.671,186.584,225.891,1
4.700249,-3.434,-1.627,-2.292,4.516,179.138,252.807,1
4.707194,-3.595,-1.823,-2.574,-15.747,168.823,281.799,1
4.715675,-3.854,-1.975,-2.748,-55.969,161.804,312.133,1
4.723441,-4.118,-2.069,-2.971,-75.317,150.146,344.36,1
4.731352,-4.52,-2.199,-3.244,-58.166,134.704,378.112,1
4.739727,-4.933,-2.313,-3.517,-15.502,108.276,420.715,1
4.747836,-5.391,-2.582,-3.855,17.944,81.359,461.975,1
4.756109,-6.077,-2.783,-4.21,39.428,48.217,506.347,1
4.764071,-6.778,-2.961,-4.499,50.598,7.69,562.927,1
4.77196,-7.615,-3.059,-4.689,45.166,-29.663,613.83,1
4.780325,-8.807,-3.031,-4.956,59.631,-82.946,675.109,1
4.788635,-10.076,-2.861,-5.014,101.928,-134.765,727.539,1
4.796375,-11.696,-2.56,-5.091,172.485,-212.524,784.118,1
4.803445,-13.281,-2.171,-4.919,219.787,-286.438,828.002,1
4.811714,-14.968,-1.636,-4.671,275.878,-369.934,864.135,1
4.820228,-15.999,-0.991,-4.168,331.481,-462.036,890.869,1
4.826884,-15.999,-0.394,-3.665,373.657,-574.096,908.447,1
4.834742,-15.999,0.211,-2.981,419.372,-673.95,910.156,1
4.84337,-15.999,0.723,-2.306,463.317,-775.024,897.277,1
4.851328,-15.999,1.157,-1.626,483.215,-873.352,870.422,1
4.859264,-15.999,1.599,-0.825,484.497,-964.355,833.496,1
4.867562,-15.999,1.869,-0.266,483.703,-1065.246,777.893,1
4.875998,-15.999,2.046,0.245,495.666,-1147.705,723.998,1
4.883955,-15.999,2.262,0.805,557.861,-1245.788,646.728,1
4.891819,-15.999,2.339,1.125,626.22,-1326.843,565.368,1
4.898263,-15.999,2.375,1.388,686.34,-1403.93,470.581,1
4.906893,-15.999,2.448,1.815,709.35,-1463.5,365.051,1
4.913407,-15.999,2.536,2.398,682.739,-1502.624,259.399,1
4.921724,-15.999,2.44,3.038,639.465,-1518.005,157.47,1
4.92964,-15.999,2.901,3.79,700.744,-1512.512,46.752,1
4.936246,-15.999,3.246,4.171,781.188,-1492.797,-86.425,1
4.944455,-15.999,3.338,4.624,789.855,-1442.199,-232.36,1
4.952406,-15.999,3.149,4.937,812.683,-1370.666,-378.356,1
4.960955,-15.999,2.229,4.927,865.173,-1264.16,-534.973,1
4.967982,-15.999,1.361,4.776,865.539,-1147.644,-646.545,1
4.976499,-15.999,0.619,4.564,826.599,-1014.648,-732.177,1
4.983612,-15.999,0.122,4.334,783.386,-881.713,-792.724,1
4.991037,-15.999,-0.31,3.723,746.826,-751.037,-835.144,1
4.999465,-15.999,-0.601,3.218,703.796,-614.074,-869.262,1
5.007664,-15.999,-0.964,2.798,653.015,-497.558,-886.108,1
5.016268,-15.999,-1.425,2.34,562.133,-377.807,-889.709,1
5.024414,-15.463,-1.76,2.103,483.52,-291.87,-880.737,1
5.032734,-14.68,-1.994,1.925,437.744,-218.688,-862.792,1
5.039449,-13.663,-2.298,1.676,424.865,-158.203,-837.768,1
5.047983,-12.461,-2.591,1.447,392.639,-93.322,-803.039,1
5.056539,-11.587,-2.87,1.31,313.049,-48.461,-766.662,1
5.064977,-10.349,-2.968,1.092,188.476,-2.563,-725.158,1
5.072209,-9.295,-2.896,1.358,136.535,19.958,-683.532,1
5.078968,-8.318,-2.894,1.272,142.883,36.682,-638.549,1
5.087956,-7.381,-3.0,1.348,187.133,52.917,-591.735,1
5.096256,-6.212,-3.241,1.231,223.144,72.753,-537.78,1
5.104184,-5.45,-3.324,1.161,222.228,91.247,-490.112,1
5.112255,-4.383,-3.218,1.122,195.19,107.788,-441.162,1
5.120505,-3.759,-3.063,1.153,250.732,118.469,-396.301,1
5.128889,-3.464,-2.875,1.128,308.715,137.084,-343.444,1
5.136847,-3.345,-2.685,1.162,325.012,151.184,-297.363,1
5.143688,-3.152,-2.488,1.152,320.617,167.541,-251.831,1
5.151844,-2.983,-2.257,1.177,308.288,179.931,-208.129,1
5.158449,-2.798,-2.061,1.155,284.545,194.213,-166.992,1
5.166352,-2.551,-1.883,1.125,243.957,203.979,-129.394,1
5.174535,-2.432,-1.666,1.094,202.575,214.233,-96.069,1
5.182845,-2.271,-1.432,1.065,169.982,217.529,-67.687,1
5.189565,-2.038,-1.179,1.023,155.883,221.496,-42.297,1
5.197365,-1.931,-0.982,0.992,151.428,219.787,-20.385,1
5.205741,-1.811,-0.827,0.949,158.813,218.627,2.868,1
5.213526,-1.722,-0.695,0.908,167.114,214.294,20.568,1
5.221866,-1.576,-0.566,0.866,177.978,211.303,37.17,1
5.229733,-1.474,-0.475,0.837,184.02,206.481,52.551,1
5.23814,-1.405,-0.398,0.808,184.204,202.88,69.213,1
5.244762,-1.325,-0.342,0.786,175.903,199.707,82.946,1
5.25325,-1.263,-0.284,0.766,162.048,197.937,95.031,1
5.260286,-1.232,-0.195,0.738,144.104,195.983,106.384,1
5.26868,-1.211,-0.115,0.725,128.845,194.519,115.539,1
5.275458,-1.152,-0.084,0.686,113.342,192.26,123.535,1
5.283858,-1.051,-0.012,0.678,101.013,188.72,130.92,1
5.292296,-0.909,-0.002,0.647,97.351,184.875,135.864,1
5.298957,-0.755,0.05,0.651,99.487,179.992,140.747,1
5.306799,-0.618,0.103,0.647,112.731,173.339,146.362,1
5.315172,-0.555,0.157,0.655,129.516,165.771,151.611,1
5.321674,-0.493,0.192,0.645,143.554,158.264,156.372,1
5.330044,-0.491,0.22,0.654,149.719,151.123,160.827,1
5.337997,-0.484,0.238,0.653,143.127,146.118,164.062,1
5.344529,-0.462,0.275,0.669,126.831,142.395,166.503,1
5.352941,-0.404,0.278,0.664,102.478,140.625,167.297,1
5.359808,-0.308,0.339,0.684,77.514,139.16,166.931,1
5.368171,-0.222,0.427,0.696,62.927,138.122,165.039,1
5.375346,-0.168,0.5,0.691,53.039,135.986,162.292,1
5.383645,-0.129,0.535,0.678,47.485,133.667,158.386,1
5.390142,-0.074,0.58,0.669,43.457,130.126,154.602,1
5.398075,0.01,0.603,0.657,44.372,125.183,150.756,1
5.405946,0.032,0.62,0.648,46.997,119.14,146.85,1
5.41249,0.044,0.692,0.684,62.988,114.257,142.822,1
5.419436,0.14,0.701,0.68,84.716,108.154,138.671,1
5.427777,0.222,0.693,0.683,94.97,104.248,136.047,1
5.435737,0.239,0.677,0.698,90.148,100.83,131.835,1
5.443996,0.27,0.661,0.727,73.73,101.135,128.845,1
5.450469,0.314,0.67,0.723,55.603,100.28,125.793,1
5.457625,0.348,0.649,0.742,39.428,101.074,122.802,1
5.466092,0.413,0.627,0.728,21.362,101.623,120.056,1
5.472625,0.448,0.624,0.731,11.291,100.708,117.98,1
5.480392,0.443,0.641,0.733,17.456,98.999,114.807,1
5.486948,0.375,0.654,0.744,40.954,95.031,111.755,1
5.494043,0.336,0.615,0.74,67.443,91.247,109.13,1
5.502226,0.32,0.539,0.728,82.031,88.317,107.299,1
5.509139,0.332,0.462,0.719,88.806,87.097,106.445,1
5.517497,0.359,0.373,0.703,87.463,87.158,106.628,1
5.523835,0.393,0.301,0.666,82.641,88.073,107.604,1
5.530781,0.387,0.222,0.606,76.965,88.439,109.619,1
5.537712,0.439,0.196,0.557,74.462,86.791,112.487,1
5.546411,0.458,0.169,0.534,81.115,86.853,114.624,1
5.553343,0.504,0.117,0.467,90.515,86.303,117.675,1
5.561637,0.5,0.101,0.427,96.923,85.937,120.239,1
5.568458,0.512,0.08,0.38,95.031,85.754,122.497,1
5.576844,0.555,0.089,0.368,85.327,85.876,123.718,1
5.584703,0.584,0.124,0.372,73.12,85.815,125.183,1
5.591052,0.599,0.179,0.391,64.758,85.571,125.671,1
5.598013,0.587,0.238,0.404,64.086,84.777,126.342,1
5.606437,0.538,0.303,0.402,67.504,83.862,126.403,1
5.614252,0.5,0.332,0.383,69.091,83.312,125.915,1
5.621112,0.576,0.368,0.37,65.246,82.885,125.183,1
5.628983,0.705,0.403,0.348,59.326,81.542,123.657,1
5.636889,0.715,0.461,0.349,56.823,81.42,122.009,1
5.645027,0.734,0.52,0.331,58.471,78.918,119.384,1
5.651537,0.768,0.585,0.351,66.711,76.66,116.76,1
5.659673,0.776,0.652,0.361,79.223,73.608,113.586,1
5.667901,0.755,0.721,0.395,94.97,69.702,110.534,1
5.674713,0.684,0.784,0.429,112.243,66.04,106.872,1
5.68276,0.592,0.842,0.48,127.014,62.561,102.722,1
5.69086,0.52,0.86,0.53,134.582,61.523,98.571,1
5.697471,0.458,0.872,0.567,129.394,62.744,94.543,1
5.705465,0.372,0.886,0.603,114.685,64.514,90.881,1
5.712382,0.351,0.868,0.611,98.266,66.711,88.195,1
5.720305,0.367,0.903,0.639,88.073,68.481,84.838,1
5.726762,0.36,0.927,0.649,90.698,69.03,81.97,1
5.734725,0.375,0.943,0.667,100.158,68.664,79.833,1
5.741665,0.373,0.948,0.68,114.44,68.603,77.941,1
5.749156,0.359,0.949,0.685,125.549,67.932,76.171,1
5.757737,0.345,0.933,0.685,130.249,68.176,74.523,1
5.764294,0.38,0.926,0.681,128.479,68.908,72.875,1
5.771031,0.443,0.923,0.69,122.497,70.556,71.411,1
5.779073,0.511,0.928,0.681,112.67,72.326,70.495,1
5.785677,0.568,0.954,0.676,103.027,74.401,69.458,1
5.793674,0.589,0.984,0.666,98.693,75.012,68.115,1
5.800159,0.615,1.013,0.657,99.06,76.049,66.04,1
5.80698,0.654,1.017,0.644,101.44,76.416,64.758,1
5.815475,0.686,1.036,0.634,102.661,76.782,63.11,1
5.822232,0.694,1.055,0.621,103.271,77.148,61.645,1
5.830243,0.697,1.103,0.623,106.323,77.209,59.936,1
5.836924,0.668,1.13,0.623,110.839,78.308,57.922,1
5.844823,0.645,1.143,0.616,112.243,78.796,55.786,1
5.852751,0.657,1.149,0.621,110.778,80.871,54.138,1
5.859462,0.666,1.155,0.602,105.529,82.153,52.124,1
5.867544,0.661,1.165,0.593,96.557,84.838,49.987,1
5.874443,0.66,1.172,0.569,88.256,86.486,47.546,1
5.882748,0.671,1.177,0.554,83.007,89.233,44.982,1
5.889504,0.674,1.183,0.524,78.918,91.003,42.236,1
5.897923,0.667,1.198,0.519,79.04,92.773,39.428,1
5.904584,0.657,1.209,0.494,81.054,94.116,36.315,1
5.912444,0.635,1.212,0.482,84.716,95.458,33.935,1
5.920816,0.643,1.223,0.471,89.965,96.618,31.127,1
5.927299,0.611,1.219,0.458,93.261,97.595,27.954,1
5.935601,0.591,1.205,0.441,93.444,99.67,24.23,1
5.942148,0.627,1.183,0.431,88.745,102.478,21.057,1
5.950425,0.592,1.165,0.411,80.505,106.079,17.517,1
5.957442,0.552,1.158,0.402,72.753,108.642,13.427,1
5.964362,0.531,1.161,0.397,69.824,111.083,10.131,1
5.972762,0.558,1.171,0.409,73.486,111.389,6.408,1
5.982477,0.601,1.184,0.431,84.045,111.328,3.54,1
5.99038,0.644,1.183,0.417,97.534,110.717,0.549,1
5.996854,0.655,1.166,0.395,103.82,110.9,-2.075,1
6.005132,0.666,1.137,0.359,99.182,112.487,-4.943,1
6.013214,0.684,1.097,0.326,94.299,114.318,-7.629,1
6.021291,0.668,1.048,0.296,90.454,116.76,-11.047,1
6.027912,0.62,1.008,0.248,91.43,118.652,-14.343,1
6.036278,0.592,0.989,0.21,98.449,120.239,-17.639,1
6.043065,0.589,0.938,0.173,115.722,120.544,-20.874,1
6.049987,0.587,0.891,0.137,126.831,120.605,-22.583,1
6.057962,0.59,0.863,0.122,135.131,120.727,-23.864,1
6.066343,0.598,0.835,0.118,142.333,120.727,-25.085,1
6.072941,0.63,0.804,0.115,143.981,120.483,-24.78,1
6.080731,0.639,0.774,0.12,142.944,120.483,-23.925,1
6.088515,0.644,0.732,0.123,136.657,120.483,-22.888,1
6.096449,0.709,0.715,0.122,129.882,119.934,-21.606,1
6.103101,0.697,0.703,0.119,127.99,119.323,-19.653,1
6.111497,0.712,0.685,0.115,126.953,116.699,-18.249,1
6.119867,0.692,0.663,0.094,125.854,115.844,-16.296,1
6.127248,0.699,0.641,0.076,124.023,114.562,-15.075,1
6.133957,0.692,0.621,0.053,122.131,114.868,-14.282,1
6.141905,0.682,0.585,0.03,115.356,115.356,-13.366,1
6.149596,0.68,0.547,0.012,106.201,117.248,-12.329,1
6.157254,0.689,0.52,-0.007,90.759,118.713,-11.108,1
6.16426,0.7,0.507,-0.017,71.044,121.215,-10.375,1
6.172523,0.716,0.519,-0.024,56.335,122.192,-10.742,1
6.180485,0.71,0.531,-0.02,50.17,122.863,-11.352,1
6.188504,0.703,0.548,-0.018,52.246,121.765,-11.413,1
6.196925,0.689,0.567,-0.011,62.866,120.666,-11.779,1
6.203615,0.718,0.592,-0.029,79.833,118.896,-11.474,1
6.212041,0.696,0.602,-0.042,97.717,117.065,-11.23,1
6.218574,0.673,0.579,-0.07,109.497,115.905,-10.498,1
6.226922,0.645,0.563,-0.095,109.008,115.478,-9.338,1
6.234787,0.65,0.551,-0.124,100.646,116.638,-8.3,1
6.243209,0.629,0.549,-0.149,88.134,117.98,-7.568,1
6.250101,0.657,0.554,-0.158,75.561,119.14,-7.995,1
6.258367,0.703,0.568,-0.164,74.035,120.3,-7.812,1
6.264893,0.695,0.603,-0.183,73.364,118.53,-7.812,1
6.273322,0.69,0.629,-0.185,82.885,119.018,-8.544,1
6.280342,0.668,0.661,-0.211,96.923,116.394,-9.46,1
6.288663,0.642,0.689,-0.213,116.027,114.929,-9.826,1
6.296581,0.637,0.704,-0.245,134.277,112.548,-10.375,1
6.30453,0.651,0.732,-0.237,155.456,110.29,-10.62,1
6.311038,0.667,0.704,-0.288,170.41,107.971,-10.925,1
6.319994,0.658,0.685,-0.287,174.377,106.994,-10.559,1
6.326942,0.672,0.677,-0.314,177.001,106.079,-9.826,1
6.334769,0.659,0.693,-0.316,178.833,104.553,-8.972,1
6.341895,0.701,0.705,-0.348,177.978,104.187,-8.3,1
6.351407,0.701,0.715,-0.352,174.072,103.271,-7.812,1
6.358241,0.673,0.729,-0.374,169.921,102.722,-7.629,1
6.366354,0.707,0.739,-0.369,171.142,101.318,-7.934,1
6.373425,0.718,0.738,-0.367,176.879,99.731,-7.385,1
6.381496,0.73,0.707,-0.371,180.114,97.656,-7.08,1
6.390323,0.744,0.679,-0.354,184.448,96.13,-6.347,1
6.397167,0.767,0.666,-0.337,189.392,94.177,-5.737,1
6.405329,0.775,0.662,-0.325,197.509,93.078,-4.943,1
6.41201,0.743,0.647,-0.322,204.956,92.041,-3.906,1
6.420297,0.734,0.627,-0.316,203.369,91.674,-2.319,1
6.427261,0.771,0.6,-0.308,196.472,91.369,-1.464,1
6.434583,0.776,0.594,-0.303,178.527,90.881,0.854,1
6.44315,0.774,0.588,-0.297,157.165,92.285,1.525,1
6.45006,0.758,0.588,-0.299,132.812,93.383,2.197,1
6.458168,0.741,0.605,-0.286,111.145,94.787,2.258,1
6.465053,0.744,0.634,-0.281,94.177,95.947,1.77,1
6.472799,0.74,0.657,-0.259,84.167,96.679,0.671,1
6.481842,0.721,0.67,-0.254,82.58,97.29,-0.183,1
6.489105,0.743,0.675,-0.256,89.172,96.74,-1.953,1
6.496256,0.741,0.665,-0.261,94.421,96.557,-2.99,1
6.504907,0.726,0.648,-0.291,91.491,95.825,-3.967,1
6.511839,0.722,0.643,-0.286,86.425,96.496,-4.943,1
6.518777,0.759,0.628,-0.295,81.481,96.069,-4.943,1
6.526917,0.772,0.667,-0.287,78.674,96.74,-6.286,1
6.535259,0.78,0.655,-0.288,83.74,95.703,-6.103,1
6.543403,0.736,0.706,-0.309,84.167,95.581,-7.69,1
6.55034,0.694,0.715,-0.309,81.481,94.787,-8.544,1
6.557216,0.712,0.732,-0.345,75.988,95.581,-9.704,1
6.565714,0.709,0.739,-0.358,64.88,95.275,-11.108,1
6.572529,0.707,0.743,-0.37,55.175,96.496,-12.268,1
6.579125,0.681,0.76,-0.377,46.081,95.825,-14.16,1
6.586851,0.718,0.771,-0.394,46.569,96.069,-15.869,1
6.595106,0.745,0.759,-0.413,50.537,94.177,-17.944,1
6.602018,0.737,0.752,-0.415,59.02,93.017,-18.981,1
6.608933,0.724,0.742,-0.428,67.993,90.454,-20.385,1
6.615962,0.732,0.723,-0.422,74.279,89.66,-21.24,1
6.624411,0.718,0.698,-0.433,75.561,88.867,-22.033,1
6.631315,0.685,0.687,-0.449,69.091,88.867,-22.399,1
6.639431,0.667,0.678,-0.465,54.687,89.05,-22.827,1
6.645842,0.679,0.689,-0.475,39.062,89.782,-23.864,1
6.652815,0.67,0.704,-0.498,29.113,89.538,-24.841,1
6.6612,0.662,0.719,-0.506,23.681,88.317,-26.55,1
6.667787,0.654,0.724,-0.528,25.756,86.914,-28.442,1
6.675838,0.648,0.72,-0.55,33.508,84.167,-30.029,1
6.682325,0.674,0.702,-0.566,44.189,81.604,-31.249,1
6.690576,0.7,0.68,-0.578,52.612,79.528,-32.104,1
6.697166,0.704,0.669,-0.588,60.18,77.087,-32.958,1
6.705454,0.712,0.656,-0.586,67.321,74.523,-33.386,1
6.712411,0.713,0.65,-0.585,71.838,72.143,-34.057,1
6.719367,0.673,0.643,-0.564,71.838,70.373,-34.362,1
6.727456,0.645,0.633,-0.566,70.251,69.519,-34.667,1
6.734288,0.641,0.634,-0.56,64.697,68.664,-35.461,1
6.741014,0.65,0.632,-0.545,60.302,68.115,-36.071,1
6.749367,0.638,0.64,-0.543,58.532,67.138,-36.865,1
6.755926,0.645,0.644,-0.536,60.791,66.589,-37.902,1
6.764265,0.639,0.646,-0.544,64.27,66.162,-38.818,1
6.771046,0.651,0.653,-0.546,69.824,65.246,-39.245,1
6.777977,0.663,0.657,-0.56,75.195,64.27,-39.672,1
6.786495,0.713,0.664,-0.572,82.946,63.415,-40.039,1
6.792989,0.719,0.659,-0.576,90.698,61.828,-40.466,1
6.800942,0.75,0.65,-0.566,99.182,60.852,-40.771,1
6.807589,0.775,0.625,-0.564,104.248,59.936,-40.527,1
6.816081,0.806,0.59,-0.54,106.445,59.997,-40.283,1
6.822781,0.826,0.55,-0.538,100.158,59.814,-39.245,1
6.829728,0.836,0.53,-0.529,83.679,61.95,-37.902,1
6.836761,0.757,0.565,-0.511,61.95,63.72,-37.048,1
6.845245,0.697,0.618,-0.52,51.513,63.903,-38.024,1
6.851815,0.59,0.671,-0.471,51.208,63.964,-38.757,1
6.858719,0.647,0.703,-0.486,61.035,64.758,-40.771,1
6.866938,0.63,0.701,-0.466,74.096,62.744,-42.053,1
6.874071,0.62,0.714,-0.443,94.482,63.598,-42.968,1
6.88119,0.707,0.692,-0.438,113.586,62.072,-44.494,1
6.888214,0.741,0.664,-0.419,122.924,63.598,-45.471,1
6.896617,0.746,0.645,-0.433,117.797,64.575,-45.654,1
6.90327,0.759,0.641,-0.419,101.379,67.871,-46.264,1
6.911081,0.708,0.645,-0.431,72.814,71.411,-47.119,1
6.917993,0.669,0.688,-0.418,41.687,75.439,-48.461,1
6.925865,0.667,0.729,-0.42,14.465,78.125,-49.743,1
6.933639,0.642,0.775,-0.431,-2.685,81.115,-51.757,1
6.940307,0.677,0.797,-0.442,-16.174,81.848,-54.199,1
6.948351,0.717,0.827,-0.447,-16.723,81.909,-56.701,1
6.955232,0.737,0.84,-0.448,-7.324,80.749,-59.204,1
6.962149,0.726,0.838,-0.453,5.493,79.162,-61.523,1
6.969229,0.712,0.832,-0.455,16.906,77.636,-63.903,1
6.977144,0.68,0.807,-0.447,25.024,76.66,-65.856,1
6.984006,0.68,0.789,-0.446,35.339,75.805,-67.871,1
6.992286,0.693,0.751,-0.446,47.546,74.523,-69.641,1
6.999218,0.703,0.715,-0.455,53.833,75.073,-70.739,1
7.006338,0.689,0.676,-0.474,46.081,75.378,-71.716,1
7.014705,0.665,0.671,-0.48,31.188,77.209,-72.875,1
7.021456,0.68,0.676,-0.489,17.639,77.636,-73.974,1
7.028427,0.689,0.682,-0.502,9.277,78.796,-74.768,1
7.036818,0.698,0.69,-0.511,3.54,78.613,-75.927,1
7.04337,0.657,0.675,-0.502,2.807,78.613,-77.636,1
7.05045,0.593,0.678,-0.496,9.216,78.43,-79.284,1
7.058623,0.577,0.666,-0.484,22.277,76.782,-80.688,1
7.066701,0.541,0.622,-0.484,33.752,76.538,-81.909,1
7.074654,0.531,0.573,-0.5,38.391,76.477,-82.641,1
7.083067,0.506,0.533,-0.517,36.01,77.819,-83.129,1
7.089645,0.497,0.499,-0.532,28.747,79.04,-83.74,1
7.098348,0.484,0.484,-0.531,23.559,80.81,-83.74,1
7.106499,0.462,0.463,-0.542,17.761,81.42,-83.984,1
7.112937,0.441,0.447,-0.542,12.207,82.58,-84.35,1
7.120651,0.395,0.424,-0.554,6.774,83.19,-84.35,1
7.12935,0.38,0.41,-0.558,3.356,83.984,-84.289,1
7.137363,0.364,0.387,-0.569,-0.976,83.496,-84.411,1
7.145541,0.392,0.346,-0.567,3.234,82.885,-84.35,1
7.152187,0.367,0.306,-0.585,13.0,81.359,-83.862,1
7.160562,0.402,0.287,-0.572,29.113,79.345,-82.702,1
7.167082,0.392,0.243,-0.592,40.649,79.101,-80.81,1
7.175747,0.352,0.215,-0.622,37.963,78.918,-78.857,1
7.183679,0.345,0.213,-0.635,22.766,80.627,-76.965,1
7.190679,0.356,0.235,-0.649,6.591,81.481,-75.561,1
7.198972,0.353,0.267,-0.651,-2.197,82.092,-74.584,1
7.206968,0.346,0.291,-0.665,-3.601,81.42,-73.608,1
7.215311,0.375,0.291,-0.691,2.38,79.711,-72.753,1
7.221807,0.409,0.275,-0.718,11.779,78.308,-71.899,1
7.230245,0.435,0.251,-0.745,23.132,76.171,-70.739,1
7.237263,0.456,0.222,-0.775,31.616,74.646,-68.969,1
7.245683,0.463,0.189,-0.79,33.63,73.181,-66.955,1
7.252643,0.44,0.172,-0.801,25.451,72.448,-64.514,1
7.260965,0.407,0.169,-0.796,14.892,73.12,-63.171,1
7.267658,0.375,0.184,-0.795,-0.793,73.791,-61.34,1
7.275909,0.349,0.2,-0.789,-8.789,74.157,-60.668,1
7.284134,0.322,0.218,-0.784,-14.343,74.646,-59.875,1
7.290926,0.305,0.221,-0.78,-15.686,74.34,-59.692,1
7.29934,0.306,0.209,-0.782,-16.418,74.768,-59.326,1
7.307739,0.315,0.187,-0.793,-19.653,75.195,-59.57,1
7.314344,0.31,0.167,-0.788,-24.291,75.378,-59.204,1
7.322708,0.303,0.145,-0.785,-30.273,75.683,-58.898,1
7.330682,0.303,0.12,-0.776,-34.667,76.171,-58.654,1
7.339049,0.301,0.086,-0.766,-35.278,76.232,-57.861,1
7.34563,0.309,0.057,-0.763,-34.24,76.477,-57.128,1
7.354056,0.338,0.03,-0.753,-33.142,77.27,-56.091,1
7.362398,0.318,0.014,-0.762,-36.315,79.345,-54.504,1
7.369296,0.316,0.0,-0.769,-46.142,80.932,-53.283,1
7.377224,0.314,0.0,-0.765,-59.204,83.923,-52.734,1
7.385527,0.3,0.001,-0.779,-72.265,85.815,-52.001,1
7.393483,0.268,0.016,-0.773,-81.115,87.829,-51.391,1
7.401902,0.244,0.024,-0.77,-80.017,87.768,-51.879,1
7.408874,0.222,0.022,-0.762,-69.58,87.829,-51.879,1
7.416762,0.184,0.01,-0.757,-56.213,87.524,-52.673,1
7.425973,0.175,-0.026,-0.763,-45.532,87.951,-52.551,1
7.434114,0.163,-0.057,-0.758,-40.588,88.928,-52.307,1
7.440685,0.168,-0.085,-0.761,-41.076,90.026,-52.368,1
7.449037,0.146,-0.108,-0.767,-44.921,91.43,-51.33,1
7.457511,0.161,-0.124,-0.786,-52.612,93.749,-50.72,1
7.465479,0.164,-0.141,-0.803,-62.988,95.458,-49.621,1
7.474078,0.161,-0.153,-0.834,-76.11,97.29,-48.767,1
7.480622,0.153,-0.159,-0.856,-89.111,98.571,-47.668,1
7.489023,0.14,-0.161,-0.87,-94.726,99.853,-46.752,1
7.497428,0.105,-0.158,-0.879,-95.275,100.158,-45.898,1
7.505788,0.073,-0.156,-0.889,-91.003,100.158,-45.288,1
7.5138,0.024,-0.158,-0.893,-83.923,100.219,-44.677,1
7.520457,-0.009,-0.169,-0.898,-78.002,100.158,-44.372,1
7.52855,-0.049,-0.176,-0.907,-75.195,100.341,-43.701,1
7.53665,-0.078,-0.198,-0.908,-76.538,100.769,-43.212,1
7.542942,-0.12,-0.205,-0.918,-80.444,100.891,-42.907,1
7.55097,-0.19,-0.207,-0.91,-82.58,100.952,-42.785,1
7.558925,-0.25,-0.213,-0.898,-79.223,100.219,-42.602,1
7.565646,-0.308,-0.222,-0.881,-76.599,99.609,-42.48,1
7.573711,-0.337,-0.242,-0.866,-71.838,99.792,-42.541,1
7.581741,-0.39,-0.252,-0.848,-59.753,98.754,-41.87,1
7.58985,-0.41,-0.28,-0.838,-48.034,98.571,-41.198,1
7.597519,-0.435,-0.315,-0.839,-39.184,97.839,-39.978,1
7.606249,-0.466,-0.336,-0.832,-33.813,97.961,-38.391,1
7.614556,-0.492,-0.355,-0.818,-32.104,97.778,-36.56,1
7.623582,-0.51,-0.374,-0.815,-30.273,98.632,-34.729,1
7.631505,-0.561,-0.405,-0.803,-29.724,99.182,-32.287,1
7.639921,-0.658,-0.28,-0.75,-13.549,97.656,-27.954,1
7.647515,-0.668,-0.339,-0.735,7.507,97.778,-25.756,1
7.655183,-0.675,-0.431,-0.75,16.601,97.045,-23.132,1
7.663127,-0.723,-0.458,-0.763,15.38,98.632,-18.127,1
7.670523,-0.803,-0.494,-0.761,8.85,99.67,-11.962,1
7.678425,-0.838,-0.53,-0.766,7.507,101.44,-7.812,1
7.685703,-0.889,-0.545,-0.76,4.15,101.684,-1.22,1
7.693782,-0.95,-0.526,-0.75,4.882,103.82,4.699,1
7.701015,-0.989,-0.563,-0.759,5.798,103.332,11.23,1
7.71019,-1.04,-0.619,-0.774,3.173,106.506,18.493,1
7.717862,-1.104,-0.658,-0.8,-7.446,108.215,28.137,1
7.726526,-1.175,-0.677,-0.807,-18.31,111.572,36.499,1
7.734373,-1.233,-0.722,-0.846,-31.738,113.891,46.691,1
7.742379,-1.272,-0.742,-0.855,-40.71,116.638,55.664,1
7.750373,-1.337,-0.759,-0.875,-46.081,118.041,64.758,1
7.758431,-1.362,-0.785,-0.88,-43.762,119.628,74.462,1
7.765394,-1.462,-0.792,-0.887,-33.569,120.422,86.73,1
7.773608,-1.523,-0.822,-0.902,-21.24,120.971,97.839,1
7.782006,-1.603,-0.839,-0.915,-8.666,120.178,111.755,1
7.790586,-1.606,-0.867,-0.913,9.46,118.53,124.45,1
7.798615,-1.792,-0.832,-0.919,32.104,117.492,137.146,1
7.806686,-1.942,-0.904,-0.948,49.621,112.182,153.198,1
7.814693,-1.965,-0.971,-0.976,44.982,111.816,168.579,1
7.822066,-1.998,-0.997,-1.018,43.701,108.276,184.509,1
7.829026,-2.159,-0.991,-0.987,50.72,106.323,202.148,1
7.837449,-2.297,-1.057,-1.038,70.8,100.646,220.031,1
7.845773,-2.468,-1.16,-1.006,53.588,98.388,243.408,1
7.852728,-2.469,-1.148,-1.099,47.851,94.604,264.099,1
7.860996,-2.841,-1.149,-1.036,52.49,90.026,286.499,1
7.867836,-3.119,-1.204,-1.14,68.725,86.303,311.157,1
7.876172,-3.292,-1.251,-1.165,82.519,78.979,337.89,1
7.884467,-3.686,-1.336,-1.32,97.839,71.899,366.577,1
7.892462,-4.18,-1.386,-1.38,103.332,60.485,401.306,1
7.899226,-4.642,-1.431,-1.518,111.572,49.377,433.227,1
7.907575,-5.183,-1.508,-1.59,107.727,36.193,466.247,1
7.915369,-5.75,-1.563,-1.744,108.703,22.521,501.77,1
7.923214,-6.432,-1.681,-1.927,106.506,2.258,544.677,1
7.93162,-7.187,-1.791,-2.124,100.83,-17.456,583.74,1
7.939618,-8.089,-1.85,-2.27,112.487,-46.02,632.446,1
7.947743,-9.045,-1.887,-2.463,146.85,-78.918,676.208,1
7.955972,-10.086,-1.931,-2.638,195.007,-121.643,721.313,1
7.964147,-11.199,-1.962,-2.811,246.887,-174.255,766.967,1
7.970771,-12.616,-1.964,-2.967,291.87,-236.999,811.462,1
7.978975,-14.049,-1.841,-3.071,354.553,-326.599,858.886,1
7.987329,-15.646,-1.639,-3.011,410.339,-415.405,891.723,1
7.99519,-15.992,-1.334,-2.881,441.589,-509.704,914.977,1
8.003551,-15.999,-0.743,-2.578,447.814,-606.75,927.123,1
8.011647,-15.999,-0.207,-2.236,460.144,-721.862,926.269,1
8.019526,-15.999,0.289,-1.784,483.52,-824.951,913.94,1
8.027389,-15.999,0.814,-1.108,547.363,-946.533,883.544,1
8.035301,-15.999,1.044,-0.524,616.577,-1054.931,840.393,1
8.04228,-15.999,1.228,-0.037,669.921,-1158.63,780.456,1
8.049799,-15.999,1.546,0.478,709.045,-1255.676,705.566,1
8.058179,-15.999,2.002,1.03,760.925,-1346.008,611.633,1
8.066224,-15.999,2.408,1.527,827.392,-1424.804,495.3,1
8.072889,-15.999,2.703,2.042,874.877,-1487.182,359.069,1
8.079652,-15.999,3.037,2.642,896.362,-1516.418,208.984,1
8.087625,-15.999,3.084,3.174,928.527,-1527.221,46.997,1
8.094567,-15.999,2.986,3.766,969.543,-1508.178,-96.862,1
8.101307,-15.999,2.749,3.778,985.595,-1460.693,-272.46,1
8.109745,-15.999,2.562,3.801,959.533,-1378.845,-434.387,1
8.116473,-15.999,2.293,3.512,899.658,-1285.4,-574.89,1
8.124538,-15.999,2.01,3.493,802.612,-1176.635,-683.837,1
8.131434,-15.999,1.738,3.226,741.394,-1083.19,-755.248,1
8.138113,-15.999,1.577,2.907,740.112,-980.651,-825.317,1
8.14658,-15.999,1.528,2.599,790.039,-869.995,-887.207,1
8.152985,-15.999,1.336,2.356,845.458,-754.638,-946.472,1
8.161383,-15.999,0.91,1.972,820.739,-619.934,-993.774,1
8.169166,-15.999,0.567,1.569,724.548,-500.366,-1023.803,1
8.177252,-15.999,0.185,1.617,582.092,-381.591,-1032.531,1
8.185251,-15.999,-0.169,1.471,405.273,-286.438,-1023.803,1
8.193088,-15.999,-0.408,1.556,229.98,-206.97,-999.389,1
8.200892,-15.999,-0.632,1.512,116.638,-167.419,-972.045,1
8.209121,-15.999,-0.766,1.643,90.881,-144.165,-941.467,1
8.21727,-15.433,-0.626,1.661,171.447,-126.525,-905.395,1
8.225565,-13.839,-1.024,1.617,279.174,-105.163,-870.971,1
8.232437,-11.919,-1.448,1.406,354.309,-69.946,-835.998,1
8.241913,-10.707,-1.718,1.27,397.766,-28.564,-790.893,1
8.250621,-9.268,-1.981,1.222,370.422,14.221,-745.056,1
8.257535,-8.246,-1.941,1.106,338.073,53.955,-690.673,1
8.266138,-7.393,-1.776,1.111,350.646,86.486,-643.31,1
8.273103,-6.709,-1.434,0.936,399.536,110.412,-597.412,1
8.28129,-6.197,-1.321,0.836,482.666,141.418,-539.306,1
8.289635,-5.737,-1.27,0.65,532.897,166.015,-486.999,1
8.296394,-5.339,-1.273,0.549,551.452,193.359,-432.678,1
8.30467,-5.005,-1.263,0.405,538.391,218.811,-378.417,1
8.311134,-4.665,-1.219,0.357,505.554,241.638,-325.256,1
8.319654,-4.43,-1.162,0.264,458.557,262.573,-275.024,1
8.326164,-4.192,-1.11,0.21,398.193,276.611,-230.041,1
8.334729,-3.915,-1.083,0.158,336.181,289.855,-189.697,1
8.341402,-3.632,-1.034,0.113,277.709,295.898,-154.174,1
8.349866,-3.39,-0.996,0.087,233.52,300.231,-122.741,1
8.356536,-3.121,-0.972,0.054,206.787,299.072,-94.787,1
8.363422,-2.856,-0.962,0.044,198.669,297.119,-72.509,1
8.370729,-2.642,-0.953,0.02,202.209,292.907,-47.119,1
8.379059,-2.389,-0.939,0.0,214.904,287.048,-22.705,1
8.385664,-2.156,-0.939,-0.017,221.74,281.738,1.525,1
8.393095,-1.957,-0.926,-0.039,216.674,276.428,24.78,1
8.400059,-1.739,-0.891,-0.04,207.397,272.949,42.907,1
8.408453,-1.584,-0.841,-0.045,192.321,267.089,63.598,1
8.415168,-1.419,-0.759,-0.03,180.48,261.352,82.214,1
8.421882,-1.275,-0.662,-0.028,174.682,254.028,98.937,1
8.429563,-1.165,-0.569,-0.017,174.194,245.788,114.135,1
8.436549,-1.12,-0.484,-0.021,174.377,238.403,125.427,1
8.44473,-1.104,-0.423,-0.016,173.095,228.759,138.0,1
8.451609,-1.085,-0.349,-0.012,170.288,219.543,148.986,1
8.461258,-1.041,-0.278,-0.017,165.527,210.51,158.569,1
8.467761,-0.967,-0.214,-0.025,156.677,200.744,167.907,1
8.474785,-0.891,-0.165,-0.019,143.249,193.298,174.499,1
8.483009,-0.794,-0.125,-0.021,128.173,187.744,179.26,1
8.48989,-0.689,-0.096,-0.022,106.445,182.312,183.837,1
8.496821,-0.557,-0.062,-0.026,82.763,177.612,187.316,1
8.504818,-0.427,-0.029,-0.029,59.143,174.072,189.514,1
8.511698,-0.317,0.023,-0.029,38.757,170.654,190.368,1
8.518668,-0.202,0.07,-0.022,24.963,167.541,190.673,1
8.527012,-0.11,0.125,-0.023,13.061,164.489,189.819,1
8.533583,-0.063,0.175,-0.024,4.821,160.644,187.866,1
8.54147,-0.005,0.228,-0.015,0.122,156.677,185.119,1
8.548188,0.086,0.263,-0.017,-2.38,153.381,183.044,1
8.556078,0.191,0.326,-0.009,-2.38,149.597,180.297,1
8.562706,0.278,0.369,-0.024,0.976,142.578,176.879,1
8.569602,0.391,0.412,-0.012,9.277,138.854,174.133,1
8.576573,0.506,0.445,-0.042,18.615,131.713,171.02,1
8.58356,0.612,0.486,-0.036,29.785,125.671,167.907,1
8.591812,0.675,0.53,-0.063,39.184,119.812,164.489,1
8.598612,0.701,0.57,-0.042,50.72,112.976,160.217,1
8.605515,0.747,0.608,-0.055,61.157,106.994,156.25,1
8.61236,0.77,0.641,-0.059,66.528,101.44,152.526,1
8.619257,0.737,0.689,-0.067,71.105,95.581,147.644,1
8.627275,0.78,0.724,-0.091,76.354,88.317,141.784,1
8.634041,0.77,0.75,-0.089,80.078,82.702,136.657,1
8.641943,0.816,0.776,-0.104,82.397,75.927,130.737,1
8.648439,0.864,0.792,-0.092,81.359,70.129,124.694,1
8.655319,0.926,0.818,-0.104,81.176,65.124,118.041,1
8.662382,0.928,0.826,-0.102,81.237,60.424,112.487,1
8.669496,0.965,0.829,-0.093,85.266,56.579,105.773,1
8.677868,0.985,0.808,-0.093,86.975,52.734,100.036,1
8.684748,0.993,0.804,-0.064,89.294,50.17,92.59,1
8.692502,1.018,0.8,-0.055,92.407,46.813,85.571,1
8.700089,1.062,0.803,-0.027,98.51,44.189,78.735,1
8.706966,1.124,0.789,-0.026,109.069,40.1,72.631,1
8.715267,1.159,0.783,-0.009,124.328,35.949,67.077,1
8.723363,1.167,0.75,-0.012,142.211,31.433,62.316,1
8.73031,1.178,0.713,0.013,158.63,27.038,58.41,1
8.738033,1.185,0.651,0.021,169.189,23.986,55.419,1
8.744764,1.166,0.582,0.058,171.752,21.728,53.955,1
8.753114,1.077,0.568,0.095,174.865,22.766,51.696,1
8.760022,1.017,0.524,0.128,180.786,20.935,49.194,1
8.76695,0.907,0.419,0.151,169.433,25.024,46.63,1
8.775311,0.86,0.405,0.177,150.024,26.794,43.762,1
8.783301,0.835,0.39,0.209,131.53,32.653,40.893,1
8.789795,0.814,0.344,0.205,109.497,35.766,38.024,1
8.7973,0.751,0.302,0.223,94.055,40.832,37.231,1
8.804388,0.768,0.268,0.2,77.331,44.25,35.583,1
8.812737,0.732,0.211,0.22,63.659,48.706,34.912,1
8.820722,0.686,0.129,0.162,42.846,52.429,34.545,1
8.827397,0.633,0.055,0.153,17.15,58.532,34.79,1
8.835811,0.603,0.012,0.117,-8.178,63.171,35.217,1
8.842553,0.568,-0.006,0.121,-25.39,68.542,36.132,1
8.850261,0.546,0.0,0.095,-33.813,71.594,37.231,1
8.858795,0.516,0.019,0.102,-32.775,74.401,38.818,1
8.86569,0.499,0.02,0.084,-26.916,75.988,40.71,1
8.873879,0.445,0.02,0.089,-19.287,77.636,42.48,1
8.880358,0.392,0.025,0.08,-10.986,79.223,44.372,1
8.888633,0.316,0.027,0.081,-4.272,80.261,45.959,1
8.895619,0.253,0.028,0.066,0.976,82.275,47.424,1
8.90404,0.193,0.026,0.071,5.004,83.74,49.011,1
8.91092,0.137,0.023,0.051,8.728,85.571,50.292,1
8.917888,0.118,0.019,0.051,11.23,86.486,51.818,1
8.926274,0.118,0.014,0.045,13.793,88.806,53.955,1
8.933186,0.154,0.004,0.038,16.296,90.026,57.006,1
8.941498,0.229,-0.007,0.038,21.484,92.407,61.035,1
8.949348,0.282,-0.019,0.026,26.733,94.055,65.979,1
8.956041,0.335,-0.03,0.025,32.958,96.374,71.35,1
8.96389,0.338,-0.041,0.017,36.499,97.961,77.453,1
8.970692,0.331,-0.043,0.012,39.916,100.097,83.74,1
8.978066,0.418,-0.07,-0.008,39.062,101.562,89.538,1
8.986657,0.347,-0.069,-0.007,35.4,103.149,96.862,1
8.99511,0.339,-0.072,-0.016,31.738,104.614,105.285,1
9.00197,0.393,-0.09,-0.02,27.893,107.116,112.976,1
9.010273,0.408,-0.088,-0.037,23.071,107.238,121.093,1
9.018171,0.462,-0.084,-0.02,21.789,109.008,129.333,1
9.024823,0.491,-0.086,-0.04,22.766,109.802,138.61,1
9.033173,0.49,-0.072,-0.034,25.634,110.29,147.766,1
9.039837,0.474,-0.064,-0.051,28.808,110.9,156.433,1
9.048237,0.43,-0.058,-0.045,30.334,110.961,165.1,1
9.056216,0.374,-0.054,-0.065,29.907,111.389,173.645,1
9.064523,0.313,-0.047,-0.062,25.146,111.694,183.41,1
9.071045,0.248,-0.038,-0.082,18.92,111.511,191.711,1
9.079546,0.186,-0.023,-0.07,13.793,110.778,199.645,1
9.086148,0.114,-0.004,-0.081,10.925,110.778,207.031,1
9.094501,0.029,0.022,-0.075,10.986,110.351,214.05,1
9.101173,-0.049,0.047,-0.079,13.183,110.229,220.764,1
9.109474,-0.126,0.075,-0.076,16.967,109.741,227.6,1
9.11797,-0.208,0.115,-0.086,23.132,109.008,233.947,1
9.124489,-0.314,0.167,-0.097,28.198,107.666,239.562,1
9.132842,-0.413,0.218,-0.11,34.606,106.201,244.506,1
9.139818,-0.53,0.3,-0.127,44.067,102.905,248.474,1
9.146853,-0.646,0.408,-0.149,60.241,98.449,251.831,1
9.155426,-0.742,0.53,-0.173,81.97,91.369,253.845,1
9.164362,-0.821,0.649,-0.186,107.36,83.312,255.859,1
9.170914,-0.92,0.797,-0.213,135.009,72.875,258.3,1
9.178339,-1.02,0.932,-0.229,150.695,63.781,259.033,1
9.186701,-1.067,1.005,-0.24,147.094,56.518,259.765,1
9.194605,-1.134,1.122,-0.237,126.647,51.208,259.155,1
9.201554,-1.219,1.204,-0.213,90.881,49.133,257.629,1
9.208594,-1.275,1.34,-0.22,51.513,49.194,255.493,1
9.216901,-1.136,1.51,-0.211,27.282,50.17,251.22,1
9.223527,-1.288,1.659,-0.201,6.347,52.124,247.192,1
9.230418,-1.172,1.751,-0.186,-4.211,51.635,241.455,1
9.238312,-1.358,1.883,-0.205,-14.648,53.1,235.473,1
9.246791,-1.254,1.947,-0.187,-20.751,52.124,228.149,1
9.253517,-1.21,1.988,-0.175,-20.019,53.283,221.313,1
9.260395,-1.155,2.021,-0.163,-20.324,52.856,213.745,1
9.268374,-1.114,2.041,-0.137,-21.789,55.297,206.359,1
9.276194,-1.08,2.052,-0.14,-30.09,57.189,198.73,1
9.283137,-1.057,2.051,-0.116,-40.344,60.18,190.734,1
9.291453,-0.993,2.041,-0.116,-50.476,62.988,182.922,1
9.298075,-1.025,2.015,-0.105,-56.701,66.345,176.33,1
9.306508,-1.073,2.042,-0.108,-73.425,70.19,169.067,1
9.313176,-1.03,2.063,-0.1,-83.435,73.242,162.597,1
9.320108,-0.989,2.057,-0.106,-88.5,76.354,155.273,1
9.328619,-0.959,2.058,-0.098,-87.951,77.636,148.071,1
9.335209,-0.917,2.044,-0.109,-83.801,79.223,141.113,1
9.342291,-0.91,2.022,-0.109,-82.092,80.139,134.582,1
9.349836,-0.909,2.027,-0.108,-78.674,81.054,128.295,1
9.35776,-0.888,2.017,-0.117,-76.232,81.481,123.107,1
9.364662,-0.869,1.996,-0.119,-76.354,82.702,116.577,1
9.373049,-0.831,1.983,-0.12,-76.599,83.312,110.717,1
9.379458,-0.813,1.969,-0.122,-72.387,84.106,105.102,1
9.3875,-0.778,1.947,-0.128,-64.331,84.106,99.243,1
9.394467,-0.737,1.931,-0.132,-53.649,83.862,93.994,1
9.402216,-0.703,1.903,-0.143,-40.588,83.007,88.867,1
9.410665,-0.656,1.867,-0.143,-26.733,81.97,83.801,1
9.418637,-0.573,1.788,-0.151,-19.958,81.42,78.552,1
9.425466,-0.595,1.776,-0.143,-10.009,80.627,73.608,1
9.433758,-0.52,1.726,-0.12,2.319,79.956,68.908,1
9.440748,-0.455,1.66,-0.128,8.178,80.261,64.208,1
9.447846,-0.41,1.609,-0.113,8.728,80.566,59.143,1
9.45633,-0.379,1.571,-0.105,7.446,81.665,54.626,1
9.463237,-0.348,1.54,-0.101,5.493,82.885,49.56,1
9.471504,-0.316,1.498,-0.088,6.652,84.655,44.86,1
9.479544,-0.305,1.463,-0.085,8.544,86.303,40.039,1
9.486472,-0.293,1.419,-0.083,8.972,88.684,34.729,1
9.49474,-0.297,1.379,-0.087,7.812,90.942,30.7,1
9.503053,-0.314,1.35,-0.086,7.568,93.2,26.611,1
9.509948,-0.328,1.312,-0.082,9.46,95.153,22.949,1
9.518395,-0.352,1.271,-0.088,10.559,97.473,19.409,1
9.524988,-0.386,1.23,-0.093,7.995,99.731,16.54,1
9.533328,-0.432,1.204,-0.097,2.38,102.722,14.16,1
9.540339,-0.482,1.197,-0.106,-5.676,105.651,11.779,1
9.548596,-0.502,1.18,-0.109,-14.831,108.581,8.85,1
9.557628,-0.54,1.161,-0.117,-24.169,111.389,5.737,1
9.565473,-0.564,1.142,-0.119,-27.221,113.098,3.295,1
9.573837,-0.583,1.114,-0.111,-23.864,113.83,1.098,1
9.582313,-0.598,1.078,-0.113,-12.329,113.952,-0.366,1
9.588981,-0.592,1.015,-0.114,-2.929,113.525,-1.342,1
9.598405,-0.666,1.0,-0.118,1.22,114.135,-0.732,1
9.604941,-0.731,0.983,-0.12,4.272,114.44,-0.305,1
9.612848,-0.781,0.972,-0.125,4.15,115.966,0.549,1
9.621145,-0.782,0.946,-0.136,-5.432,117.004,1.098,1
9.629123,-0.778,0.921,-0.131,-21.85,119.75,1.22,1
9.637001,-0.778,0.905,-0.131,-33.142,120.178,1.403,1
9.643588,-0.777,0.893,-0.116,-36.682,120.849,1.586,1
9.651892,-0.729,0.863,-0.119,-36.132,120.666,1.525,1
9.659807,-0.755,0.839,-0.102,-35.583,120.91,1.953,1
9.667579,-0.798,0.832,-0.11,-31.799,120.178,2.563,1
9.674834,-0.819,0.823,-0.096,-26.245,120.666,3.295,1
9.683047,-0.886,0.816,-0.112,-29.602,121.215,3.356,1
9.691847,-0.87,0.794,-0.112,-41.625,122.741,2.502,1
9.699787,-0.906,0.791,-0.129,-59.936,125.61,1.647,1
9.706322,-0.863,0.793,-0.113,-75.561,127.136,-0.122,1
9.714715,-0.82,0.753,-0.104,-81.604,130.065,-2.319,1
9.722579,-0.942,0.755,-0.076,-88.562,130.92,-4.15,1
9.730951,-1.111,0.73,-0.119,-94.36,132.324,-5.126,1
9.739538,-1.098,0.762,-0.089,-90.515,130.798,-8.361,1
9.747569,-1.106,0.733,-0.094,-69.641,130.004,-9.338,1
9.754131,-1.106,0.721,-0.08,-43.029,127.563,-10.742,1
9.763416,-1.133,0.691,-0.101,-15.136,127.136,-10.986,1
9.769993,-1.106,0.654,-0.115,4.638,125.427,-11.23,1
9.778326,-0.988,0.604,-0.127,12.084,126.22,-11.718,1
9.786743,-1.038,0.551,-0.169,2.685,127.014,-10.986,1
9.793268,-1.022,0.519,-0.188,-16.54,128.662,-11.474,1
9.801714,-1.08,0.499,-0.204,-44.433,130.249,-11.108,1
9.808647,-1.07,0.497,-0.223,-73.181,131.408,-12.451,1
9.816617,-1.087,0.491,-0.209,-97.961,132.629,-12.817,1
9.823612,-1.053,0.497,-0.223,-116.394,130.493,-14.648,1
9.832226,-1.009,0.495,-0.214,-120.361,129.211,-15.38,1
9.838843,-0.983,0.484,-0.213,-113.647,124.816,-16.662,1
9.847156,-0.985,0.473,-0.203,-94.055,121.032,-17.089,1
9.854051,-0.97,0.464,-0.201,-67.26,115.539,-16.418,1
9.862473,-0.96,0.449,-0.189,-38.208,110.473,-15.319,1
9.870475,-0.933,0.421,-0.206,-15.197,106.628,-13.671,1
9.877051,-0.912,0.383,-0.218,-3.845,103.271,-11.779,1
9.885325,-0.906,0.366,-0.231,-3.662,101.318,-9.765,1
9.891903,-0.904,0.35,-0.244,-12.084,99.426,-7.629,1
9.900387,-0.884,0.334,-0.246,-25.39,98.51,-5.737,1
9.906998,-0.864,0.321,-0.251,-41.32,97.534,-3.906,1
9.914709,-0.84,0.329,-0.25,-55.419,96.74,-2.197,1
9.923154,-0.84,0.345,-0.252,-64.331,95.275,-0.549,1
9.931309,-0.84,0.362,-0.259,-67.993,92.956,1.281,1
9.939385,-0.813,0.374,-0.269,-67.687,90.515,2.38,1
9.947862,-0.77,0.378,-0.273,-64.086,87.158,3.967,1
9.954822,-0.736,0.386,-0.279,-57.434,82.946,5.065,1
9.963152,-0.721,0.389,-0.276,-50.048,79.528,6.591,1
9.971538,-0.706,0.39,-0.28,-42.907,75.866,7.934,1
9.978568,-0.707,0.401,-0.278,-36.376,72.57,9.765,1
9.98659,-0.699,0.405,-0.284,-31.188,68.603,11.474,1
9.994547,-0.698,0.407,-0.286,-28.137,65.734,13.244,1
