timestamp_s,ax,ay,az,gx,gy,gz,label
0.004096,0.037,0.984,0.187,1.22,-1.281,0.0,1
0.012755,0.035,0.985,0.187,0.671,-1.281,-0.427,1
0.019881,0.033,0.987,0.186,0.061,-1.159,-0.183,1
0.027734,0.037,0.985,0.185,-0.061,-1.098,-0.488,1
0.034343,0.034,0.987,0.178,-0.183,-1.098,-0.244,1
0.04257,0.034,0.986,0.177,-0.183,-1.037,-0.244,1
0.050694,0.034,0.979,0.178,-0.244,-1.525,-0.183,1
0.058811,0.036,0.984,0.178,-0.061,-1.159,-0.183,1
0.067043,0.036,0.985,0.183,0.183,-1.281,-0.305,1
0.075159,0.037,0.988,0.185,0.244,-1.342,-0.366,1
0.082038,0.034,0.986,0.185,-0.061,-1.525,-0.305,1
0.089855,0.036,0.984,0.186,-0.061,-1.403,-0.244,1
0.098369,0.03,0.99,0.189,0.0,-1.403,-0.366,1
0.106126,0.036,0.989,0.191,-0.061,-1.281,-0.244,1
0.114572,0.036,0.986,0.188,0.305,-1.342,-0.488,1
0.121522,0.031,0.986,0.19,0.549,-1.342,-0.366,1
0.128594,0.034,0.984,0.19,0.549,-1.342,-0.549,1
0.137024,0.037,0.983,0.186,0.366,-1.403,-0.549,1
0.144636,0.039,0.984,0.187,0.427,-1.586,-0.488,1
0.153625,0.037,0.986,0.188,0.488,-1.525,-0.305,1
0.162347,0.041,0.987,0.186,0.427,-1.342,-0.671,1
0.171184,0.039,0.983,0.183,0.488,-1.159,-0.61,1
0.178915,0.04,0.99,0.181,0.305,-1.22,-0.427,1
0.187158,0.038,0.986,0.187,0.305,-1.403,-0.427,1
0.194595,0.04,0.981,0.185,0.366,-1.403,-0.732,1
0.204011,0.039,0.979,0.181,0.183,-1.281,-0.671,1
0.211922,0.037,0.982,0.182,-0.061,-1.525,-0.671,1
0.220663,0.044,0.98,0.185,0.122,-1.403,-0.61,1
0.227996,0.04,0.989,0.193,0.061,-1.403,-0.61,1
0.235677,0.038,0.991,0.189,0.183,-1.342,-0.793,1
0.246664,0.04,0.993,0.193,0.183,-1.403,-0.732,1
0.253335,0.036,0.99,0.19,-0.366,-1.342,-0.793,1
0.262106,0.04,0.993,0.186,-1.831,-1.098,-1.098,1
0.269345,0.041,0.991,0.175,-2.746,-1.159,-1.22,1
0.276452,0.041,0.991,0.171,-3.662,-1.281,-1.281,1
0.285199,0.04,0.993,0.167,-4.089,-1.22,-1.159,1
0.29227,0.042,0.99,0.168,-3.967,-1.464,-1.403,1
0.30115,0.042,0.985,0.171,-3.967,-1.586,-1.464,1
0.308606,0.039,0.987,0.174,-3.662,-2.014,-1.464,1
0.315197,0.037,0.988,0.172,-3.723,-2.136,-1.464,1
0.324229,0.04,0.985,0.173,-2.746,-2.441,-1.464,1
0.331918,0.043,0.975,0.17,-2.563,-2.502,-1.586,1
0.340171,0.047,0.977,0.169,-1.831,-2.685,-1.586,1
0.34897,0.05,0.977,0.166,-2.014,-2.868,-1.708,1
0.357146,0.058,0.985,0.163,-2.197,-3.112,-1.342,1
0.364661,0.061,1.004,0.141,-2.258,-3.784,-1.403,1
0.37211,0.076,1.048,0.133,0.305,-4.394,-1.77,1
0.381004,0.087,1.096,0.115,1.831,-5.004,-2.441,1
0.38952,0.099,1.147,0.083,1.708,-5.676,-3.601,1
0.397613,0.077,1.184,0.071,0.061,-6.103,-4.394,1
0.405584,0.112,1.225,0.056,-3.479,-6.652,-6.408,1
0.414521,0.131,1.241,0.062,-6.896,-6.103,-7.995,1
0.422992,0.136,1.236,0.044,-12.207,-5.676,-9.704,1
0.431564,0.144,1.206,0.014,-19.287,-5.065,-10.314,1
0.43934,0.14,1.205,-0.035,-27.465,-5.187,-10.681,1
0.447948,0.125,1.24,-0.048,-35.644,-5.737,-11.657,1
0.455892,0.141,1.278,-0.066,-39.428,-7.019,-12.878,1
0.463529,0.279,1.304,-0.062,-45.593,-8.911,-15.014,1
0.472662,0.27,1.375,-0.071,-51.696,-9.704,-17.089,1
0.482137,0.278,1.427,-0.047,-57.189,-10.253,-18.676,1
0.489531,0.274,1.457,-0.055,-67.321,-10.192,-21.179,1
0.497648,0.277,1.458,-0.072,-77.941,-10.375,-22.949,1
0.505983,0.29,1.454,-0.092,-91.979,-10.07,-25.024,1
0.514181,0.291,1.461,-0.111,-105.468,-9.704,-27.465,1
0.522745,0.28,1.472,-0.125,-112.915,-9.094,-29.663,1
0.531048,0.237,1.472,-0.142,-116.699,-8.789,-31.616,1
0.540188,0.229,1.435,-0.163,-117.614,-9.399,-33.142,1
0.548513,0.237,1.377,-0.201,-118.957,-11.047,-34.057,1
0.555762,0.27,1.315,-0.218,-120.727,-13.427,-34.423,1
0.564903,0.307,1.292,-0.196,-121.643,-14.221,-35.217,1
0.571458,0.334,1.304,-0.16,-119.689,-14.953,-36.987,1
0.580865,0.347,1.299,-0.115,-117.187,-15.136,-38.879,1
0.588852,0.352,1.29,-0.075,-117.858,-14.343,-40.649,1
0.598353,0.352,1.27,-0.031,-121.887,-12.512,-42.907,1
0.604995,0.33,1.254,0.003,-125.366,-10.192,-45.288,1
0.612983,0.285,1.231,0.035,-129.699,-7.751,-48.095,1
0.620627,0.21,1.208,0.049,-134.155,-5.432,-50.72,1
0.627441,0.134,1.163,0.052,-141.296,-2.99,-52.978,1
0.63633,0.086,1.119,0.046,-150.512,-1.403,-55.419,1
0.64436,0.064,1.068,0.033,-160.339,-0.793,-56.762,1
0.650914,0.029,1.01,0.039,-167.358,-0.244,-57.067,1
0.659485,0.025,0.964,0.054,-168.945,-0.122,-57.067,1
0.666891,0.035,0.92,0.063,-163.574,-0.549,-56.03,1
0.674719,0.051,0.9,0.078,-151.611,-1.037,-55.541,1
0.682376,0.071,0.876,0.104,-135.131,-1.647,-55.175,1
0.690779,0.081,0.862,0.13,-115.783,-2.075,-54.87,1
0.700314,0.08,0.852,0.143,-93.811,-2.197,-54.504,1
0.706898,0.073,0.842,0.144,-77.819,-2.258,-54.626,1
0.71622,0.062,0.827,0.127,-63.964,-1.586,-54.687,1
0.722711,0.063,0.814,0.105,-55.786,-0.732,-54.504,1
0.730259,0.063,0.806,0.085,-50.109,0.183,-54.626,1
0.738,0.068,0.796,0.054,-45.898,0.854,-54.382,1
0.746426,0.105,0.791,0.014,-43.945,1.159,-54.504,1
0.754704,0.101,0.809,-0.007,-44.311,1.831,-54.382,1
0.764841,0.111,0.804,-0.04,-46.081,2.014,-54.26,1
0.772029,0.115,0.812,-0.056,-46.447,2.502,-54.138,1
0.778674,0.113,0.813,-0.076,-46.508,2.624,-53.771,1
0.786859,0.156,0.814,-0.102,-46.142,3.173,-53.344,1
0.795751,0.195,0.806,-0.118,-45.654,3.54,-52.978,1
0.805292,0.207,0.807,-0.132,-42.602,4.028,-51.94,1
0.811945,0.255,0.821,-0.151,-36.437,4.638,-51.208,1
0.821387,0.238,0.835,-0.178,-29.235,5.126,-50.964,1
0.827901,0.217,0.852,-0.196,-20.507,5.859,-50.231,1
0.83515,0.204,0.861,-0.215,-11.596,6.286,-49.255,1
0.842766,0.191,0.883,-0.227,-2.624,6.958,-47.79,1
0.852187,0.187,0.923,-0.245,7.263,7.568,-46.569,1
0.860757,0.195,1.0,-0.255,16.662,8.178,-46.081,1
0.868929,0.242,1.124,-0.259,27.343,9.155,-45.776,1
0.875791,0.347,1.248,-0.26,35.4,10.314,-46.997,1
0.884435,0.431,1.346,-0.27,38.696,11.474,-49.438,1
0.892253,0.428,1.409,-0.287,36.682,14.099,-53.283,1
0.89908,0.384,1.402,-0.311,28.015,16.662,-57.312,1
0.908038,0.317,1.365,-0.339,13.122,19.287,-61.401,1
0.915128,0.284,1.273,-0.406,-8.239,21.545,-65.795,1
0.923468,0.259,1.228,-0.437,-32.287,23.254,-70.19,1
0.931225,0.202,1.16,-0.484,-60.607,24.536,-74.646,1
0.94016,0.128,1.09,-0.515,-83.007,24.597,-77.331,1
0.94774,0.107,0.986,-0.531,-106.018,22.216,-78.918,1
0.954853,0.124,0.92,-0.52,-118.347,21.484,-79.162,1
0.962552,0.102,0.866,-0.546,-123.901,20.08,-78.735,1
0.972023,0.146,0.818,-0.561,-120.361,18.005,-77.758,1
0.981291,0.318,0.763,-0.591,-107.788,13.977,-75.622,1
0.989249,0.428,0.739,-0.585,-91.186,9.948,-73.242,1
0.996843,0.544,0.75,-0.564,-76.477,6.652,-71.899,1
1.006217,0.634,0.79,-0.528,-59.753,3.54,-70.556,1
1.012399,0.745,0.819,-0.515,-47.241,1.647,-69.946,1
1.019806,0.85,0.805,-0.509,-36.804,0.122,-70.251,1
1.028601,0.902,0.781,-0.505,-33.02,-0.549,-70.556,1
1.03597,0.879,0.775,-0.519,-34.729,-0.976,-70.739,1
1.042217,0.809,0.788,-0.555,-40.771,-1.464,-70.373,1
1.05049,0.785,0.741,-0.578,-49.255,-2.99,-69.213,1
1.058308,0.783,0.705,-0.613,-58.898,-2.929,-67.687,1
1.066461,0.81,0.681,-0.62,-65.979,-5.187,-66.406,1
1.073192,0.833,0.647,-0.61,-66.223,-5.92,-64.697,1
1.081198,0.844,0.59,-0.58,-61.828,-7.751,-63.11,1
1.089869,0.868,0.528,-0.543,-54.504,-8.605,-60.852,1
1.096241,0.895,0.456,-0.511,-48.339,-9.399,-57.8,1
1.104583,0.892,0.424,-0.47,-40.405,-9.216,-53.405,1
1.112936,0.874,0.449,-0.486,-30.029,-9.582,-50.415,1
1.119784,0.834,0.508,-0.503,-11.657,-11.108,-48.339,1
1.127583,0.821,0.577,-0.513,16.723,-13.366,-46.997,1
1.134495,0.815,0.609,-0.483,51.94,-16.174,-46.264,1
1.143362,0.85,0.601,-0.423,91.918,-19.226,-45.837,1
1.150274,0.833,0.582,-0.419,128.601,-19.897,-45.227,1
1.15842,0.858,0.475,-0.401,154.907,-22.888,-44.982,1
1.166552,0.802,0.44,-0.361,175.598,-21.057,-44.006,1
1.174032,0.819,0.387,-0.369,182.067,-21.24,-43.457,1
1.180774,0.767,0.375,-0.328,177.49,-16.723,-42.419,1
1.188778,0.753,0.416,-0.367,158.508,-14.526,-41.687,1
1.197695,0.742,0.482,-0.337,133.422,-9.46,-41.381,1
1.205026,0.754,0.546,-0.36,104.492,-5.676,-41.687,1
1.211561,0.728,0.621,-0.343,76.477,-1.831,-42.602,1
1.219282,0.723,0.695,-0.359,53.161,1.77,-44.311,1
1.227641,0.722,0.768,-0.345,37.109,3.417,-45.898,1
1.234241,0.73,0.834,-0.347,28.442,5.187,-47.79,1
1.241497,0.711,0.887,-0.347,24.291,5.249,-50.415,1
1.250314,0.695,0.918,-0.347,23.071,6.225,-53.466,1
1.256351,0.708,0.939,-0.342,23.071,5.615,-55.969,1
1.263351,0.745,0.96,-0.339,24.353,5.798,-58.227,1
1.271594,0.765,0.973,-0.334,25.268,5.676,-60.852,1
1.279081,0.758,0.984,-0.329,22.705,6.286,-63.415,1
1.287199,0.754,0.988,-0.331,15.38,6.652,-66.101,1
1.293721,0.758,0.984,-0.314,4.211,8.117,-68.725,1
1.302194,0.772,0.985,-0.317,-9.399,9.46,-71.289,1
1.310749,0.888,0.969,-0.333,-25.573,10.62,-74.523,1
1.317755,0.783,0.963,-0.331,-46.569,11.718,-77.209,1
1.326523,0.737,0.974,-0.356,-64.697,12.023,-79.589,1
1.332957,0.779,0.968,-0.333,-74.646,11.108,-80.993,1
1.340471,0.785,0.97,-0.337,-74.523,9.704,-82.397,1
1.347503,0.772,0.972,-0.329,-67.749,7.507,-83.496,1
1.354984,0.744,0.959,-0.343,-58.776,5.432,-84.96,1
1.365557,0.707,0.951,-0.331,-51.025,2.929,-85.632,1
1.372172,0.65,0.915,-0.341,-45.471,0.854,-86.303,1
1.379489,0.602,0.915,-0.326,-41.809,0.0,-86.242,1
1.388893,0.603,0.884,-0.35,-34.423,-2.563,-88.134,1
1.398267,0.488,0.988,-0.401,-20.629,-0.915,-90.454,1
1.40546,0.413,0.944,-0.415,-12.817,-8.728,-93.444,1
1.413705,0.516,0.941,-0.461,2.014,-6.469,-95.336,1
1.421475,0.482,0.933,-0.387,16.723,-14.099,-97.778,1
1.428293,0.54,0.881,-0.431,39.733,-12.573,-97.961,1
1.436501,0.519,0.875,-0.427,55.297,-18.737,-99.121,1
1.444312,0.521,0.839,-0.481,69.58,-15.502,-99.914,1
1.453279,0.538,0.82,-0.539,65.368,-17.395,-101.806,1
1.461588,0.523,0.762,-0.634,57.739,-11.596,-103.82,1
1.46899,0.55,0.714,-0.764,31.311,-9.094,-106.262,1
1.477259,0.548,0.747,-0.833,8.483,-5.249,-109.497,1
1.484294,0.397,0.816,-0.828,11.718,-6.591,-113.83,1
1.493465,0.374,0.837,-0.824,39.001,-8.728,-116.516,1
1.502074,0.34,0.812,-0.846,67.626,-12.329,-119.384,1
1.508829,0.328,0.76,-0.854,91.125,-15.014,-121.215,1
1.518845,0.353,0.68,-0.896,88.5,-17.395,-121.948,1
1.525453,0.426,0.61,-0.893,64.819,-17.822,-121.704,1
1.534472,0.525,0.568,-0.923,35.156,-19.348,-120.727,1
1.543249,0.574,0.524,-0.915,-3.234,-20.69,-118.713,1
1.551265,0.625,0.5,-0.908,-37.353,-25.085,-116.394,1
1.558059,0.639,0.523,-0.856,-65.795,-28.93,-113.403,1
1.566929,0.657,0.542,-0.839,-71.838,-36.132,-111.572,1
1.576406,0.642,0.525,-0.791,-60.668,-43.884,-109.13,1
1.585014,0.611,0.522,-0.768,-42.419,-52.307,-106.75,1
1.591526,0.598,0.473,-0.738,-26.672,-57.556,-104.797,1
1.600902,0.59,0.452,-0.708,-12.939,-62.866,-103.759,1
1.607306,0.582,0.424,-0.663,4.76,-67.26,-102.844,1
1.615495,0.594,0.418,-0.615,21.911,-70.678,-102.722,1
1.623037,0.584,0.398,-0.531,39.489,-73.486,-102.844,1
1.630989,0.55,0.392,-0.466,52.49,-73.913,-102.783,1
1.637747,0.511,0.404,-0.385,70.983,-75.317,-103.332,1
1.645813,0.496,0.434,-0.296,86.853,-75.378,-104.125,1
1.655504,0.383,0.374,-0.223,101.501,-75.805,-104.248,1
1.662155,0.435,0.289,-0.123,92.529,-73.303,-102.05,1
1.670143,0.514,0.2,-0.048,66.589,-68.603,-101.013,1
1.679724,0.49,0.152,0.07,35.4,-63.781,-100.036,1
1.687752,0.573,0.189,0.169,15.258,-58.288,-100.219,1
1.694492,0.584,0.238,0.298,25.512,-55.908,-99.914,1
1.702786,0.612,0.246,0.383,55.175,-53.771,-100.28,1
1.71074,0.601,0.21,0.481,84.716,-51.696,-101.501,1
1.719376,0.647,0.175,0.544,105.957,-46.203,-102.661,1
1.725956,0.63,0.113,0.606,116.333,-39.062,-104.797,1
1.734473,0.579,0.039,0.661,113.891,-29.541,-105.712,1
1.742528,0.568,-0.028,0.721,103.393,-17.272,-106.506,1
1.750955,0.538,-0.087,0.764,91.674,-5.798,-106.567,1
1.759037,0.464,-0.166,0.797,73.974,8.117,-106.445,1
1.767636,0.409,-0.225,0.82,59.814,20.202,-106.018,1
1.775111,0.337,-0.288,0.825,47.302,33.386,-105.224,1
1.783654,0.278,-0.339,0.819,39.001,44.921,-103.881,1
1.792596,0.199,-0.395,0.801,34.057,55.725,-102.233,1
1.799801,0.095,-0.428,0.77,30.883,67.077,-100.402,1
1.80822,0.005,-0.462,0.72,29.968,78.918,-98.205,1
1.817277,-0.13,-0.519,0.667,29.724,90.637,-95.703,1
1.824035,-0.231,-0.567,0.613,30.151,100.097,-92.895,1
1.832634,-0.284,-0.626,0.548,31.86,109.069,-89.111,1
1.840119,-0.411,-0.723,0.47,31.311,118.103,-84.533,1
1.847694,-0.493,-0.812,0.399,20.385,127.197,-78.735,1
1.855551,-0.61,-0.877,0.349,2.868,139.282,-70.007,1
1.864443,-0.698,-0.933,0.263,-13.61,148.071,-61.95,1
1.871591,-0.792,-0.987,0.19,-28.991,159.179,-51.94,1
1.879638,-0.851,-1.03,0.11,-42.785,167.907,-43.518,1
1.887512,-1.003,-1.133,0.034,-64.514,174.56,-34.301,1
1.895478,-1.045,-1.156,0.0,-79.956,183.471,-21.972,1
1.903549,-1.088,-1.186,-0.066,-76.416,186.584,-10.925,1
1.9134,-1.123,-1.194,-0.124,-52.612,189.758,0.061,1
1.921354,-1.213,-1.236,-0.2,-12.084,191.223,15.441,1
1.930722,-1.313,-1.337,-0.298,20.874,193.237,33.02,1
1.938504,-1.457,-1.387,-0.383,30.334,196.228,52.612,1
1.946188,-1.541,-1.418,-0.47,26.306,200.195,69.458,1
1.95455,-1.753,-1.407,-0.519,2.197,204.406,87.28,1
1.962224,-1.807,-1.355,-0.588,-12.39,209.594,106.262,1
1.96995,-1.999,-1.34,-0.582,-27.77,214.538,126.77,1
1.978814,-2.1,-1.353,-0.648,-38.085,218.017,144.958,1
1.988318,-2.15,-1.393,-0.659,-41.87,221.435,167.968,1
1.995193,-2.265,-1.403,-0.7,-37.109,223.388,188.781,1
2.00426,-2.385,-1.416,-0.703,-18.493,223.205,214.233,1
2.011808,-2.563,-1.435,-0.743,3.295,222.717,241.76,1
2.020994,-2.775,-1.453,-0.782,22.827,220.886,267.395,1
2.028273,-3.006,-1.489,-0.842,41.137,216.918,299.621,1
2.037048,-3.226,-1.491,-0.872,53.649,213.867,329.284,1
2.044477,-3.598,-1.468,-0.894,67.565,208.618,365.6,1
2.053414,-3.849,-1.457,-0.915,88.623,201.965,399.23,1
2.06112,-4.152,-1.465,-0.949,122.802,191.223,442.077,1
2.070276,-4.48,-1.395,-0.958,167.114,177.917,480.712,1
2.078424,-4.945,-1.359,-0.963,216.613,160.156,520.08,1
2.085799,-5.449,-1.297,-0.962,261.474,136.413,567.138,1
2.094616,-6.313,-1.089,-0.897,299.377,109.374,610.29,1
2.101624,-6.722,-0.903,-0.924,368.041,69.58,659.362,1
2.110381,-7.258,-0.794,-0.946,427.856,24.047,698.73,1
2.117427,-7.888,-0.721,-0.879,465.332,-21.057,736.572,1
2.126009,-8.729,-0.529,-0.845,483.703,-71.899,772.033,1
2.135744,-9.534,-0.34,-0.808,505.249,-136.291,805.725,1
2.143507,-10.626,-0.066,-0.711,526.428,-203.552,832.824,1
2.15321,-11.786,0.26,-0.686,554.321,-278.686,849.975,1
2.161281,-12.987,0.574,-0.661,591.674,-359.008,857.543,1
2.170027,-14.147,0.847,-0.615,613.281,-446.655,855.773,1
2.176917,-14.917,0.978,-0.5,605.163,-520.202,845.336,1
2.186506,-15.999,1.24,-0.275,584.411,-600.647,826.171,1
2.193975,-15.999,1.595,0.085,590.637,-678.039,797.363,1
2.201812,-15.999,1.857,0.462,621.215,-743.286,763.0,1
2.210277,-15.999,2.117,0.904,669.677,-803.832,716.735,1
2.219153,-15.999,2.073,1.331,700.073,-865.112,648.681,1
2.22668,-15.999,2.135,1.544,697.936,-899.108,583.862,1
2.233319,-15.999,2.093,1.783,665.039,-923.339,518.005,1
2.243036,-15.999,2.339,1.914,649.108,-930.725,448.303,1
2.250205,-15.999,2.672,2.063,637.634,-942.199,372.619,1
2.259879,-15.999,2.91,2.195,635.376,-942.687,277.16,1
2.26602,-15.999,2.799,2.317,674.926,-941.894,176.879,1
2.274266,-15.524,2.541,2.325,717.163,-933.288,88.439,1
2.28305,-13.729,2.207,2.297,777.282,-908.081,-15.747,1
2.289956,-12.473,1.856,2.133,811.95,-875.854,-103.881,1
2.298799,-11.478,1.51,1.972,808.898,-832.824,-185.424,1
2.307644,-10.372,1.212,1.722,777.587,-773.132,-267.456,1
2.315043,-9.594,0.993,1.535,744.384,-717.102,-326.049,1
2.323852,-8.892,0.748,1.304,682.311,-650.451,-379.76,1
2.332697,-8.319,0.624,1.237,606.75,-590.759,-412.78,1
2.339912,-7.736,0.54,1.211,500.305,-525.573,-439.88,1
2.348954,-7.131,0.497,1.321,407.226,-470.52,-453.613,1
2.358143,-6.616,0.49,1.305,313.11,-414.916,-462.28,1
2.365519,-6.33,0.509,1.328,250.244,-370.788,-465.515,1
2.374644,-6.094,0.547,1.347,226.684,-334.838,-466.43,1
2.381328,-5.958,0.552,1.395,231.994,-306.823,-466.186,1
2.389249,-5.735,0.489,1.419,243.408,-278.808,-465.454,1
2.396197,-5.481,0.39,1.417,253.906,-250.976,-464.721,1
2.405864,-5.213,0.253,1.392,255.432,-222.167,-462.646,1
2.413682,-4.942,0.067,1.366,238.586,-188.781,-458.435,1
2.42259,-4.675,-0.025,1.36,222.228,-160.766,-453.063,1
2.428641,-4.322,-0.121,1.346,217.59,-131.286,-445.373,1
2.436575,-4.03,-0.222,1.328,229.98,-108.154,-437.561,1
2.447041,-3.783,-0.33,1.291,249.755,-86.425,-428.283,1
2.454866,-3.485,-0.474,1.288,280.212,-60.485,-414.855,1
2.461436,-3.347,-0.664,1.176,300.354,-38.574,-403.564,1
2.470754,-2.882,-0.881,1.144,295.349,-9.46,-387.39,1
2.477721,-2.688,-1.091,1.046,254.76,12.451,-371.826,1
2.486934,-2.412,-1.231,1.036,201.049,36.499,-354.431,1
2.495272,-2.179,-1.333,0.981,142.456,54.992,-335.082,1
2.503001,-1.896,-1.401,0.975,102.844,71.716,-314.697,1
2.513282,-1.755,-1.443,0.962,81.542,81.604,-293.396,1
2.520881,-1.687,-1.48,0.925,72.387,89.355,-271.789,1
2.530208,-1.616,-1.484,0.959,74.096,95.947,-249.572,1
2.538529,-1.545,-1.468,0.925,87.585,100.646,-227.478,1
2.547618,-1.312,-1.454,0.925,115.844,105.59,-208.862,1
2.555243,-1.203,-1.598,0.803,97.839,109.924,-185.729,1
2.562709,-1.084,-1.527,0.818,83.068,116.577,-166.931,1
2.570261,-0.93,-1.485,0.758,74.646,119.567,-147.033,1
2.578236,-0.816,-1.434,0.751,76.049,123.046,-129.699,1
2.587135,-0.72,-1.387,0.705,81.42,123.596,-113.403,1
2.59577,-0.648,-1.333,0.678,86.059,125.854,-97.717,1
2.603591,-0.596,-1.281,0.633,84.045,126.525,-80.688,1
2.611546,-0.534,-1.237,0.602,78.796,128.54,-67.016,1
2.619245,-0.446,-1.176,0.563,70.8,129.333,-52.124,1
2.626766,-0.375,-1.136,0.536,64.697,129.943,-40.344,1
2.635838,-0.305,-1.092,0.504,61.462,129.577,-28.869,1
2.642791,-0.214,-1.049,0.477,63.11,128.784,-16.479,1
2.651088,-0.144,-1.006,0.462,67.138,127.441,-6.774,1
2.658293,-0.088,-0.95,0.437,74.279,126.403,2.563,1
2.666525,-0.055,-0.908,0.405,79.406,125.305,11.291,1
2.675228,-0.019,-0.873,0.384,80.383,124.755,20.446,1
2.684148,0.031,-0.839,0.362,79.162,123.352,29.174,1
2.69139,0.095,-0.804,0.329,83.862,122.375,37.17,1
2.701722,0.143,-0.774,0.322,86.975,119.689,43.518,1
2.707566,0.216,-0.744,0.287,87.829,118.896,49.926,1
2.715279,0.263,-0.719,0.286,86.486,116.516,55.358,1
2.722191,0.325,-0.674,0.279,86.486,115.173,60.791,1
2.731011,0.355,-0.616,0.275,90.148,113.159,65.917,1
2.737695,0.391,-0.574,0.269,95.581,111.511,70.8,1
2.745286,0.466,-0.522,0.243,101.562,109.985,75.5,1
2.753995,0.444,-0.483,0.229,105.712,108.093,79.223,1
2.761402,0.477,-0.434,0.21,104.492,106.933,83.496,1
2.769242,0.479,-0.388,0.192,100.708,105.712,86.059,1
2.778151,0.49,-0.338,0.184,95.581,104.98,88.684,1
2.785779,0.518,-0.276,0.174,90.515,103.637,90.637,1
2.793051,0.529,-0.231,0.18,87.768,102.539,91.552,1
2.80123,0.519,-0.193,0.176,85.876,101.806,92.224,1
2.808349,0.522,-0.166,0.175,81.726,101.623,92.59,1
2.817359,0.518,-0.15,0.178,71.228,101.989,93.261,1
2.824553,0.496,-0.142,0.191,54.199,103.149,93.872,1
2.831842,0.469,-0.125,0.198,31.982,105.712,94.055,1
2.840359,0.454,-0.105,0.193,16.113,107.788,93.749,1
2.848579,0.466,-0.078,0.193,6.469,109.985,93.566,1
2.855492,0.489,-0.051,0.192,5.432,112.06,93.2,1
2.864385,0.503,-0.031,0.19,10.803,113.708,92.712,1
2.872306,0.534,-0.004,0.189,25.146,115.295,92.346,1
2.879991,0.552,0.011,0.178,40.222,115.783,92.956,1
2.887272,0.608,0.023,0.157,56.03,116.149,93.2,1
2.895257,0.631,0.041,0.147,73.486,115.295,93.627,1
2.901704,0.658,0.067,0.126,95.031,113.708,94.543,1
2.908833,0.714,0.085,0.097,118.103,111.694,96.374,1
2.915748,0.752,0.09,0.061,133.544,109.436,98.693,1
2.922871,0.799,0.103,0.051,139.953,107.788,101.196,1
2.931735,0.807,0.106,0.038,138.854,104.858,103.515,1
2.939756,0.874,0.121,0.039,132.202,105.957,106.445,1
2.945268,0.89,0.138,0.027,121.52,105.041,109.558,1
2.953719,0.862,0.156,0.045,110.473,107.055,111.694,1
2.960773,0.89,0.23,0.061,99.487,107.727,114.44,1
2.968119,0.844,0.287,0.037,93.566,109.252,116.027,1
2.975978,0.831,0.367,0.066,91.674,110.717,117.126,1
2.983834,0.823,0.422,0.016,92.651,110.534,117.431,1
2.990784,0.801,0.495,0.041,95.092,109.741,117.431,1
2.998544,0.784,0.556,0.016,99.853,108.825,117.919,1
3.007132,0.777,0.646,0.021,106.811,105.468,117.858,1
3.014718,0.772,0.726,0.0,117.858,103.21,117.98,1
3.021666,0.746,0.805,0.0,127.624,99.304,117.004,1
3.028988,0.708,0.854,-0.018,131.408,97.778,115.661,1
3.038035,0.68,0.93,-0.016,129.089,97.351,113.891,1
3.045071,0.641,1.014,-0.061,119.934,97.167,111.145,1
3.052686,0.614,1.141,-0.059,110.473,98.144,107.727,1
3.062768,0.591,1.239,-0.123,95.52,96.618,102.661,1
3.070294,0.565,1.324,-0.139,86.791,97.167,98.449,1
3.076706,0.555,1.406,-0.193,81.115,95.153,91.796,1
3.084324,0.566,1.471,-0.185,84.289,95.397,86.914,1
3.093313,0.558,1.512,-0.254,88.256,94.055,80.566,1
3.100629,0.551,1.537,-0.231,99.792,93.444,73.364,1
3.109151,0.54,1.55,-0.242,113.464,90.026,67.382,1
3.116136,0.532,1.55,-0.231,125.183,90.026,61.706,1
3.12406,0.49,1.562,-0.227,134.277,86.547,56.152,1
3.131474,0.543,1.553,-0.182,149.536,85.998,51.025,1
3.140502,0.459,1.49,-0.195,149.108,85.144,46.081,1
3.146696,0.478,1.458,-0.194,133.972,86.73,42.114,1
3.1552,0.487,1.452,-0.201,121.276,87.036,37.841,1
3.163594,0.478,1.439,-0.174,118.774,88.5,33.996,1
3.172073,0.445,1.417,-0.176,113.647,89.538,30.212,1
3.178332,0.492,1.389,-0.148,114.746,91.125,25.878,1
3.18714,0.502,1.336,-0.134,118.53,92.102,22.827,1
3.196378,0.51,1.265,-0.115,125.61,93.505,19.958,1
3.20357,0.529,1.171,-0.088,133.972,95.275,18.859,1
3.212884,0.515,1.128,-0.091,133.789,98.632,17.883,1
3.219175,0.482,1.079,-0.102,118.591,102.05,16.723,1
3.226737,0.4,1.052,-0.117,95.581,106.506,15.808,1
3.234658,0.398,1.029,-0.127,68.176,110.839,14.099,1
3.241541,0.358,1.005,-0.136,43.823,115.661,12.207,1
3.250022,0.325,0.992,-0.164,27.038,119.079,10.253,1
3.257546,0.31,0.992,-0.171,22.216,121.093,8.239,1
3.265168,0.284,0.978,-0.182,28.381,122.253,6.469,1
3.273398,0.253,0.959,-0.173,44.494,122.375,5.065,1
3.282546,0.242,0.937,-0.178,64.697,122.863,4.211,1
3.288072,0.204,0.895,-0.176,84.716,123.901,3.845,1
3.29691,0.195,0.858,-0.181,94.116,125.488,4.15,1
3.305841,0.179,0.81,-0.179,95.52,128.295,5.065,1
3.312942,0.166,0.778,-0.187,89.721,131.835,6.164,1
3.321652,0.159,0.768,-0.191,78.308,135.498,6.896,1
3.329771,0.142,0.755,-0.209,62.561,139.526,7.751,1
3.337466,0.118,0.765,-0.217,44.433,143.676,8.361,1
3.345545,0.104,0.772,-0.22,35.4,146.484,8.361,1
3.352491,0.081,0.786,-0.225,34.606,148.376,8.544,1
3.361291,0.06,0.786,-0.234,43.823,148.681,8.911,1
3.368791,0.045,0.793,-0.232,62.988,147.521,9.643,1
3.377139,0.03,0.793,-0.23,90.332,145.507,11.474,1
3.38585,0.023,0.797,-0.235,125.183,142.517,14.099,1
3.393621,0.01,0.792,-0.235,155.944,139.343,18.188,1
3.402191,-0.007,0.781,-0.247,172.424,137.817,21.728,1
3.410454,-0.033,0.766,-0.253,174.194,137.634,26.062,1
3.419498,-0.052,0.752,-0.259,160.461,139.16,29.418,1
3.426693,-0.062,0.75,-0.264,134.948,141.662,32.409,1
3.434098,-0.071,0.77,-0.248,117.492,144.226,34.606,1
3.443232,-0.071,0.791,-0.26,111.938,144.836,37.048,1
3.450273,-0.076,0.805,-0.247,116.333,144.775,39.489,1
3.457109,-0.073,0.797,-0.261,124.511,144.409,42.419,1
3.465414,-0.077,0.778,-0.259,128.54,143.676,45.227,1
3.473502,-0.072,0.758,-0.274,125.366,144.042,48.767,1
3.483405,-0.072,0.75,-0.276,112.67,145.019,52.001,1
3.490182,-0.076,0.761,-0.282,99.365,146.789,54.87,1
3.497323,-0.052,0.845,-0.267,87.341,147.521,57.8,1
3.50559,-0.067,0.905,-0.251,84.228,148.254,59.57,1
3.514466,-0.07,0.958,-0.268,85.083,148.193,61.157,1
3.521722,-0.084,1.031,-0.262,90.332,147.949,62.622,1
3.529937,-0.101,1.075,-0.278,98.754,147.583,64.453,1
3.53745,-0.125,1.11,-0.28,105.224,147.094,65.49,1
3.546652,-0.162,1.103,-0.267,109.252,147.399,66.467,1
3.55534,-0.103,1.167,-0.292,104.125,148.437,66.894,1
3.561974,-0.103,1.222,-0.291,89.111,149.597,66.406,1
3.570898,-0.084,1.291,-0.276,76.782,151.367,65.124,1
3.578327,-0.076,1.367,-0.237,72.204,151.977,63.232,1
3.587476,-0.102,1.381,-0.235,75.439,152.099,60.668,1
3.595453,-0.115,1.356,-0.243,83.435,151.611,58.471,1
3.603585,-0.091,1.212,-0.312,79.711,149.902,56.64,1
3.611086,-0.182,1.175,-0.37,74.218,151.367,56.274,1
3.620197,-0.18,1.151,-0.46,68.176,148.803,54.809,1
3.627839,-0.114,1.196,-0.478,64.453,147.46,53.161,1
3.636762,-0.098,1.326,-0.386,61.035,144.531,51.452,1
3.645681,-0.144,1.479,-0.331,74.89,143.188,48.645,1
3.65402,-0.149,1.621,-0.313,88.073,140.014,45.349,1
3.661166,-0.141,1.795,-0.341,100.585,138.244,40.771,1
3.670248,-0.154,1.922,-0.374,107.238,135.559,35.034,1
3.677282,-0.161,1.921,-0.409,108.764,134.277,29.479,1
3.685055,-0.166,1.796,-0.43,102.661,133.789,23.62,1
3.693301,-0.177,1.615,-0.454,85.021,134.338,17.883,1
3.701068,-0.206,1.443,-0.444,61.767,135.925,13.671,1
3.709198,-0.215,1.41,-0.545,41.748,139.221,10.375,1
3.718206,-0.25,1.387,-0.644,15.747,137.329,5.493,1
3.72502,-0.319,1.365,-0.591,3.601,139.038,1.708,1
3.734262,-0.329,1.338,-0.678,1.464,137.268,-1.037,1
3.742339,-0.308,1.337,-0.652,8.422,133.85,-4.455,1
3.751323,-0.289,1.37,-0.659,24.841,130.493,-6.103,1
3.758161,-0.318,1.506,-0.654,52.246,124.999,-8.056,1
3.76717,-0.26,1.582,-0.638,84.045,120.422,-9.033,1
3.774531,-0.225,1.608,-0.656,109.374,115.173,-9.887,1
3.783533,-0.24,1.577,-0.668,117.492,112.548,-10.192,1
3.790648,-0.193,1.527,-0.724,115.417,109.741,-10.559,1
3.799262,-0.156,1.441,-0.747,99.975,107.238,-11.169,1
3.806602,-0.125,1.348,-0.794,76.293,105.712,-10.986,1
3.81462,-0.119,1.285,-0.83,51.574,102.905,-10.925,1
3.822277,-0.385,1.268,-0.786,42.663,100.219,-9.277,1
3.82991,-0.231,1.069,-0.818,47.363,96.313,-6.469,1
3.839232,-0.1,0.934,-0.827,41.259,89.599,-3.601,1
3.847191,-0.047,0.885,-0.786,31.005,82.092,-0.976,1
3.855678,-0.022,0.885,-0.752,22.216,74.462,0.305,1
3.862796,0.016,0.922,-0.741,16.296,65.002,0.122,1
3.870748,0.053,0.974,-0.74,16.052,56.091,-1.342,1
3.8783,0.1,1.042,-0.75,19.836,47.119,-4.333,1
3.88697,0.122,1.124,-0.746,26.0,37.78,-7.873,1
3.894786,0.118,1.174,-0.716,37.231,28.991,-12.268,1
3.902683,0.126,1.197,-0.693,42.358,22.583,-15.624,1
3.911481,0.103,1.212,-0.664,40.649,16.052,-19.531,1
3.920695,0.108,1.243,-0.652,32.714,10.681,-22.766,1
3.927906,0.087,1.278,-0.66,22.521,4.882,-26.0,1
3.937357,0.025,1.32,-0.685,15.502,-0.366,-28.747,1
3.944716,-0.049,1.358,-0.728,12.512,-7.568,-31.433,1
3.954135,-0.07,1.375,-0.765,15.869,-14.221,-32.592,1
3.960862,-0.051,1.433,-0.771,25.695,-20.751,-33.264,1
3.969256,-0.013,1.524,-0.751,36.743,-24.658,-35.461,1
3.976008,0.008,1.643,-0.726,45.959,-27.587,-39.123,1
3.986037,-0.002,1.744,-0.703,48.706,-30.212,-44.616,1
3.992958,-0.005,1.82,-0.667,39.489,-31.127,-51.574,1
4.001293,0.016,1.83,-0.652,17.7,-30.761,-57.189,1
4.008564,0.07,1.821,-0.641,-16.418,-28.93,-62.255,1
4.017299,0.138,1.833,-0.629,-58.166,-26.306,-66.65,1
4.025718,0.219,1.883,-0.629,-100.036,-24.597,-70.373,1
4.033563,0.285,1.98,-0.622,-139.343,-23.742,-74.035,1
4.04066,0.341,2.118,-0.642,-158.508,-24.536,-77.087,1
4.050095,0.413,2.303,-0.702,-164.428,-28.015,-80.688,1
4.059725,0.49,2.522,-0.797,-157.409,-34.24,-85.571,1
4.067483,0.554,2.776,-0.833,-141.418,-44.677,-95.336,1
4.076204,0.617,2.961,-0.828,-128.601,-54.321,-105.957,1
4.085359,0.657,3.01,-0.777,-125.671,-62.988,-118.225,1
4.091984,0.677,2.95,-0.691,-136.901,-68.298,-128.845,1
4.101514,0.723,2.815,-0.539,-160.461,-71.655,-138.732,1
4.108671,0.74,2.602,-0.373,-206.665,-73.974,-148.376,1
4.119342,0.688,2.496,-0.227,-238.952,-75.622,-153.808,1
4.126442,0.584,2.382,-0.057,-258.728,-78.552,-159.057,1
4.134227,0.502,2.231,0.071,-258.605,-83.496,-161.743,1
4.142624,0.429,2.127,0.276,-235.839,-91.003,-162.902,1
4.150242,0.359,1.987,0.502,-184.57,-95.397,-164.733,1
4.159359,0.294,1.819,0.67,-100.769,-102.294,-168.518,1
4.167334,0.27,1.547,0.734,-31.005,-104.553,-171.63,1
4.175134,0.229,1.218,0.821,13.549,-104.064,-173.889,1
4.182739,0.29,0.919,0.845,31.311,-96.374,-175.476,1
4.190343,0.298,0.605,0.744,1.403,-87.219,-174.804,1
4.200204,0.325,0.341,0.646,-62.927,-77.331,-171.142,1
4.207186,0.372,0.24,0.616,-140.747,-67.26,-164.062,1
4.214554,0.44,0.086,0.482,-202.575,-59.02,-154.907,1
4.224324,0.393,0.128,0.487,-223.083,-58.227,-146.362,1
4.231546,0.44,0.145,0.486,-199.584,-57.495,-137.512,1
4.240386,0.417,0.224,0.515,-135.498,-61.95,-128.479,1
4.247009,0.402,0.288,0.5,-63.049,-63.232,-121.887,1
4.254664,0.367,0.336,0.481,1.403,-65.856,-117.126,1
4.26237,0.339,0.355,0.437,43.334,-63.903,-112.731,1
4.270968,0.324,0.387,0.392,58.41,-62.011,-109.619,1
4.27973,0.336,0.444,0.37,52.001,-55.847,-105.773,1
4.286949,0.312,0.538,0.364,35.4,-50.72,-103.393,1
4.294597,0.289,0.657,0.332,15.38,-43.518,-101.745,1
4.302303,0.266,0.783,0.31,1.708,-39.123,-101.013,1
4.311124,0.283,0.913,0.251,-3.906,-35.522,-101.013,1
4.320367,0.24,1.079,0.182,2.929,-34.362,-102.844,1
4.328731,0.223,1.204,0.096,24.658,-35.4,-105.468,1
4.336775,0.244,1.292,0.027,51.452,-38.33,-108.947,1
4.344229,0.228,1.347,-0.048,78.491,-41.809,-113.098,1
4.351961,0.174,1.378,-0.089,94.421,-43.395,-117.065,1
4.360828,0.193,1.365,-0.125,96.923,-44.921,-121.52,1
4.370286,0.231,1.353,-0.153,90.148,-44.677,-126.77,1
4.377883,0.169,1.311,-0.15,77.27,-44.799,-131.958,1
4.386873,-0.242,1.452,-0.265,79.04,-34.301,-135.864,1
4.394234,0.023,1.026,-0.193,44.128,-49.56,-138.183,1
4.40213,0.086,1.188,-0.193,68.786,-35.339,-140.38,1
4.411556,0.07,1.169,-0.193,78.308,-49.011,-148.437,1
4.41967,0.117,1.05,-0.121,103.271,-39.001,-151.611,1
4.425308,0.085,0.856,-0.096,109.741,-45.898,-155.883,1
4.433612,0.131,0.756,-0.039,119.445,-37.353,-158.081,1
4.441411,0.146,0.537,-0.066,105.041,-37.536,-160.461,1
4.450467,0.118,0.434,0.005,93.566,-29.418,-161.071,1
4.457819,0.095,0.369,0.045,76.782,-26.916,-162.109,1
4.465652,0.054,0.32,0.083,68.908,-19.226,-162.414,1
4.473061,0.012,0.27,0.108,57.678,-17.272,-163.085,1
4.481648,-0.02,0.229,0.169,52.185,-9.826,-162.78,1
4.488829,-0.093,0.183,0.167,45.593,-7.69,-163.024,1
4.498271,-0.164,0.16,0.234,49.194,-0.549,-162.536,1
4.504999,-0.257,0.083,0.223,53.466,2.99,-161.437,1
4.514013,-0.269,0.034,0.278,61.645,11.047,-159.729,1
4.520818,-0.263,-0.032,0.273,62.622,16.235,-158.386,1
4.530111,-0.312,-0.114,0.325,58.898,27.587,-155.883,1
4.537026,-0.309,-0.232,0.356,38.635,38.208,-153.808,1
4.546136,-0.403,-0.311,0.422,16.784,54.931,-149.597,1
4.554805,-0.341,-0.391,0.452,-1.281,65.551,-145.751,1
4.563591,-0.401,-0.438,0.485,-15.869,81.848,-140.563,1
4.572018,-0.458,-0.443,0.534,-21.545,91.918,-135.07,1
4.580682,-0.483,-0.468,0.546,-14.282,102.05,-129.76,1
4.587251,-0.557,-0.507,0.574,-2.258,111.206,-123.168,1
4.595706,-0.634,-0.571,0.54,8.666,119.812,-116.333,1
4.602414,-0.73,-0.603,0.563,14.404,127.99,-108.459,1
4.610975,-0.756,-0.665,0.518,17.211,138.671,-98.937,1
4.617719,-0.796,-0.73,0.508,15.93,147.399,-88.134,1
4.627186,-0.764,-0.812,0.446,11.84,159.301,-77.026,1
4.635612,-0.751,-0.911,0.381,-6.652,172.851,-63.781,1
4.644447,-0.793,-0.996,0.28,-42.602,188.476,-49.987,1
4.652312,-0.879,-1.019,0.234,-82.519,201.843,-38.879,1
4.661508,-1.087,-0.997,0.174,-123.474,215.27,-27.282,1
4.670433,-1.293,-0.961,0.151,-141.784,226.196,-15.93,1
4.679593,-1.384,-0.945,0.119,-138.916,235.046,-4.638,1
4.686658,-1.465,-0.979,0.07,-127.563,244.934,7.751,1
4.694676,-1.531,-1.047,-0.014,-123.596,254.394,19.47,1
4.702493,-1.592,-1.116,-0.067,-133.667,268.188,34.606,1
4.711997,-1.587,-1.176,-0.124,-148.437,281.494,47.851,1
4.720784,-1.638,-1.215,-0.142,-159.423,298.584,62.866,1
4.728745,-1.881,-1.245,-0.145,-156.738,317.077,79.589,1
4.736701,-2.028,-1.239,-0.138,-137.878,333.801,96.496,1
4.7443,-2.178,-1.247,-0.16,-107.482,354.309,117.065,1
4.753593,-2.27,-1.301,-0.136,-50.292,359.436,136.84,1
4.761368,-2.256,-1.36,-0.206,44.25,370.666,162.475,1
4.769485,-2.19,-1.538,-0.405,161.132,372.619,197.937,1
4.77731,-2.523,-1.721,-0.52,225.463,378.173,234.802,1
4.784601,-2.871,-1.815,-0.704,242.858,377.258,274.23,1
4.793098,-3.452,-1.746,-0.814,263.793,377.258,320.129,1
4.800637,-3.932,-1.651,-0.93,286.865,369.262,359.313,1
4.809587,-4.395,-1.527,-0.957,307.739,359.924,399.719,1
4.818114,-5.065,-1.515,-0.996,330.688,345.703,446.044,1
4.826033,-5.542,-1.382,-1.118,382.751,322.998,503.051,1
4.833996,-6.116,-1.245,-1.172,469.604,286.621,558.898,1
4.842521,-6.889,-1.054,-1.214,532.348,246.337,608.886,1
4.849657,-7.471,-0.919,-1.249,595.397,196.838,659.728,1
4.857419,-8.234,-0.77,-1.306,653.808,127.197,715.515,1
4.865041,-9.016,-0.674,-1.301,662.414,61.645,757.934,1
4.873206,-9.986,-0.503,-1.284,637.939,-2.685,794.311,1
4.882551,-11.05,-0.276,-1.175,601.806,-66.955,823.425,1
4.891194,-11.96,0.051,-1.062,572.204,-139.221,847.534,1
4.898664,-12.693,0.324,-0.924,580.139,-205.322,860.473,1
4.906093,-13.17,0.541,-0.906,613.952,-275.268,866.76,1
4.913157,-13.81,0.742,-0.858,658.996,-365.539,862.976,1
4.922731,-14.575,0.886,-0.812,664.367,-446.044,850.646,1
4.930369,-15.421,1.138,-0.642,640.563,-521.362,831.848,1
4.937391,-15.959,1.449,-0.495,607.299,-605.468,799.987,1
4.944691,-15.998,1.721,-0.245,567.749,-670.471,764.953,1
4.952485,-15.999,2.922,0.455,573.059,-730.041,722.473,1
4.960301,-15.999,2.77,0.932,567.504,-783.752,671.936,1
4.968138,-15.999,2.574,0.931,523.742,-827.026,623.657,1
4.978022,-15.999,2.939,1.253,476.257,-849.121,572.448,1
4.985332,-15.999,2.711,1.53,504.577,-870.422,506.408,1
4.994451,-15.999,2.721,1.893,579.834,-886.596,436.645,1
5.001465,-15.999,2.816,2.004,712.463,-901.611,342.895,1
5.010329,-15.604,2.823,2.298,823.547,-924.56,242.492,1
5.018657,-13.159,2.436,2.403,923.034,-917.541,112.609,1
5.02527,-11.714,2.087,2.537,935.485,-902.221,2.136,1
5.034814,-10.882,1.851,2.387,923.767,-858.398,-100.891,1
5.042341,-10.374,1.583,2.243,923.95,-821.105,-193.359,1
5.049717,-9.54,1.009,2.041,898.62,-745.178,-283.874,1
5.059936,-8.695,0.484,1.955,758.605,-675.537,-343.261,1
5.069063,-7.244,0.004,1.87,520.568,-583.923,-385.07,1
5.077777,-6.52,-0.125,1.945,278.259,-514.404,-400.817,1
5.086581,-6.091,-0.141,1.982,100.585,-463.684,-398.01,1
5.095509,-5.599,-0.038,2.22,28.076,-427.795,-385.803,1
5.102657,-5.327,0.023,2.38,45.349,-406.86,-373.901,1
5.111194,-5.033,-0.04,2.487,95.764,-384.948,-365.6,1
5.11854,-4.828,-0.106,2.618,141.723,-357.299,-359.619,1
5.126809,-4.341,-0.273,2.719,168.64,-326.721,-355.59,1
5.135724,-3.863,-0.506,2.765,177.185,-289.489,-350.769,1
5.144561,-3.442,-0.697,2.711,168.762,-256.53,-344.238,1
5.153314,-2.93,-0.841,2.634,151.611,-221.618,-335.449,1
5.162436,-2.537,-0.947,2.544,131.774,-187.561,-324.157,1
5.170152,-2.185,-1.043,2.496,106.689,-155.029,-310.729,1
5.177612,-1.932,-1.09,2.415,82.458,-124.694,-294.799,1
5.186342,-1.754,-1.091,2.347,70.129,-101.684,-281.433,1
5.195358,-1.581,-1.064,2.216,64.819,-77.575,-266.052,1
5.203193,-1.411,-1.058,2.14,67.504,-56.518,-250.244,1
5.210637,-1.214,-1.053,2.045,78.125,-39.55,-236.45,1
5.21937,-1.035,-1.069,1.964,89.721,-24.353,-222.9,1
5.226372,-0.92,-1.079,1.856,97.229,-5.859,-206.726,1
5.235991,-0.777,-1.072,1.752,96.801,7.751,-193.237,1
5.242846,-0.658,-1.034,1.628,92.529,23.681,-177.307,1
5.251496,-0.607,-0.978,1.531,88.134,35.339,-164.123,1
5.258744,-0.543,-0.909,1.414,84.899,46.569,-151.062,1
5.267768,-0.522,-0.824,1.279,79.406,55.541,-139.038,1
5.274719,-0.46,-0.748,1.161,75.439,64.331,-125.793,1
5.283484,-0.403,-0.674,1.057,75.073,69.458,-114.807,1
5.291804,-0.356,-0.609,0.954,76.721,73.913,-104.248,1
5.299226,-0.377,-0.55,0.83,60.302,79.223,-92.163,1
5.308347,-0.172,-0.457,0.758,50.415,82.275,-84.96,1
5.314431,-0.171,-0.401,0.694,53.405,86.486,-77.331,1
5.323377,-0.113,-0.361,0.643,55.664,88.684,-69.213,1
5.3304,-0.091,-0.331,0.582,53.71,91.43,-62.744,1
5.33939,-0.05,-0.295,0.544,46.63,93.505,-56.823,1
5.347308,0.03,-0.242,0.496,39.123,95.947,-51.452,1
5.355472,0.095,-0.202,0.476,34.545,97.29,-46.569,1
5.362533,0.177,-0.16,0.442,35.644,98.571,-42.48,1
5.371211,0.26,-0.109,0.417,40.466,99.06,-38.452,1
5.379392,0.324,-0.071,0.376,46.081,99.243,-33.691,1
5.388856,0.35,-0.053,0.365,49.499,99.365,-28.747,1
5.39642,0.378,-0.019,0.325,53.283,99.365,-25.085,1
5.405527,0.407,0.003,0.311,52.917,98.51,-21.057,1
5.413287,0.416,0.016,0.284,53.71,97.9,-17.761,1
5.42111,0.517,0.04,0.28,58.776,96.435,-15.319,1
5.42913,0.56,0.039,0.251,66.284,94.97,-12.39,1
5.436736,0.609,0.061,0.249,76.049,93.872,-9.582,1
5.444187,0.685,0.076,0.224,85.388,92.712,-7.385,1
5.453098,0.708,0.082,0.222,91.064,92.468,-6.042,1
5.461915,0.756,0.095,0.191,92.468,91.979,-4.638,1
5.4706,0.777,0.091,0.183,89.843,92.59,-3.051,1
5.477931,0.757,0.092,0.169,83.19,91.43,-1.586,1
5.486832,0.68,0.093,0.172,76.049,92.041,-1.098,1
5.495377,0.749,0.11,0.188,72.143,91.186,-0.732,1
5.504209,0.714,0.085,0.198,73.486,91.613,0.854,1
5.511458,0.736,0.088,0.197,78.125,89.538,2.807,1
5.520431,0.661,0.08,0.184,89.233,89.416,6.164,1
5.528611,0.648,0.064,0.158,108.459,85.083,10.62,1
5.535536,0.718,0.013,0.163,140.686,84.106,16.174,1
5.543801,0.802,-0.049,0.106,163.513,80.993,21.24,1
5.550263,0.968,-0.075,0.128,178.894,80.383,26.367,1
5.558676,1.131,-0.127,0.069,190.734,81.726,32.836,1
5.567884,1.169,-0.161,0.064,193.298,84.045,40.344,1
5.575943,1.172,-0.166,-0.002,186.706,86.669,46.508,1
5.58357,1.127,-0.153,-0.02,172.668,91.491,52.124,1
5.592413,1.145,-0.167,-0.075,153.747,93.322,55.603,1
5.600284,1.121,-0.154,-0.073,133.361,96.191,58.959,1
5.607646,1.071,-0.106,-0.097,119.323,95.764,60.607,1
5.616156,0.992,-0.055,-0.08,110.29,97.595,61.767,1
5.624162,0.925,-0.013,-0.089,106.018,97.229,62.438,1
5.63241,0.895,0.05,-0.046,109.313,99.121,63.232,1
5.639719,0.851,0.067,-0.07,116.333,99.426,64.086,1
5.646595,0.854,0.103,-0.057,125.305,99.67,65.368,1
5.65658,0.858,0.145,-0.083,134.399,99.67,66.894,1
5.664527,0.838,0.208,-0.07,146.972,97.9,68.359,1
5.673008,0.792,0.292,-0.098,163.208,94.421,68.054,1
5.679157,0.702,0.353,-0.075,177.917,92.407,68.115,1
5.687155,0.642,0.415,-0.105,188.049,89.66,68.115,1
5.697604,0.558,0.483,-0.087,192.504,88.134,67.871,1
5.704454,0.548,0.528,-0.105,184.753,86.975,67.504,1
5.712202,0.52,0.584,-0.081,170.104,88.256,67.016,1
5.720873,0.519,0.636,-0.091,148.315,88.867,65.185,1
5.727842,0.522,0.684,-0.057,125.976,90.637,63.11,1
5.735186,0.548,0.724,-0.061,99.67,92.285,60.302,1
5.74451,0.564,0.769,-0.019,83.801,94.299,58.105,1
5.752705,0.549,0.815,-0.026,70.068,95.947,54.382,1
5.760354,0.538,0.856,0.019,68.908,97.045,50.537,1
5.767749,0.567,0.873,0.034,76.538,97.29,47.058,1
5.776211,0.59,0.862,0.054,86.364,98.693,44.738,1
5.783514,0.617,0.834,0.048,88.134,99.853,42.114,1
5.790167,0.642,0.819,0.06,82.824,102.6,39.489,1
5.798668,0.653,0.819,0.052,73.852,105.163,36.865,1
5.807305,0.658,0.827,0.063,64.453,108.093,33.874,1
5.814349,0.671,0.844,0.065,66.65,109.313,31.372,1
5.822136,0.667,0.847,0.082,79.467,110.473,29.357,1
5.829766,0.665,0.84,0.083,95.397,111.145,27.282,1
5.837229,0.68,0.802,0.078,107.055,111.877,26.184,1
5.844689,0.687,0.754,0.076,112.487,113.22,25.451,1
5.852415,0.667,0.709,0.077,107.727,115.661,25.39,1
5.861597,0.653,0.667,0.078,96.069,119.689,25.024,1
5.868995,0.647,0.636,0.073,81.481,123.229,24.597,1
5.877056,0.647,0.623,0.071,80.2,125.793,24.23,1
5.885961,0.635,0.601,0.062,89.233,127.563,24.353,1
5.893143,0.634,0.579,0.054,101.013,128.601,24.658,1
5.900467,0.621,0.552,0.04,111.755,129.455,25.329,1
5.909185,0.604,0.529,0.027,119.995,131.225,26.733,1
5.916277,0.601,0.509,0.016,125.854,132.934,28.503,1
5.926082,0.582,0.502,0.003,127.075,135.192,30.578,1
5.93372,0.539,0.498,-0.012,121.582,138.854,32.836,1
5.941323,0.502,0.506,-0.022,113.342,142.639,34.423,1
5.949408,0.466,0.52,-0.034,105.285,145.629,36.01,1
5.9577,0.436,0.539,-0.041,101.745,148.62,37.353,1
5.965085,0.409,0.568,-0.046,103.637,150.939,38.513,1
5.973615,0.358,0.594,-0.058,110.961,153.198,40.405,1
5.981194,0.305,0.622,-0.068,116.027,155.151,42.236,1
5.988661,0.249,0.648,-0.077,116.699,157.897,43.762,1
5.996224,0.218,0.67,-0.09,112.365,160.522,44.86,1
6.00437,0.187,0.698,-0.098,105.957,163.757,46.325,1
6.013563,0.163,0.737,-0.106,99.731,166.442,46.997,1
6.022112,0.137,0.87,-0.172,89.05,171.02,47.851,1
6.029949,0.161,1.118,-0.286,69.274,173.339,45.227,1
6.038122,0.131,1.253,-0.323,57.495,177.673,41.076,1
6.045044,0.092,1.199,-0.345,64.575,175.964,37.719,1
6.053639,0.075,1.195,-0.34,88.195,175.903,35.156,1
6.060786,0.066,1.177,-0.354,117.919,171.997,33.203,1
6.068092,0.06,1.142,-0.349,146.118,171.386,32.775,1
6.077069,0.037,1.113,-0.387,156.188,169.616,32.775,1
6.082996,0.025,1.123,-0.385,148.986,171.752,33.081,1
6.092598,0.041,1.173,-0.424,127.441,173.278,32.287,1
6.098726,0.043,1.268,-0.378,104.37,176.086,30.09,1
6.107314,0.053,1.338,-0.328,102.722,176.33,27.343,1
6.11428,0.061,1.387,-0.275,115.722,176.269,24.719,1
6.121315,0.084,1.415,-0.238,130.92,174.804,23.01,1
6.130126,0.086,1.424,-0.187,148.864,174.56,21.179,1
6.139298,0.053,1.385,-0.156,152.465,175.842,19.47,1
6.146376,0.023,1.332,-0.149,142.944,177.612,18.066,1
6.154706,0.003,1.269,-0.166,129.638,180.603,16.906,1
6.163555,-0.022,1.201,-0.217,116.516,183.105,16.662,1
6.169907,-0.06,1.152,-0.32,98.083,187.561,16.235,1
6.178356,-0.114,1.117,-0.495,70.068,190.917,15.747,1
6.187514,-0.127,1.183,-0.61,44.128,191.894,14.282,1
6.195087,-0.185,1.272,-0.625,42.358,192.749,12.268,1
6.204622,-0.241,1.297,-0.708,47.851,191.223,10.131,1
6.212658,-0.303,1.32,-0.92,60.729,190.978,8.728,1
6.219974,-0.307,1.271,-1.144,74.951,183.837,6.408,1
6.227361,-0.264,1.219,-1.363,88.012,178.1,6.103,1
6.235536,-0.216,1.178,-1.491,102.111,170.104,6.408,1
6.244401,-0.171,1.135,-1.565,114.929,161.804,6.896,1
6.25103,-0.163,1.164,-1.599,125.976,153.076,7.812,1
6.26011,-0.147,1.229,-1.534,137.512,144.104,8.666,1
6.268146,-0.104,1.279,-1.324,141.54,133.483,9.582,1
6.276907,-0.078,1.356,-1.136,133.239,128.967,9.826,1
6.284609,-0.05,1.45,-0.93,110.717,125.061,8.117,1
6.292056,-0.026,1.534,-0.806,91.613,124.999,5.493,1
6.301036,0.0,1.525,-0.812,71.899,121.643,2.685,1
6.308938,0.02,1.499,-0.794,62.072,119.14,-0.061,1
6.31706,0.013,1.427,-0.904,63.903,114.379,-2.685,1
6.324009,-0.012,1.329,-0.972,75.317,105.651,-4.943,1
6.334736,-0.043,1.219,-1.028,90.209,97.839,-5.371,1
6.343355,-0.062,1.087,-1.065,110.778,85.51,-4.882,1
6.350133,-0.077,0.985,-1.029,124.938,75.744,-2.929,1
6.359258,-0.081,0.954,-0.956,130.676,67.749,-1.037,1
6.368105,-0.062,0.984,-0.832,131.042,61.34,1.159,1
6.376633,-0.024,1.036,-0.744,124.633,56.213,2.746,1
6.384068,0.009,1.061,-0.675,113.464,53.71,3.967,1
6.392954,0.015,1.082,-0.632,93.322,52.246,4.211,1
6.400294,0.004,1.139,-0.584,70.251,51.635,3.662,1
6.409232,0.017,1.196,-0.545,42.724,51.879,2.38,1
6.41678,0.066,1.237,-0.528,20.263,51.574,0.488,1
6.425512,0.078,1.254,-0.506,-2.441,50.781,-2.441,1
6.432125,0.097,1.25,-0.509,-17.822,49.011,-4.821,1
6.439905,0.073,1.223,-0.523,-27.832,45.898,-6.591,1
6.447876,0.023,1.167,-0.564,-29.968,41.992,-8.239,1
6.456376,-0.029,1.069,-0.617,-23.742,35.827,-8.605,1
6.464918,-0.071,0.999,-0.664,-8.85,29.357,-8.666,1
6.471935,-0.078,0.931,-0.682,15.075,20.874,-7.568,1
6.48111,-0.077,0.91,-0.679,34.606,14.16,-5.615,1
6.489062,-0.066,0.917,-0.631,51.33,7.446,-3.417,1
6.496507,0.015,0.928,-0.557,66.528,3.051,-1.281,1
6.505124,0.096,0.978,-0.496,72.143,-0.488,-0.732,1
6.514242,0.127,1.02,-0.412,74.157,-1.586,-1.281,1
6.521232,0.195,1.031,-0.369,64.086,-1.708,-1.831,1
6.530034,0.197,1.054,-0.331,50.842,-1.464,-2.197,1
6.537306,0.176,1.089,-0.265,40.039,0.427,-3.479,1
6.546307,0.175,1.042,-0.31,31.494,-0.244,-3.051,1
6.555092,0.117,1.011,-0.284,23.925,-0.915,-2.502,1
6.561804,0.074,0.966,-0.317,16.601,-0.732,-0.854,1
6.56916,0.115,0.952,-0.33,11.596,-2.136,0.122,1
6.576026,0.116,0.961,-0.314,14.404,-1.831,0.549,1
6.583351,0.111,0.95,-0.309,18.31,-2.441,0.122,1
6.592288,0.115,0.932,-0.276,20.324,-1.708,-0.366,1
6.600972,0.104,0.904,-0.273,18.981,-0.732,-0.915,1
6.608738,0.107,0.877,-0.244,11.291,0.549,-0.976,1
6.616131,0.137,0.88,-0.229,2.99,2.075,-0.793,1
6.625323,0.171,0.884,-0.224,-6.469,3.54,-0.671,1
6.634298,0.2,0.937,-0.213,-14.526,5.432,-0.305,1
6.64286,0.219,0.998,-0.222,-17.456,6.164,-0.488,1
6.650189,0.227,1.055,-0.243,-20.263,6.347,-1.037,1
6.658873,0.209,1.089,-0.291,-25.268,5.859,-2.319,1
6.667844,0.224,1.091,-0.353,-31.249,3.601,-3.295,1
6.677932,0.228,1.115,-0.395,-29.479,1.525,-4.882,1
6.686668,0.228,1.131,-0.445,-18.493,-1.525,-6.286,1
6.693976,0.273,1.131,-0.479,-6.347,-3.417,-7.568,1
6.703226,0.287,1.136,-0.504,-4.821,-4.028,-8.911,1
6.712524,0.306,1.172,-0.519,-14.77,-3.662,-10.559,1
6.720225,0.321,1.237,-0.546,-28.747,-2.99,-12.451,1
6.727885,0.346,1.305,-0.564,-43.762,-3.112,-14.526,1
6.73679,0.389,1.392,-0.598,-52.124,-3.173,-16.662,1
6.745653,0.426,1.478,-0.626,-55.603,-5.004,-19.409,1
6.752984,0.469,1.583,-0.654,-56.091,-6.469,-23.01,1
6.759981,0.515,1.64,-0.684,-58.349,-8.3,-25.878,1
6.76877,0.557,1.699,-0.712,-60.791,-9.338,-29.541,1
6.776358,0.569,1.785,-0.774,-65.612,-11.108,-34.057,1
6.784498,0.574,1.893,-0.816,-73.303,-12.634,-38.391,1
6.792761,0.622,1.96,-0.808,-84.533,-14.77,-43.395,1
6.802272,0.568,2.091,-0.857,-97.9,-14.587,-49.56,1
6.810299,0.564,2.239,-0.94,-108.154,-18.493,-56.945,1
6.817067,0.565,2.302,-0.978,-115.356,-20.812,-65.917,1
6.825918,0.576,2.336,-1.026,-121.887,-25.085,-73.791,1
6.834702,0.574,2.317,-1.019,-127.99,-29.541,-83.374,1
6.842451,0.595,2.242,-1.013,-131.103,-34.118,-91.247,1
6.851003,0.66,2.021,-0.957,-130.249,-40.405,-98.327,1
6.858379,0.661,1.927,-0.843,-119.018,-45.837,-103.454,1
6.867012,0.63,1.838,-0.75,-98.388,-51.513,-109.191,1
6.876227,0.625,1.759,-0.668,-80.017,-57.495,-114.562,1
6.884029,0.578,1.666,-0.528,-65.368,-61.462,-118.774,1
6.891929,0.509,1.629,-0.423,-44.067,-64.88,-123.046,1
6.901249,0.454,1.584,-0.307,-21.606,-68.664,-127.258,1
6.90845,0.411,1.48,-0.147,5.065,-70.922,-131.53,1
6.916179,0.432,1.282,-0.033,28.808,-71.777,-135.62,1
6.923931,0.4,1.096,-0.012,32.104,-70.068,-137.939,1
6.933266,0.429,0.963,-0.09,8.056,-67.26,-139.587,1
6.941637,0.414,0.931,-0.039,-15.991,-63.72,-140.075,1
6.950501,0.427,0.961,-0.058,-28.991,-63.11,-140.625,1
6.959308,0.461,0.998,-0.027,-34.362,-62.072,-139.77,1
6.96649,0.471,0.964,-0.029,-40.344,-62.316,-138.977,1
6.975555,0.459,0.999,-0.013,-37.658,-62.133,-140.502,1
6.982699,0.426,0.97,-0.006,-39.245,-60.546,-141.113,1
6.992149,0.441,0.925,-0.009,-54.26,-59.326,-141.296,1
7.000387,0.431,0.882,0.001,-84.472,-56.274,-140.563,1
7.008606,0.411,0.877,0.01,-117.614,-54.687,-140.136,1
7.016264,0.406,0.858,0.024,-138.183,-53.588,-139.038,1
7.025255,0.401,0.843,0.041,-155.822,-53.833,-137.268,1
7.032281,0.405,0.824,0.056,-161.437,-54.443,-135.07,1
7.04219,0.39,0.816,0.068,-159.729,-55.541,-133.422,1
7.049805,0.365,0.816,0.079,-151.733,-57.006,-131.591,1
7.058484,0.383,0.829,0.074,-139.77,-58.349,-129.577,1
7.069027,0.405,0.841,0.062,-125.244,-59.02,-128.601,1
7.07696,0.454,0.832,0.04,-116.455,-60.485,-126.525,1
7.085257,0.473,0.834,0.02,-104.309,-62.316,-125.122,1
7.091938,0.438,0.849,0.0,-85.266,-65.063,-123.779,1
7.099032,0.425,0.853,-0.019,-66.284,-67.077,-123.474,1
7.108978,0.407,0.854,-0.039,-38.085,-70.007,-123.291,1
7.118752,0.389,0.835,-0.063,-5.92,-73.303,-123.84,1
7.127386,0.349,0.796,-0.082,17.578,-74.401,-124.267,1
7.135266,0.33,0.74,-0.094,27.404,-73.791,-125.244,1
7.142355,0.346,0.694,-0.101,25.085,-71.899,-125.305,1
7.151369,0.405,0.645,-0.112,16.906,-69.519,-125.61,1
7.159631,0.345,0.615,-0.119,5.187,-65.856,-124.572,1
7.166596,0.239,0.618,-0.146,-9.033,-62.255,-122.924,1
7.175684,0.248,0.547,-0.138,-21.972,-61.035,-118.652,1
7.183701,0.277,0.546,-0.164,-25.207,-57.8,-117.126,1
7.190653,0.236,0.537,-0.143,-20.446,-58.044,-117.126,1
7.198462,0.124,0.546,-0.166,-7.202,-56.701,-116.21,1
7.206551,-0.184,0.676,-0.122,31.677,-53.588,-117.675,1
7.213954,0.077,0.616,-0.22,69.519,-49.194,-125.061,1
7.221582,0.178,0.5,-0.219,75.5,-46.447,-130.371,1
7.230681,0.228,0.457,-0.228,72.265,-39.184,-133.85,1
7.238062,0.237,0.425,-0.195,62.744,-35.705,-136.962,1
7.245379,0.218,0.372,-0.187,42.724,-28.259,-140.38,1
7.253528,0.138,0.346,-0.125,20.202,-24.291,-142.639,1
7.262447,0.098,0.266,-0.079,-1.098,-20.446,-142.15,1
7.270668,0.026,0.209,0.012,-21.057,-19.592,-140.38,1
7.279221,0.021,0.208,0.076,-36.804,-17.456,-137.939,1
7.288423,-0.042,0.229,0.144,-32.043,-18.981,-138.122,1
7.296973,-0.075,0.238,0.18,-4.089,-19.287,-139.831,1
7.303513,-0.061,0.215,0.239,31.555,-19.226,-140.686,1
7.312492,-0.035,0.16,0.246,60.18,-18.493,-140.808,1
7.3205,-0.005,0.075,0.29,81.176,-15.624,-139.648,1
7.327658,0.051,0.0,0.314,94.177,-11.169,-136.901,1
7.33694,0.077,-0.06,0.384,103.393,-4.76,-133.544,1
7.346265,0.17,-0.149,0.43,118.591,1.647,-129.76,1
7.35343,0.259,-0.242,0.504,139.221,9.765,-124.45,1
7.361791,0.333,-0.325,0.536,157.348,16.113,-119.567,1
7.369318,0.286,-0.402,0.582,176.208,27.954,-113.281,1
7.378036,0.211,-0.484,0.567,178.1,37.109,-107.055,1
7.385757,0.153,-0.586,0.558,160.705,50.72,-99.426,1
7.394312,0.1,-0.658,0.543,128.234,62.255,-92.529,1
7.401768,0.035,-0.697,0.543,85.571,77.636,-84.289,1
7.410982,-0.012,-0.703,0.538,54.809,89.355,-77.758,1
7.42059,-0.098,-0.691,0.544,32.043,103.027,-70.373,1
7.427942,-0.21,-0.689,0.551,24.169,114.685,-63.049,1
7.435472,-0.303,-0.704,0.551,28.381,123.107,-56.762,1
7.445856,-0.393,-0.742,0.551,36.376,131.408,-49.987,1
7.453037,-0.491,-0.791,0.519,37.109,141.418,-41.381,1
7.461574,-0.594,-0.834,0.505,26.489,151.794,-31.921,1
7.470277,-0.676,-0.86,0.477,14.404,161.804,-22.766,1
7.477759,-0.756,-0.874,0.459,7.873,170.654,-14.038,1
7.486966,-0.846,-0.873,0.43,8.972,178.833,-4.089,1
7.494636,-0.93,-0.881,0.413,20.751,186.706,5.249,1
7.502682,-1.072,-0.891,0.341,36.071,193.969,14.77,1
7.509552,-1.189,-0.903,0.297,51.94,202.453,28.015,1
7.517222,-1.35,-0.929,0.206,59.143,210.815,40.771,1
7.524546,-1.567,-0.949,0.133,53.1,218.994,53.894,1
7.533418,-1.747,-0.987,0.054,37.109,229.003,68.664,1
7.542069,-1.931,-1.022,-0.044,12.145,239.501,85.876,1
7.550519,-2.035,-1.043,-0.16,-6.835,249.999,100.585,1
7.557949,-2.179,-1.068,-0.242,-25.695,261.108,117.126,1
7.566968,-2.271,-1.081,-0.352,-26.062,269.226,132.568,1
7.574685,-2.404,-1.077,-0.436,5.615,274.78,151.855,1
7.583015,-2.53,-1.106,-0.546,61.462,274.353,171.447,1
7.590355,-2.615,-1.231,-0.682,145.446,269.775,195.739,1
7.597999,-2.62,-1.415,-0.894,236.633,258.972,230.773,1
7.605293,-2.875,-1.56,-1.086,285.339,247.009,265.991,1
7.613846,-3.058,-1.621,-1.25,321.777,231.689,304.321,1
7.621051,-3.295,-1.612,-1.359,357.971,209.96,343.566,1
7.630497,-3.631,-1.65,-1.423,390.563,185.913,383.728,1
7.637582,-4.026,-1.641,-1.461,416.137,158.447,426.879,1
7.646965,-4.375,-1.658,-1.594,467.712,117.492,477.966,1
7.653863,-4.845,-1.669,-1.624,516.479,77.636,523.254,1
7.663184,-5.502,-1.611,-1.71,552.551,20.751,572.998,1
7.670735,-6.302,-1.621,-1.682,548.584,-26.794,614.746,1
7.681429,-7.146,-1.481,-1.64,517.517,-95.153,664.123,1
7.689085,-8.004,-1.245,-1.518,468.933,-148.803,700.134,1
7.697807,-9.078,-0.912,-1.352,429.382,-194.702,726.196,1
7.706673,-10.08,-0.631,-1.257,395.141,-243.652,752.014,1
7.715645,-11.351,-0.28,-1.157,356.75,-291.198,773.376,1
7.722377,-12.382,0.113,-1.066,322.936,-337.158,788.879,1
7.731972,-13.064,0.435,-0.926,315.429,-377.563,799.438,1
7.739378,-13.659,0.713,-0.796,336.486,-427.978,807.556,1
7.748226,-14.378,0.873,-0.642,348.51,-473.388,809.936,1
7.7553,-15.507,1.117,-0.479,345.336,-516.845,809.265,1
7.763423,-15.797,1.209,-0.296,336.608,-562.072,803.832,1
7.770604,-15.995,1.403,-0.061,337.585,-596.74,798.767,1
7.780316,-15.999,1.739,0.153,365.661,-632.446,789.001,1
7.787343,-15.999,1.992,0.577,407.104,-674.987,768.554,1
7.796369,-15.999,2.224,0.848,461.853,-713.745,738.525,1
7.804159,-15.999,2.361,1.263,519.47,-748.596,701.721,1
7.811813,-15.999,2.79,1.63,616.821,-781.494,641.174,1
7.820967,-15.999,2.673,1.614,714.233,-825.5,574.218,1
7.828506,-15.999,2.688,1.921,794.677,-872.314,470.825,1
7.836077,-15.885,2.621,1.965,801.269,-895.873,371.643,1
7.845189,-15.012,2.701,2.303,798.156,-893.981,268.676,1
7.852354,-13.1,2.455,2.251,786.682,-886.047,151.367,1
7.860877,-11.926,2.236,2.387,775.207,-869.384,59.692,1
7.868688,-10.759,1.966,2.312,771.545,-840.393,-39.733,1
7.877388,-9.965,1.681,2.232,770.08,-800.476,-117.614,1
7.886037,-9.021,1.218,2.014,726.013,-743.469,-195.922,1
7.894748,-8.24,0.86,1.877,641.662,-685.363,-248.107,1
7.902295,-7.385,0.584,1.826,510.375,-617.431,-293.09,1
7.911196,-6.591,0.358,1.883,368.286,-559.57,-317.688,1
7.918921,-5.818,0.274,1.992,218.933,-504.15,-331.42,1
7.927228,-5.413,0.349,2.108,155.273,-466.796,-334.96,1
7.934941,-5.147,0.473,2.19,170.166,-433.227,-336.975,1
7.944068,-4.893,0.463,2.185,219.421,-405.395,-340.942,1
7.95325,-4.846,0.38,2.113,261.962,-373.229,-347.961,1
7.960691,-4.586,0.233,2.061,276.123,-331.665,-355.468,1
7.968433,-4.308,0.092,2.105,258.483,-295.471,-360.656,1
7.977976,-3.912,-0.08,2.093,214.477,-261.047,-363.525,1
7.985278,-3.519,-0.244,2.144,144.47,-218.566,-361.328,1
7.995075,-3.151,-0.355,2.139,86.669,-189.819,-354.98,1
8.002565,-2.788,-0.437,2.188,52.062,-157.531,-344.665,1
8.012342,-2.459,-0.477,2.206,52.917,-132.934,-332.519,1
8.019762,-2.306,-0.51,2.187,73.852,-110.839,-320.922,1
8.027536,-2.061,-0.556,2.075,98.937,-89.172,-308.959,1
8.035105,-1.708,-0.625,1.992,121.276,-70.251,-298.889,1
8.043506,-1.521,-0.695,1.911,139.221,-46.874,-285.4,1
8.054471,-1.379,-0.74,1.797,142.578,-26.916,-272.705,1
8.061946,-1.216,-0.747,1.639,133.422,-2.685,-255.92,1
8.070849,-1.126,-0.705,1.508,123.779,16.174,-240.783,1
8.079391,-1.084,-0.637,1.38,119.628,32.043,-226.318,1
8.086081,-1.11,-0.582,1.276,118.896,44.311,-214.416,1
8.094666,-1.021,-0.56,1.185,114.501,55.48,-202.88,1
8.102962,-0.909,-0.537,1.099,102.416,67.749,-192.016,1
8.110761,-0.807,-0.503,0.998,84.838,78.369,-181.335,1
8.11907,-0.764,-0.454,0.911,66.772,89.05,-169.372,1
8.127172,-0.842,-0.436,0.829,52.856,96.313,-158.691,1
8.134251,-0.755,-0.353,0.681,32.714,101.928,-150.451,1
8.142463,-0.569,-0.291,0.675,34.24,103.332,-144.531,1
8.149655,-0.471,-0.249,0.569,45.898,106.811,-137.084,1
8.157449,-0.391,-0.219,0.546,62.316,107.971,-128.295,1
8.166688,-0.275,-0.209,0.465,78.613,109.924,-120.605,1
8.174679,-0.197,-0.189,0.425,96.862,111.999,-110.839,1
8.183148,-0.14,-0.166,0.34,111.938,113.037,-103.149,1
8.189646,-0.125,-0.119,0.301,128.173,114.99,-95.703,1
8.199037,-0.109,-0.09,0.234,140.136,115.234,-90.087,1
8.205463,-0.1,-0.064,0.22,152.038,115.722,-84.533,1
8.214331,-0.068,-0.063,0.16,163.33,116.394,-79.345,1
8.223361,-0.01,-0.066,0.149,170.471,117.614,-75.073,1
8.23068,0.046,-0.071,0.107,171.386,117.919,-70.922,1
8.239759,0.091,-0.076,0.106,167.48,119.262,-67.321,1
8.246157,0.118,-0.083,0.076,156.25,120.117,-63.415,1
8.255525,0.123,-0.084,0.071,143.859,121.704,-59.814,1
8.26317,0.18,-0.089,0.056,129.821,122.436,-56.396,1
8.272444,0.25,-0.087,0.055,116.394,123.657,-51.696,1
8.280984,0.272,-0.073,0.036,108.154,123.474,-48.156,1
8.289054,0.29,-0.063,0.037,103.027,123.474,-44.616,1
8.295651,0.305,-0.048,0.011,101.379,123.046,-41.32,1
8.304207,0.305,-0.04,0.027,102.111,123.718,-38.574,1
8.312462,0.303,-0.038,0.013,104.37,124.389,-35.156,1
8.319364,0.291,-0.041,0.017,108.093,125.488,-31.738,1
8.328513,0.29,-0.041,0.002,114.318,126.464,-27.282,1
8.336231,0.328,-0.041,0.0,123.168,127.38,-22.155,1
8.345274,0.419,-0.043,-0.006,132.69,126.464,-17.944,1
8.355098,0.519,-0.052,-0.012,146.606,124.755,-13.916,1
8.362344,0.611,-0.054,-0.018,160.339,122.253,-11.657,1
8.369956,0.65,-0.059,-0.02,170.898,121.276,-10.925,1
8.377299,0.674,-0.071,-0.041,177.978,120.178,-9.643,1
8.385108,0.672,-0.101,-0.041,178.1,120.544,-7.202,1
8.394357,0.655,-0.117,-0.061,167.48,121.582,-2.868,1
8.403321,0.637,-0.129,-0.062,149.719,123.474,1.342,1
8.412453,0.628,-0.127,-0.076,130.126,125.366,5.249,1
8.420263,0.636,-0.124,-0.074,112.426,127.868,8.789,1
8.427659,0.647,-0.106,-0.081,102.905,129.516,11.901,1
8.436128,0.644,-0.083,-0.079,102.294,130.371,14.221,1
8.442403,0.65,-0.06,-0.084,110.595,130.432,16.723,1
8.44959,0.662,-0.045,-0.085,127.441,130.249,19.165,1
8.45831,0.667,-0.033,-0.092,148.254,129.76,21.85,1
8.463834,0.651,-0.033,-0.094,164.978,130.493,24.108,1
8.472364,0.634,-0.036,-0.107,181.457,131.774,28.015,1
8.481751,0.644,-0.044,-0.116,192.443,133.85,32.531,1
8.488594,0.655,-0.043,-0.126,198.73,136.657,37.78,1
8.497704,0.658,-0.037,-0.135,200.866,138.977,43.151,1
8.505911,0.64,-0.034,-0.15,202.331,140.869,48.583,1
8.514199,0.608,-0.022,-0.159,204.467,142.333,52.551,1
8.521957,0.584,-0.004,-0.18,207.885,143.615,57.373,1
8.529614,0.554,0.007,-0.195,212.097,144.287,61.401,1
8.537345,0.527,0.021,-0.222,217.895,144.104,66.711,1
8.546727,0.659,0.228,-0.27,219.299,145.751,72.143,1
8.555295,0.53,0.157,-0.301,212.768,143.31,75.744,1
8.563286,0.633,0.433,-0.386,201.782,149.23,79.711,1
8.570865,0.539,0.447,-0.398,182.922,146.362,81.665,1
8.577978,0.467,0.447,-0.414,176.818,151.0,83.74,1
8.587496,0.358,0.45,-0.395,172.485,148.01,84.899,1
8.59489,0.253,0.46,-0.386,179.809,150.39,86.73,1
8.603032,0.176,0.502,-0.347,187.927,148.254,87.707,1
8.609604,0.145,0.554,-0.349,199.096,149.292,89.233,1
8.618547,0.138,0.682,-0.314,204.895,146.972,90.332,1
8.627423,0.116,0.799,-0.29,211.425,148.254,91.125,1
8.636829,0.036,0.912,-0.204,212.707,147.827,91.308,1
8.64427,-0.03,0.979,-0.164,210.815,149.78,91.43,1
8.651349,-0.106,1.083,-0.08,201.721,152.038,90.881,1
8.658097,-0.137,1.189,-0.015,190.307,156.066,90.27,1
8.666488,-0.172,1.313,0.077,178.955,158.935,88.684,1
8.673505,-0.142,1.5,0.194,168.762,164.978,85.876,1
8.682403,-0.058,1.665,0.257,157.653,171.142,81.237,1
8.691017,0.038,1.854,0.254,146.362,179.077,74.951,1
8.69859,0.082,2.057,0.135,135.559,185.363,68.481,1
8.707602,0.133,2.242,-0.08,129.821,190.612,61.035,1
8.716793,0.137,2.413,-0.271,130.31,193.847,51.635,1
8.723496,0.05,2.387,-0.52,125.427,198.425,42.541,1
8.730835,-0.021,2.176,-0.775,91.125,202.636,31.921,1
8.739652,-0.069,1.952,-0.953,48.95,207.214,23.498,1
8.748324,-0.08,1.769,-1.152,12.023,210.998,15.258,1
8.755247,-0.093,1.653,-1.371,-9.155,211.12,7.446,1
8.76325,-0.121,1.647,-1.542,-4.882,207.641,-1.708,1
8.772907,-0.153,1.628,-1.618,23.193,199.157,-9.46,1
8.781794,-0.178,1.592,-1.608,59.692,190.734,-15.502,1
8.78902,-0.167,1.553,-1.573,106.567,179.626,-20.629,1
8.79627,-0.125,1.535,-1.489,148.925,169.86,-23.681,1
8.805435,-0.119,1.528,-1.402,172.973,162.902,-25.207,1
8.813789,-0.147,1.53,-1.321,180.358,158.752,-26.489,1
8.82251,-0.149,1.513,-1.291,169.494,155.578,-28.625,1
8.829045,-0.132,1.542,-1.251,151.855,152.038,-31.127,1
8.83809,-0.089,1.487,-1.291,140.38,149.658,-33.752,1
8.846081,-0.067,1.397,-1.349,129.76,144.775,-35.827,1
8.85501,-0.063,1.322,-1.367,128.356,139.038,-37.658,1
8.862744,-0.054,1.246,-1.385,129.699,132.69,-38.33,1
8.869695,-0.026,1.164,-1.335,131.469,126.281,-38.757,1
8.878554,-0.047,1.056,-1.299,128.906,119.934,-38.208,1
8.885693,-0.071,1.02,-1.224,123.657,114.318,-37.231,1
8.893318,-0.062,1.021,-1.168,121.704,109.619,-36.437,1
8.901359,-0.079,1.051,-1.125,121.643,104.187,-35.522,1
8.909918,-0.05,0.994,-1.104,121.826,99.426,-34.606,1
8.918942,-0.038,1.006,-1.094,118.652,94.604,-33.63,1
8.926465,0.002,0.996,-1.12,111.511,89.721,-32.714,1
8.935175,0.027,0.979,-1.137,101.135,85.815,-32.409,1
8.943239,0.058,0.947,-1.138,85.205,81.604,-31.372,1
8.950273,0.066,0.901,-1.132,63.781,77.514,-30.517,1
8.958847,0.067,0.859,-1.109,44.006,74.279,-29.602,1
8.966401,0.061,0.858,-1.078,26.611,70.922,-28.32,1
8.973898,0.067,0.884,-1.032,14.465,67.138,-27.587,1
8.983235,0.083,0.899,-1.006,6.286,62.805,-26.55,1
8.991765,0.112,0.957,-0.975,0.488,57.556,-25.451,1
9.000632,0.134,0.98,-0.973,2.075,52.856,-25.573,1
9.008063,0.125,0.976,-0.966,7.019,45.898,-25.512,1
9.016909,0.123,0.944,-0.96,11.169,39.489,-25.39,1
9.023505,0.105,0.919,-0.954,12.817,33.569,-24.719,1
9.033167,0.086,0.896,-0.931,13.122,27.221,-24.047,1
9.039979,0.07,0.886,-0.909,12.695,22.277,-23.315,1
9.047524,0.06,0.886,-0.877,10.925,17.395,-22.705,1
9.055113,0.059,0.883,-0.837,9.216,13.183,-22.583,1
9.062262,0.052,0.869,-0.808,6.408,10.009,-22.033,1
9.071509,0.097,0.892,-0.756,4.333,7.202,-22.155,1
9.079956,0.163,0.966,-0.705,7.995,4.272,-23.376,1
9.087722,0.243,1.029,-0.653,19.287,1.525,-25.512,1
9.094844,0.26,1.068,-0.609,38.696,-1.586,-28.381,1
9.10425,0.251,1.061,-0.568,55.236,-3.234,-30.761,1
9.112442,0.206,0.994,-0.552,67.687,-4.516,-32.165,1
9.120768,0.193,0.958,-0.561,70.251,-5.432,-32.836,1
9.129424,0.199,0.916,-0.583,66.65,-5.493,-32.287,1
9.137152,0.217,0.909,-0.598,60.18,-5.798,-31.433,1
9.145754,0.261,0.92,-0.611,52.856,-6.103,-30.578,1
9.153852,0.305,0.942,-0.625,47.485,-6.164,-30.029,1
9.160567,0.319,0.98,-0.618,41.992,-5.31,-29.663,1
9.169347,0.327,1.046,-0.611,36.804,-3.967,-29.541,1
9.176319,0.341,1.107,-0.624,29.235,-3.051,-29.663,1
9.184723,0.343,1.173,-0.651,17.7,-3.173,-30.395,1
9.193691,0.352,1.261,-0.639,6.347,-3.845,-31.738,1
9.199941,0.376,1.343,-0.661,2.624,-4.699,-33.63,1
9.209329,0.425,1.409,-0.68,3.967,-6.469,-35.888,1
9.216884,0.477,1.468,-0.696,9.826,-8.117,-38.696,1
9.223496,0.534,1.504,-0.719,14.892,-9.582,-41.748,1
9.232943,0.555,1.524,-0.749,16.967,-10.62,-45.471,1
9.239805,0.574,1.551,-0.769,12.634,-11.779,-49.072,1
9.248986,0.584,1.534,-0.77,1.892,-11.535,-52.307,1
9.255992,0.594,1.561,-0.75,-15.747,-12.023,-56.579,1
9.265114,0.576,1.587,-0.68,-25.878,-11.596,-60.241,1
9.272247,0.597,1.596,-0.662,-34.912,-11.474,-64.27,1
9.28144,0.603,1.595,-0.627,-44.006,-12.268,-69.274,1
9.288924,0.625,1.604,-0.593,-47.607,-13.183,-74.401,1
9.297516,0.632,1.615,-0.56,-42.785,-15.075,-78.796,1
9.305393,0.634,1.597,-0.521,-35.156,-17.517,-82.763,1
9.313025,0.634,1.609,-0.388,-15.258,-19.47,-88.073,1
9.322488,0.691,1.455,-0.326,0.549,-21.423,-92.712,1
9.330116,0.649,1.315,-0.254,6.835,-20.629,-96.618,1
9.339429,0.628,1.25,-0.217,4.638,-20.69,-98.999,1
9.34647,0.61,1.274,-0.127,5.493,-18.554,-102.111,1
9.354218,0.638,1.18,-0.107,1.159,-17.15,-104.187,1
9.363366,0.65,1.15,-0.044,-1.892,-14.404,-107.238,1
9.37064,0.696,0.981,-0.131,-14.465,-11.596,-108.703,1
9.380078,0.675,0.882,-0.128,-29.968,-10.07,-109.008,1
9.387295,0.663,0.826,-0.151,-34.179,-9.643,-108.642,1
9.395415,0.636,0.858,-0.125,-26.977,-9.887,-108.154,1
9.4037,0.632,0.925,-0.148,-13.732,-11.169,-108.947,1
9.411681,0.602,0.986,-0.131,-2.502,-11.596,-109.924,1
9.419646,0.603,1.027,-0.144,5.615,-12.695,-111.877,1
9.427733,0.582,1.057,-0.134,8.544,-12.634,-113.525,1
9.437231,0.571,1.088,-0.141,7.019,-13.0,-115.6,1
9.446473,0.542,1.132,-0.128,0.0,-12.573,-118.835,1
9.455646,0.521,1.158,-0.129,-8.666,-12.573,-121.826,1
9.463074,0.529,1.192,-0.114,-14.465,-12.512,-124.206,1
9.472008,0.516,1.218,-0.11,-12.878,-13.793,-127.502,1
9.479697,0.522,1.187,-0.134,-11.047,-15.563,-129.943,1
9.489493,0.56,1.155,-0.124,-10.559,-18.005,-132.202,1
9.49721,0.552,1.107,-0.131,-6.103,-20.507,-133.361,1
9.505025,0.571,1.119,-0.106,1.281,-22.766,-135.437,1
9.51257,0.517,1.031,-0.107,5.92,-24.169,-135.681,1
9.522067,0.503,0.959,-0.102,9.155,-25.695,-135.742,1
9.531549,0.48,0.864,-0.081,11.596,-26.489,-135.314,1
9.537743,0.502,0.833,-0.072,12.145,-27.038,-135.62,1
9.5455,0.457,0.744,-0.025,-1.037,-26.367,-134.033,1
9.554786,0.413,0.699,-0.119,-12.695,-24.78,-132.568,1
9.56258,0.433,0.666,-0.018,-28.93,-23.559,-131.591,1
9.571216,0.418,0.63,-0.106,-43.029,-21.85,-129.211,1
9.579495,0.416,0.592,-0.091,-56.701,-21.362,-127.075,1
9.587686,0.433,0.569,-0.093,-68.115,-22.766,-124.694,1
9.595544,0.417,0.565,-0.081,-73.242,-22.583,-122.375,1
9.604538,0.281,0.601,-0.111,-73.913,-23.132,-118.896,1
9.612331,0.375,0.585,-0.109,-62.194,-25.695,-118.286,1
9.619574,0.357,0.571,-0.119,-59.631,-25.024,-115.112,1
9.62836,0.372,0.57,-0.168,-61.523,-26.123,-112.548,1
9.637915,0.37,0.597,-0.169,-54.504,-27.099,-111.755,1
9.646691,0.304,0.642,-0.195,-45.043,-29.907,-110.473,1
9.654104,0.276,0.658,-0.193,-18.798,-32.714,-110.229,1
9.662242,0.293,0.667,-0.189,10.131,-35.4,-109.924,1
9.670636,0.323,0.621,-0.228,48.034,-39.245,-110.046,1
9.67892,0.336,0.586,-0.216,72.204,-39.428,-109.069,1
9.686709,0.32,0.568,-0.281,82.519,-38.635,-109.008,1
9.693496,0.316,0.537,-0.306,75.317,-33.813,-109.741,1
9.700537,0.336,0.498,-0.352,54.199,-30.7,-110.778,1
9.708084,0.334,0.474,-0.35,23.864,-26.55,-112.487,1
9.715893,0.318,0.47,-0.351,0.488,-22.399,-114.379,1
9.724771,0.339,0.448,-0.333,-12.329,-19.165,-117.126,1
9.732314,0.387,0.43,-0.335,-15.563,-16.601,-119.445,1
9.74088,0.422,0.41,-0.3,-8.85,-16.54,-121.032,1
9.749568,0.438,0.38,-0.263,6.53,-17.395,-122.558,1
9.756025,0.438,0.339,-0.204,33.325,-18.554,-123.352,1
9.766613,0.457,0.29,-0.169,57.922,-19.531,-123.168,1
9.774588,0.488,0.256,-0.115,88.867,-19.287,-122.192,1
9.78162,0.466,0.218,-0.109,106.323,-18.127,-121.276,1
9.790138,0.443,0.197,-0.089,116.21,-16.906,-120.117,1
9.797307,0.445,0.173,-0.089,121.093,-14.648,-118.957,1
9.805785,0.459,0.151,-0.077,120.666,-12.451,-117.858,1
9.814071,0.49,0.129,-0.078,117.98,-10.437,-116.821,1
9.821597,0.515,0.112,-0.067,116.149,-8.3,-115.661,1
9.828087,0.535,0.086,-0.059,113.647,-5.554,-114.685,1
9.836737,0.532,0.056,-0.042,111.328,-3.295,-113.769,1
9.845386,0.52,0.023,-0.035,106.262,-0.366,-112.976,1
9.853218,0.537,-0.011,-0.006,99.487,3.356,-111.572,1
9.8608,0.585,-0.046,0.01,90.942,9.155,-109.069,1
9.868149,0.628,-0.079,0.014,81.359,15.197,-106.628,1
9.876931,0.658,-0.12,0.016,71.044,21.118,-103.515,1
9.884609,0.699,-0.152,0.0,57.983,27.465,-99.731,1
9.892479,0.74,-0.167,-0.036,44.555,32.47,-96.069,1
9.899411,0.757,-0.162,-0.066,31.127,37.963,-91.613,1
9.907746,0.767,-0.155,-0.102,24.047,40.527,-88.806,1
9.915689,0.791,-0.153,-0.122,18.981,43.151,-85.754,1
9.9242,0.799,-0.161,-0.168,15.869,45.471,-83.068,1
9.93208,0.766,-0.171,-0.194,14.526,47.607,-80.871,1
9.939324,0.708,-0.199,-0.235,9.582,50.537,-78.552,1
9.948461,0.684,-0.226,-0.262,3.356,52.795,-75.927,1
9.956565,0.682,-0.25,-0.299,-5.432,54.748,-73.303,1
9.964121,0.699,-0.288,-0.345,-14.099,57.128,-69.58,1
9.973202,0.71,-0.326,-0.4,-26.306,57.434,-65.917,1
9.980633,0.723,-0.338,-0.436,-34.362,58.166,-63.049,1
9.988463,0.716,-0.336,-0.468,-36.315,56.701,-59.326,1
9.997422,0.719,-0.333,-0.496,-30.151,55.053,-56.091,1
