timestamp_s,ax,ay,az,gx,gy,gz,label
0.006206,0.857,0.534,-0.113,-86.486,-34.851,-59.814,1
0.014003,0.844,0.52,-0.096,-88.256,-34.729,-59.753,1
0.021934,0.835,0.487,-0.078,-94.299,-33.752,-59.387,1
0.030165,0.835,0.442,-0.055,-105.468,-32.897,-58.41,1
0.036721,0.863,0.407,-0.006,-123.901,-30.456,-56.457,1
0.044323,0.921,0.409,0.025,-141.357,-28.381,-55.236,1
0.051869,0.903,0.428,0.074,-149.597,-27.526,-54.382,1
0.059665,0.885,0.439,0.114,-145.446,-26.367,-54.016,1
0.068447,0.872,0.443,0.152,-134.216,-26.123,-53.527,1
0.075774,0.844,0.421,0.173,-122.253,-25.39,-53.771,1
0.082447,0.821,0.383,0.196,-113.708,-24.353,-54.199,1
0.090561,0.833,0.317,0.226,-115.234,-22.338,-54.565,1
0.099056,0.855,0.247,0.25,-129.333,-19.104,-54.321,1
0.105771,0.903,0.18,0.282,-151.0,-14.77,-53.405,1
0.11443,0.947,0.145,0.303,-171.813,-11.169,-52.307,1
0.121085,0.991,0.118,0.327,-187.133,-7.446,-49.865,1
0.12916,1.041,0.118,0.357,-189.819,-4.699,-47.485,1
0.13735,1.044,0.138,0.389,-181.274,-2.136,-44.982,1
0.144284,1.032,0.149,0.411,-165.222,-0.427,-43.212,1
0.152014,1.001,0.165,0.427,-146.118,1.342,-42.053,1
0.160362,0.957,0.174,0.442,-128.601,2.99,-41.198,1
0.167026,0.893,0.172,0.435,-112.487,5.126,-40.832,1
0.174005,0.845,0.161,0.407,-100.219,6.958,-40.893,1
0.182369,0.809,0.136,0.38,-91.674,9.094,-40.466,1
0.189303,0.795,0.113,0.34,-85.083,10.07,-40.344,1
0.197557,0.789,0.095,0.306,-75.378,12.39,-39.55,1
0.20413,0.785,0.083,0.258,-65.551,13.427,-39.184,1
0.211111,0.768,0.072,0.224,-56.213,14.221,-38.452,1
0.21883,0.758,0.066,0.167,-46.691,14.648,-37.78,1
0.225749,0.749,0.047,0.131,-40.161,15.075,-37.048,1
0.233883,0.738,0.037,0.081,-36.743,15.441,-36.132,1
0.24049,0.742,0.028,0.041,-33.081,15.319,-35.095,1
0.247684,0.762,0.02,-0.023,-27.954,15.136,-33.325,1
0.255404,0.785,0.017,-0.085,-21.545,14.038,-31.86,1
0.263198,0.806,0.015,-0.137,-15.93,12.634,-30.029,1
0.269793,0.789,0.014,-0.189,-13.0,11.23,-28.442,1
0.276872,0.803,0.027,-0.214,-6.469,9.704,-25.878,1
0.284733,0.832,0.028,-0.267,-3.479,8.789,-24.108,1
0.292673,0.875,0.041,-0.322,-9.887,8.239,-23.193,1
0.299132,0.849,0.073,-0.374,-20.629,6.713,-23.559,1
0.307094,0.805,0.104,-0.425,-26.916,4.821,-23.62,1
0.314918,0.829,0.12,-0.465,-28.93,2.014,-23.498,1
0.321459,0.918,0.107,-0.523,-27.832,-1.586,-23.864,1
0.328781,0.881,0.1,-0.554,-26.0,-6.164,-24.536,1
0.336697,0.9,0.082,-0.59,-22.705,-10.375,-25.085,1
0.344432,0.925,0.055,-0.606,-20.08,-14.587,-24.841,1
0.351541,0.947,0.035,-0.618,-19.226,-18.92,-24.719,1
0.35994,0.971,0.025,-0.607,-20.751,-22.888,-24.963,1
0.367051,0.97,0.024,-0.597,-23.864,-26.367,-25.268,1
0.375156,0.966,0.021,-0.561,-26.245,-29.418,-25.756,1
0.38227,0.983,0.021,-0.535,-29.174,-32.226,-26.306,1
0.390842,0.995,0.027,-0.496,-28.686,-35.278,-26.916,1
0.397606,0.978,0.02,-0.463,-25.939,-38.452,-27.832,1
0.405802,1.018,0.01,-0.418,-22.888,-42.114,-28.381,1
0.413428,1.011,0.005,-0.372,-17.333,-44.982,-29.357,1
0.421541,0.985,-0.029,-0.328,-14.77,-48.156,-29.846,1
0.429845,0.989,-0.074,-0.288,-21.911,-48.889,-29.602,1
0.438503,0.996,-0.098,-0.221,-33.63,-49.621,-28.808,1
0.445416,1.012,-0.12,-0.167,-42.114,-49.56,-27.893,1
0.453562,0.978,-0.146,-0.109,-48.156,-50.048,-27.587,1
0.461928,0.951,-0.191,-0.051,-54.992,-48.828,-26.489,1
0.468854,0.952,-0.218,0.015,-64.025,-49.926,-25.573,1
0.477114,0.941,-0.236,0.088,-62.499,-49.011,-24.414,1
0.485539,0.903,-0.261,0.16,-59.143,-49.865,-23.376,1
0.492545,0.867,-0.3,0.24,-55.053,-48.217,-21.85,1
0.500955,0.832,-0.331,0.304,-55.297,-47.119,-20.08,1
0.509356,0.779,-0.354,0.381,-53.527,-44.189,-18.493,1
0.51712,0.743,-0.376,0.422,-55.419,-41.625,-16.784,1
0.525503,0.753,-0.376,0.503,-49.926,-39.306,-15.502,1
0.533803,0.731,-0.381,0.566,-36.01,-38.208,-14.282,1
0.540307,0.708,-0.384,0.655,-14.831,-36.254,-13.366,1
0.548896,0.71,-0.403,0.745,5.92,-33.386,-11.779,1
0.556306,0.715,-0.439,0.838,20.874,-28.991,-9.338,1
0.564265,0.769,-0.46,0.954,36.682,-24.108,-5.92,1
0.572394,0.837,-0.48,1.049,57.006,-18.31,-2.197,1
0.5789,0.97,-0.5,1.097,70.678,-10.07,2.746,1
0.587766,1.067,-0.506,1.174,79.589,-1.22,7.812,1
0.594116,1.128,-0.504,1.198,84.106,6.103,12.573,1
0.601979,1.199,-0.458,1.234,87.768,15.441,18.493,1
0.608943,1.301,-0.408,1.198,88.989,24.841,24.597,1
0.615522,1.373,-0.335,1.163,87.341,33.935,30.456,1
0.623273,1.411,-0.238,1.076,86.914,42.053,35.949,1
0.631633,1.373,-0.117,0.995,89.05,48.278,39.855,1
0.638373,1.329,-0.008,0.887,93.994,54.321,43.151,1
0.645965,1.277,0.08,0.779,93.078,58.044,45.043,1
0.652511,1.225,0.156,0.683,82.702,64.392,46.691,1
0.659721,1.168,0.242,0.548,63.659,68.969,46.936,1
0.668199,1.101,0.347,0.42,46.264,73.913,46.081,1
0.675326,1.03,0.45,0.27,34.057,75.988,43.884,1
0.683474,0.966,0.553,0.143,30.517,76.965,40.588,1
0.690778,0.905,0.657,0.015,33.325,76.477,37.048,1
0.697739,0.839,0.75,-0.119,39.916,75.683,33.081,1
0.705912,0.761,0.838,-0.279,43.212,74.829,28.137,1
0.712773,0.72,0.916,-0.461,39.733,73.181,23.01,1
0.720405,0.71,0.992,-0.651,27.526,72.082,16.906,1
0.727375,0.718,1.069,-0.829,12.817,70.678,11.779,1
0.735398,0.736,1.163,-1.07,-7.385,68.115,5.004,1
0.742149,0.792,1.251,-1.312,-30.273,63.659,-2.746,1
0.750398,0.867,1.338,-1.529,-49.621,57.8,-11.657,1
0.758603,0.955,1.395,-1.74,-61.767,49.377,-20.935,1
0.767067,1.022,1.425,-1.927,-66.833,38.818,-30.761,1
0.773564,1.075,1.394,-2.107,-70.739,26.55,-40.1,1
0.781884,1.095,1.351,-2.222,-78.918,11.779,-50.476,1
0.789799,1.123,1.285,-2.308,-86.364,-2.014,-59.448,1
0.796411,1.164,1.22,-2.319,-86.547,-16.845,-67.504,1
0.804065,1.228,1.136,-2.3,-76.843,-32.714,-74.707,1
0.812431,1.285,1.041,-2.246,-67.81,-47.851,-81.542,1
0.820719,1.307,0.971,-2.139,-61.34,-62.866,-87.524,1
0.827706,1.273,0.894,-1.98,-52.001,-78.552,-94.177,1
0.836374,1.23,0.803,-1.843,-48.4,-90.82,-99.609,1
0.843498,1.192,0.722,-1.685,-52.124,-100.769,-104.064,1
0.853243,1.152,0.668,-1.528,-57.006,-109.863,-107.971,1
0.859995,1.099,0.63,-1.333,-57.556,-120.178,-112.548,1
0.869682,1.052,0.611,-1.141,-54.809,-128.051,-116.577,1
0.876097,0.971,0.599,-0.885,-53.1,-135.314,-121.154,1
0.885053,0.869,0.589,-0.672,-54.992,-139.526,-125.671,1
0.893269,0.771,0.589,-0.451,-56.274,-143.066,-130.676,1
0.901645,0.685,0.551,-0.189,-49.621,-145.812,-135.803,1
0.909944,0.588,0.478,0.054,-38.574,-147.338,-141.723,1
0.916291,0.429,0.385,0.31,-31.616,-146.484,-146.301,1
0.925374,0.355,0.267,0.522,-25.878,-143.554,-150.878,1
0.933484,0.321,0.12,0.721,-27.832,-138.122,-153.747,1
0.939555,0.305,-0.016,0.883,-39.855,-131.042,-155.273,1
0.947848,0.309,-0.154,1.033,-53.222,-123.352,-155.456,1
0.956265,0.302,-0.27,1.151,-55.969,-116.394,-153.991,1
0.963208,0.331,-0.414,1.276,-48.4,-110.412,-152.038,1
0.972867,0.322,-0.54,1.386,-37.78,-101.44,-147.949,1
0.980327,0.33,-0.653,1.432,-32.104,-93.566,-143.737,1
0.986892,0.31,-0.802,1.46,-31.616,-83.984,-137.634,1
0.995371,0.335,-0.897,1.461,-26.062,-76.354,-131.591,1
1.003676,0.324,-0.987,1.459,-17.456,-68.603,-125.305,1
1.010539,0.322,-1.08,1.44,-8.3,-60.974,-118.591,1
1.019047,0.318,-1.166,1.412,-1.159,-52.917,-111.511,1
1.027737,0.312,-1.251,1.336,-1.647,-43.945,-104.064,1
1.034212,0.297,-1.293,1.263,-7.934,-33.02,-95.764,1
1.042511,0.27,-1.296,1.184,-10.131,-24.902,-88.928,1
1.049339,0.274,-1.287,1.124,-2.929,-17.456,-82.824,1
1.057381,0.257,-1.291,1.053,3.723,-9.582,-77.026,1
1.065743,0.247,-1.276,0.962,-0.122,-1.342,-71.838,1
1.07406,0.268,-1.238,0.863,-3.112,7.568,-67.26,1
1.081002,0.284,-1.209,0.79,0.183,13.916,-63.415,1
1.089327,0.301,-1.213,0.692,-3.479,20.324,-60.241,1
1.097751,0.337,-1.219,0.593,-11.474,25.878,-57.006,1
1.104593,0.399,-1.217,0.481,-16.052,30.395,-53.466,1
1.113093,0.462,-1.198,0.39,-14.648,33.447,-49.743,1
1.12093,0.508,-1.182,0.316,-11.596,35.583,-45.959,1
1.127942,0.54,-1.15,0.252,-13.61,37.475,-42.785,1
1.136373,0.603,-1.089,0.207,-15.197,39.184,-39.611,1
1.145379,0.64,-0.989,0.165,-13.0,40.649,-36.743,1
1.151871,0.634,-0.906,0.149,-11.962,40.832,-35.034,1
1.159591,0.624,-0.839,0.158,-10.742,41.687,-33.996,1
1.16826,0.633,-0.818,0.127,-11.596,42.541,-32.714,1
1.175139,0.638,-0.791,0.083,-18.981,44.067,-31.616,1
1.182532,0.625,-0.749,0.047,-24.475,44.189,-31.311,1
1.190661,0.607,-0.713,0.005,-23.681,43.64,-31.188,1
1.199269,0.618,-0.707,-0.049,-23.803,41.748,-31.188,1
1.207294,0.654,-0.685,-0.06,-23.62,39.428,-30.944,1
1.215134,0.662,-0.642,-0.048,-20.324,37.475,-30.883,1
1.222795,0.651,-0.591,-0.036,-19.47,35.522,-31.494,1
1.23082,0.643,-0.529,-0.005,-20.69,34.667,-32.287,1
1.23736,0.628,-0.467,0.021,-20.141,33.447,-33.142,1
1.245812,0.604,-0.419,0.029,-21.24,32.775,-34.851,1
1.253333,0.583,-0.38,0.033,-24.23,31.921,-37.048,1
1.261416,0.579,-0.346,0.038,-26.916,31.738,-39.245,1
1.268005,0.572,-0.303,0.027,-28.991,31.005,-41.748,1
1.275494,0.553,-0.26,0.025,-29.357,29.296,-44.982,1
1.284273,0.511,-0.237,0.031,-29.663,27.893,-48.278,1
1.290833,0.492,-0.224,0.049,-32.348,26.489,-52.185,1
1.299548,0.434,-0.2,0.067,-36.315,25.512,-55.847,1
1.307914,0.338,-0.178,0.075,-39.001,24.047,-60.607,1
1.315822,0.29,-0.175,0.063,-40.283,22.216,-66.284,1
1.323672,0.262,-0.198,0.03,-40.466,19.714,-70.617,1
1.330179,0.176,-0.24,-0.015,-45.043,16.601,-75.012,1
1.338016,0.084,-0.305,-0.046,-63.964,13.732,-78.918,1
1.346784,0.096,-0.366,-0.127,-80.993,12.145,-82.397,1
1.354838,0.06,-0.393,-0.185,-90.82,6.164,-85.937,1
1.363124,-0.039,-0.438,-0.236,-90.27,-1.647,-89.05,1
1.371106,-0.134,-0.534,-0.316,-84.472,-9.399,-90.515,1
1.379016,-0.273,-0.611,-0.376,-78.735,-19.042,-91.186,1
1.386274,-0.385,-0.701,-0.438,-75.866,-28.32,-91.613,1
1.394644,-0.466,-0.86,-0.503,-77.209,-38.33,-90.576,1
1.402535,-0.52,-1.068,-0.573,-74.829,-49.987,-88.134,1
1.410655,-0.563,-1.231,-0.628,-59.326,-65.856,-82.763,1
1.417691,-0.657,-1.432,-0.68,-40.405,-82.153,-76.904,1
1.426003,-0.748,-1.67,-0.734,-22.399,-98.144,-68.847,1
1.434471,-0.876,-1.993,-0.826,-7.751,-118.591,-55.847,1
1.442876,-0.998,-2.235,-0.862,-0.183,-135.864,-41.809,1
1.450964,-1.184,-2.468,-0.935,29.113,-158.996,-22.033,1
1.459604,-1.287,-2.827,-0.983,39.855,-181.518,-2.746,1
1.467701,-1.467,-3.065,-0.975,34.606,-200.622,19.836,1
1.474091,-1.697,-3.363,-0.948,27.404,-225.341,50.964,1
1.483572,-1.993,-3.554,-0.895,30.395,-247.07,80.505,1
1.490295,-2.391,-3.795,-0.895,25.268,-267.822,113.83,1
1.498776,-2.911,-4.043,-0.851,16.845,-295.349,156.25,1
1.506534,-3.544,-4.229,-0.774,-2.624,-317.199,196.899,1
1.514627,-4.084,-4.319,-0.681,-17.333,-339.843,241.821,1
1.522633,-5.118,-4.444,-0.566,-26.0,-365.661,290.527,1
1.530991,-6.081,-4.45,-0.427,-24.841,-392.395,352.539,1
1.537557,-7.273,-4.483,-0.245,-6.896,-422.363,407.958,1
1.547285,-8.646,-4.5,-0.055,-14.16,-446.655,466.613,1
1.555025,-10.384,-4.306,0.302,-33.569,-474.487,539.062,1
1.56326,-12.39,-4.127,0.747,-14.099,-500.793,615.6,1
1.571297,-14.295,-4.026,1.137,-11.596,-520.629,683.41,1
1.578403,-15.999,-3.876,1.564,-31.799,-529.846,755.248,1
1.58599,-15.999,-3.625,2.071,-66.833,-531.921,832.153,1
1.594314,-15.999,-3.28,2.593,-123.291,-512.878,930.236,1
1.602336,-15.999,-2.839,3.064,-187.622,-480.163,1021.85,1
1.61069,-15.999,-2.18,3.572,-241.821,-426.818,1117.614,1
1.617696,-15.999,-1.327,3.912,-287.231,-355.957,1213.928,1
1.625872,-15.999,-0.047,4.068,-335.815,-267.089,1305.602,1
1.633494,-15.999,1.296,4.053,-368.041,-146.301,1398.864,1
1.64212,-15.999,2.675,3.885,-370.605,-34.179,1463.439,1
1.650368,-15.999,4.02,3.55,-383.544,82.458,1510.62,1
1.658119,-15.999,5.23,3.161,-393.798,207.031,1539.855,1
1.664648,-15.999,5.986,2.577,-443.786,353.82,1556.457,1
1.672587,-15.999,6.376,2.086,-539.123,503.906,1558.288,1
1.68055,-15.999,6.486,1.233,-666.931,672.973,1543.456,1
1.688134,-15.999,6.665,0.195,-806.823,864.807,1507.507,1
1.696494,-15.999,7.125,-1.008,-923.339,1056.091,1435.729,1
1.702766,-15.999,7.041,-2.415,-1006.042,1245.239,1334.228,1
1.711275,-15.999,7.128,-4.096,-1182.983,1394.348,1173.889,1
1.717988,-15.999,6.696,-5.527,-1452.88,1557.006,947.753,1
1.726097,-15.999,5.855,-7.638,-1777.038,1681.518,636.474,1
1.734546,-15.999,5.551,-8.369,-1957.275,1739.196,250.183,1
1.741549,-15.999,4.273,-8.488,-1974.548,1695.19,-153.015,1
1.750003,-15.999,2.708,-6.388,-1784.362,1524.23,-505.187,1
1.758713,-15.999,1.996,-4.702,-1213.623,1307.067,-759.826,1
1.765685,-15.999,1.038,-4.435,-748.596,1097.473,-855.895,1
1.773632,-15.999,0.136,-3.943,-405.09,953.308,-878.295,1
1.782561,-15.999,-0.656,-4.059,-196.411,842.59,-862.548,1
1.789145,-15.999,-1.323,-4.184,-134.582,755.615,-828.735,1
1.797621,-15.999,-1.852,-4.332,-211.608,683.349,-800.72,1
1.804851,-15.999,-2.105,-3.93,-347.045,619.689,-781.188,1
1.812759,-15.031,-2.235,-3.615,-458.19,536.01,-763.366,1
1.822614,-12.915,-2.223,-3.229,-491.332,453.002,-745.056,1
1.829017,-11.338,-2.254,-2.945,-472.839,373.657,-717.712,1
1.838543,-9.705,-2.056,-2.556,-401.184,279.968,-677.123,1
1.844762,-8.464,-1.86,-2.16,-302.856,214.599,-637.939,1
1.85288,-7.349,-1.695,-1.876,-218.811,160.522,-597.168,1
1.861108,-6.434,-1.556,-1.623,-173.95,121.459,-557.678,1
1.868751,-5.591,-1.308,-1.382,-160.827,83.984,-515.869,1
1.87723,-5.226,-1.053,-1.196,-153.442,59.082,-482.36,1
1.884128,-4.767,-0.816,-1.073,-137.878,31.188,-452.026,1
1.892918,-4.489,-0.608,-0.921,-105.529,11.657,-423.522,1
1.900318,-4.218,-0.514,-0.925,-81.054,-10.131,-392.272,1
1.908277,-3.906,-0.448,-0.872,-69.03,-23.315,-367.004,1
1.917648,-3.591,-0.387,-0.853,-61.401,-35.461,-342.956,1
1.926012,-3.351,-0.347,-0.791,-47.973,-46.142,-316.833,1
1.932695,-3.101,-0.333,-0.766,-40.344,-52.49,-296.325,1
1.941595,-2.943,-0.336,-0.721,-43.334,-57.128,-273.864,1
1.948613,-2.763,-0.352,-0.7,-51.696,-59.02,-255.859,1
1.956605,-2.58,-0.376,-0.674,-60.913,-59.753,-238.525,1
1.964612,-2.303,-0.408,-0.663,-73.425,-60.729,-218.566,1
1.972536,-2.048,-0.393,-0.648,-77.758,-61.279,-202.148,1
1.981298,-1.875,-0.389,-0.647,-75.561,-62.255,-185.913,1
1.988001,-1.763,-0.406,-0.664,-72.509,-62.683,-170.593,1
1.996074,-1.615,-0.446,-0.682,-73.791,-63.293,-156.188,1
2.003862,-1.476,-0.486,-0.687,-78.002,-63.293,-140.38,1
2.012303,-1.4,-0.519,-0.686,-82.275,-62.622,-128.051,1
2.020621,-1.284,-0.551,-0.676,-83.374,-62.805,-116.271,1
2.029425,-1.178,-0.555,-0.677,-73.181,-62.622,-103.027,1
2.03747,-1.089,-0.558,-0.708,-56.457,-64.331,-93.2,1
2.045309,-1.053,-0.562,-0.725,-32.409,-65.673,-82.763,1
2.053653,-0.932,-0.616,-0.762,-17.089,-66.894,-75.378,1
2.062432,-0.855,-0.642,-0.77,-10.192,-66.894,-67.077,1
2.069148,-0.754,-0.669,-0.785,-9.277,-67.626,-60.729,1
2.077835,-0.629,-0.709,-0.76,-9.826,-67.749,-54.443,1
2.086473,-0.497,-0.741,-0.75,-11.352,-67.932,-47.18,1
2.093942,-0.342,-0.754,-0.723,-8.056,-68.786,-41.076,1
2.102313,-0.283,-0.767,-0.704,0.366,-70.373,-33.874,1
2.10955,-0.219,-0.785,-0.684,9.338,-71.35,-27.954,1
2.117892,-0.136,-0.806,-0.679,12.756,-71.35,-21.179,1
2.126274,-0.099,-0.796,-0.68,10.498,-70.556,-15.38,1
2.134118,-0.083,-0.765,-0.673,9.765,-69.458,-9.887,1
2.141066,-0.054,-0.743,-0.666,14.221,-68.908,-4.577,1
2.150275,-0.046,-0.738,-0.651,19.104,-67.81,0.793,1
2.158088,-0.045,-0.76,-0.641,16.113,-65.673,4.76,1
2.165086,-0.038,-0.801,-0.625,2.38,-62.988,9.582,1
2.173356,0.007,-0.812,-0.589,-15.93,-58.776,15.563,1
2.181957,0.095,-0.797,-0.545,-24.047,-55.358,21.118,1
2.19049,0.165,-0.774,-0.506,-23.803,-52.49,26.672,1
2.196992,0.219,-0.776,-0.488,-23.437,-48.156,33.386,1
2.204913,0.225,-0.774,-0.485,-28.686,-44.494,39.672,1
2.213124,0.232,-0.76,-0.481,-38.024,-39.733,45.715,1
2.221514,0.177,-0.717,-0.51,-50.598,-34.851,51.391,1
2.229855,0.16,-0.679,-0.526,-62.683,-30.151,56.823,1
2.237812,0.158,-0.625,-0.552,-74.34,-25.207,62.255,1
2.246452,0.15,-0.578,-0.57,-81.176,-21.545,66.894,1
2.252934,0.127,-0.563,-0.586,-85.754,-18.371,72.143,1
2.261559,0.152,-0.585,-0.592,-93.139,-15.808,77.27,1
2.268428,0.152,-0.585,-0.607,-99.914,-12.634,83.19,1
2.276649,0.156,-0.558,-0.611,-98.876,-10.742,89.05,1
2.284525,0.152,-0.546,-0.623,-88.684,-9.216,95.703,1
2.292851,0.13,-0.561,-0.649,-77.453,-7.69,103.332,1
2.300646,0.084,-0.566,-0.681,-74.401,-5.798,110.717,1
2.30717,0.031,-0.564,-0.733,-76.538,-3.479,117.675,1
2.315794,-0.014,-0.569,-0.796,-82.58,-1.281,123.901,1
2.323667,-0.052,-0.574,-0.864,-92.651,0.732,130.187,1
2.330639,-0.12,-0.585,-0.973,-106.506,1.708,135.986,1
2.339232,-0.227,-0.584,-1.031,-120.727,2.136,143.066,1
2.346711,-0.268,-0.583,-1.081,-124.999,1.464,149.23,1
2.356359,-0.284,-0.582,-1.116,-119.079,-0.183,156.677,1
2.364305,-0.247,-0.563,-1.177,-96.496,-3.417,166.076,1
2.372369,-0.154,-0.546,-1.243,-71.35,-8.911,174.804,1
2.380695,-0.092,-0.524,-1.333,-46.508,-14.953,186.462,1
2.387129,-0.04,-0.513,-1.397,-41.992,-21.362,196.472,1
2.395403,0.002,-0.474,-1.405,-44.067,-26.428,206.848,1
2.403581,-0.054,-0.427,-1.415,-49.743,-31.555,217.285,1
2.412017,-0.082,-0.32,-1.391,-56.762,-37.353,229.919,1
2.419033,-0.083,-0.149,-1.37,-45.166,-41.442,239.135,1
2.427432,-0.097,-0.19,-1.401,-43.701,-49.194,248.291,1
2.435508,-0.14,-0.182,-1.331,-64.025,-54.077,258.972,1
2.442686,-0.231,-0.094,-1.315,-86.791,-56.701,267.15,1
2.451343,-0.406,0.064,-1.264,-105.895,-60.424,274.597,1
2.457854,-0.503,0.232,-1.224,-105.529,-62.194,281.311,1
2.466699,-0.572,0.354,-1.198,-93.444,-66.833,286.438,1
2.4736,-0.628,0.477,-1.14,-72.814,-71.105,290.832,1
2.482751,-0.653,0.558,-1.117,-49.804,-76.965,294.494,1
2.490851,-0.688,0.624,-1.059,-38.146,-80.749,296.691,1
2.497315,-0.723,0.709,-1.018,-36.437,-83.618,298.156,1
2.505879,-0.748,0.805,-0.982,-42.053,-85.876,299.987,1
2.512693,-0.745,0.919,-0.965,-53.222,-86.914,301.147,1
2.520965,-0.733,1.06,-0.962,-68.115,-87.28,301.696,1
2.529594,-0.734,1.219,-0.973,-81.481,-87.585,301.696,1
2.537587,-0.727,1.399,-0.996,-88.867,-88.867,300.72,1
2.544646,-0.743,1.594,-0.99,-86.791,-91.491,299.438,1
2.552365,-0.758,1.755,-1.001,-72.937,-95.581,296.142,1
2.560775,-0.767,1.902,-1.007,-55.603,-100.28,292.236,1
2.567652,-0.757,2.035,-1.045,-39.733,-104.98,287.048,1
2.575688,-0.748,2.163,-1.118,-27.404,-111.389,280.822,1
2.58393,-0.768,2.295,-1.197,-20.812,-117.675,273.559,1
2.592269,-0.789,2.379,-1.247,-19.287,-124.755,265.563,1
2.598864,-0.782,2.426,-1.244,-17.761,-132.08,256.469,1
2.606335,-0.756,2.461,-1.211,-12.207,-139.648,247.375,1
2.614494,-0.733,2.485,-1.136,-0.793,-147.705,237.548,1
2.62251,-0.714,2.472,-1.067,6.774,-157.165,224.975,1
2.630946,-0.677,2.463,-1.007,3.601,-163.574,214.416,1
2.638785,-0.642,2.474,-0.973,-6.164,-169.86,203.735,1
2.646734,-0.654,2.46,-0.916,-21.057,-176.574,191.772,1
2.6536,-0.651,2.435,-0.865,-36.376,-180.603,181.396,1
2.662802,-0.654,2.412,-0.802,-51.94,-183.898,171.508,1
2.669611,-0.627,2.392,-0.723,-58.593,-187.072,162.475,1
2.678112,-0.605,2.346,-0.648,-58.349,-190.063,153.32,1
2.685145,-0.602,2.268,-0.583,-58.837,-192.626,143.31,1
2.69353,-0.599,2.184,-0.512,-65.063,-193.115,134.826,1
2.702262,-0.571,2.1,-0.448,-74.401,-192.565,127.319,1
2.708889,-0.501,2.067,-0.385,-80.749,-191.589,120.91,1
2.717618,-0.413,2.09,-0.335,-76.232,-191.65,114.135,1
2.725676,-0.34,2.093,-0.303,-64.025,-192.81,108.703,1
2.733926,-0.301,2.072,-0.271,-52.124,-193.054,103.149,1
2.740469,-0.239,2.036,-0.235,-44.738,-193.908,97.9,1
2.748714,-0.232,1.975,-0.187,-43.518,-193.481,92.102,1
2.755831,-0.226,1.925,-0.161,-49.194,-192.749,87.524,1
2.764255,-0.225,1.887,-0.108,-60.791,-191.528,83.374,1
2.772078,-0.215,1.856,-0.06,-73.608,-189.758,79.772,1
2.780187,-0.205,1.842,-0.021,-84.472,-188.11,76.354,1
2.78859,-0.212,1.831,0.011,-88.989,-186.279,72.814,1
2.79676,-0.231,1.809,0.028,-89.294,-184.692,68.847,1
2.803168,-0.241,1.789,0.043,-87.158,-182.861,65.002,1
2.811928,-0.206,1.77,0.069,-81.665,-181.335,61.035,1
2.818208,-0.173,1.746,0.087,-74.707,-179.748,57.556,1
2.826148,-0.125,1.717,0.106,-69.702,-177.673,53.71,1
2.833062,-0.059,1.713,0.128,-66.65,-176.086,50.781,1
2.841443,-0.015,1.713,0.15,-64.697,-174.072,48.583,1
2.84825,0.01,1.732,0.167,-62.499,-171.997,45.715,1
2.85536,0.016,1.722,0.184,-62.622,-170.593,43.884,1
2.863213,0.015,1.703,0.202,-69.335,-168.09,41.442,1
2.871185,0.02,1.688,0.212,-80.017,-165.222,39.184,1
2.87792,0.046,1.678,0.234,-86.853,-162.78,37.414,1
2.884695,0.07,1.67,0.248,-86.975,-160.705,35.522,1
2.892693,0.092,1.645,0.252,-83.862,-158.935,33.386,1
2.900881,0.117,1.634,0.258,-80.993,-156.86,31.127,1
2.906842,0.123,1.621,0.253,-79.589,-154.907,28.625,1
2.915337,0.11,1.605,0.25,-80.078,-153.076,26.245,1
2.922289,0.11,1.587,0.24,-82.58,-150.634,22.888,1
2.92892,0.13,1.581,0.231,-85.693,-148.62,20.263,1
2.937594,0.168,1.573,0.229,-87.28,-146.911,17.761,1
2.944833,0.201,1.555,0.22,-87.341,-145.629,15.258,1
2.951613,0.223,1.524,0.202,-88.317,-144.531,12.695,1
2.959619,0.244,1.485,0.182,-91.369,-143.676,11.108,1
2.966796,0.268,1.446,0.168,-97.778,-142.944,8.911,1
2.974898,0.276,1.427,0.167,-101.501,-142.578,7.507,1
2.981499,0.282,1.41,0.164,-100.463,-143.371,6.347,1
2.988977,0.287,1.392,0.148,-92.651,-144.47,4.943,1
2.997207,0.277,1.368,0.125,-78.43,-146.789,3.417,1
3.003762,0.251,1.318,0.087,-62.927,-149.597,1.342,1
3.011556,0.302,1.261,0.072,-52.673,-151.55,-1.403,1
3.019984,0.264,1.183,0.041,-56.213,-152.343,-4.211,1
3.026318,0.25,1.14,0.054,-68.603,-152.221,-6.408,1
3.034577,0.282,1.111,0.051,-77.758,-152.343,-7.934,1
3.041066,0.313,1.088,0.04,-80.383,-153.32,-9.277,1
3.049463,0.344,1.059,0.048,-80.261,-154.296,-10.314,1
3.057569,0.388,1.05,0.08,-78.735,-155.944,-10.986,1
3.064332,0.397,1.082,0.133,-74.584,-156.738,-10.925,1
3.072588,0.38,1.116,0.186,-65.185,-157.958,-11.901,1
3.079553,0.357,1.119,0.232,-52.429,-158.081,-13.244,1
3.087413,0.368,1.103,0.255,-44.494,-157.958,-15.502,1
3.095786,0.364,1.071,0.307,-44.738,-156.066,-17.578,1
3.102992,0.365,1.05,0.355,-48.889,-154.724,-19.409,1
3.111067,0.365,1.051,0.409,-50.109,-151.489,-20.935,1
3.120081,0.382,1.053,0.444,-44.189,-149.353,-21.972,1
3.127135,0.372,1.051,0.462,-32.409,-147.277,-23.62,1
3.135746,0.375,1.002,0.471,-22.46,-145.874,-25.207,1
3.143616,0.382,0.958,0.471,-15.686,-143.188,-26.55,1
3.150148,0.397,0.924,0.469,-12.512,-140.991,-27.526,1
3.158639,0.425,0.916,0.488,-7.019,-138.671,-27.648,1
3.165203,0.391,0.949,0.503,10.559,-135.986,-28.198,1
3.173003,0.389,0.98,0.506,31.616,-134.826,-29.052,1
3.181417,0.388,0.997,0.508,51.147,-133.789,-30.395,1
3.187954,0.336,0.984,0.512,64.819,-133.605,-32.775,1
3.19498,0.288,0.934,0.55,49.743,-130.187,-34.729,1
3.204079,0.292,0.897,0.593,5.615,-124.877,-35.827,1
3.21126,0.34,0.902,0.666,-43.945,-117.37,-37.109,1
3.219484,0.395,0.936,0.713,-76.354,-110.778,-37.78,1
3.226514,0.42,0.977,0.766,-78.552,-105.468,-39.001,1
3.234751,0.444,0.97,0.775,-58.776,-103.149,-39.855,1
3.242987,0.455,0.938,0.797,-35.888,-100.891,-40.954,1
3.249602,0.473,0.886,0.786,-21.85,-97.229,-41.809,1
3.258514,0.481,0.853,0.782,-17.7,-92.895,-42.419,1
3.26511,0.463,0.815,0.766,-19.775,-87.951,-43.457,1
3.273331,0.448,0.794,0.759,-20.629,-82.397,-44.433,1
3.281745,0.435,0.786,0.737,-18.432,-77.514,-45.288,1
3.288669,0.483,0.753,0.69,-11.535,-74.035,-46.691,1
3.295666,0.478,0.708,0.647,-3.906,-71.411,-47.363,1
3.304349,0.448,0.666,0.64,-6.469,-67.993,-47.363,1
3.311265,0.445,0.647,0.618,-11.779,-65.307,-46.997,1
3.320041,0.454,0.618,0.626,-16.54,-62.683,-46.203,1
3.327152,0.465,0.635,0.623,-21.667,-59.631,-45.776,1
3.335333,0.476,0.639,0.637,-26.062,-56.945,-45.288,1
3.343762,0.489,0.634,0.631,-32.348,-53.894,-44.799,1
3.351637,0.522,0.638,0.643,-37.109,-51.208,-44.494,1
3.35835,0.562,0.633,0.634,-37.17,-48.522,-43.884,1
3.366965,0.598,0.615,0.635,-35.278,-46.081,-43.762,1
3.37406,0.623,0.594,0.619,-35.339,-43.029,-42.785,1
3.382793,0.629,0.585,0.606,-38.208,-40.344,-42.297,1
3.391043,0.635,0.601,0.604,-36.193,-37.902,-41.687,1
3.398024,0.663,0.595,0.599,-31.494,-36.254,-41.748,1
3.405289,0.692,0.575,0.581,-29.357,-33.02,-41.503,1
3.413496,0.725,0.575,0.562,-32.226,-29.907,-41.198,1
3.421724,0.731,0.569,0.557,-38.574,-27.526,-41.076,1
3.429945,0.717,0.571,0.554,-38.696,-25.085,-40.527,1
3.438253,0.767,0.567,0.566,-27.404,-23.132,-40.649,1
3.445221,0.784,0.546,0.53,-12.451,-22.216,-40.588,1
3.45399,0.713,0.52,0.536,0.305,-19.958,-39.428,1
3.462691,0.808,0.466,0.487,4.211,-19.775,-38.757,1
3.47088,0.806,0.446,0.486,-1.281,-15.441,-37.902,1
3.477873,0.83,0.457,0.461,-8.056,-14.648,-37.414,1
3.484997,0.836,0.464,0.455,-10.925,-11.901,-36.56,1
3.492829,0.835,0.489,0.424,-15.38,-10.986,-35.827,1
3.50083,0.851,0.5,0.425,-13.916,-9.521,-35.644,1
3.510699,0.864,0.499,0.418,-11.657,-9.704,-35.583,1
3.516869,0.916,0.485,0.407,-3.845,-8.85,-34.179,1
3.525169,0.892,0.438,0.393,-3.601,-9.46,-33.386,1
3.533556,0.898,0.412,0.418,-9.033,-8.056,-32.531,1
3.54183,0.872,0.409,0.433,-14.343,-7.019,-31.372,1
3.548537,0.86,0.402,0.452,-16.967,-4.699,-29.907,1
3.556713,0.857,0.402,0.426,-20.385,-1.831,-27.893,1
3.563877,0.852,0.4,0.404,-22.399,0.793,-26.55,1
3.572123,0.878,0.393,0.378,-21.667,2.99,-25.329,1
3.579148,0.954,0.397,0.348,-17.395,4.394,-23.559,1
3.58766,0.977,0.399,0.326,-13.427,4.943,-22.094,1
3.59563,0.973,0.408,0.325,-6.774,5.493,-20.751,1
3.603983,0.97,0.4,0.324,3.112,5.371,-19.409,1
3.611091,1.001,0.345,0.311,11.108,5.981,-17.883,1
3.61815,0.979,0.36,0.297,6.896,7.202,-15.808,1
3.624776,0.964,0.33,0.272,-5.31,8.85,-13.549,1
3.633461,0.97,0.317,0.241,-24.658,10.559,-11.962,1
3.639968,0.963,0.367,0.222,-48.156,14.953,-10.498,1
3.648281,0.958,0.442,0.169,-77.697,17.456,-10.192,1
3.656779,0.942,0.605,0.12,-99.426,20.385,-10.681,1
3.664071,0.925,0.762,0.071,-100.158,19.714,-12.573,1
3.672344,0.928,0.906,-0.001,-91.491,20.08,-15.014,1
3.679488,0.888,1.045,-0.092,-86.364,17.7,-19.348,1
3.687898,0.86,1.204,-0.172,-82.702,16.296,-23.62,1
3.696272,0.87,1.368,-0.257,-80.383,13.305,-28.747,1
3.702987,0.851,1.497,-0.321,-79.101,8.972,-36.621,1
3.711355,0.823,1.58,-0.378,-78.369,4.272,-43.151,1
3.718202,0.783,1.663,-0.44,-80.078,-0.244,-50.415,1
3.72694,0.772,1.729,-0.513,-89.05,-5.065,-58.776,1
3.735295,0.75,1.81,-0.565,-97.778,-10.498,-67.26,1
3.742394,0.764,1.862,-0.584,-95.458,-18.127,-77.941,1
3.751165,0.766,1.888,-0.591,-84.716,-25.756,-86.975,1
3.758324,0.77,1.846,-0.583,-78.308,-32.348,-96.618,1
3.766365,0.761,1.821,-0.557,-78.674,-39.672,-106.811,1
3.774605,0.766,1.773,-0.523,-81.115,-44.921,-115.173,1
3.783352,0.781,1.717,-0.45,-83.557,-50.048,-123.229,1
3.790513,0.766,1.656,-0.402,-78.247,-55.969,-132.629,1
3.800191,0.716,1.567,-0.344,-73.12,-61.096,-140.014,1
3.807105,0.661,1.428,-0.265,-72.998,-65.368,-147.766,1
3.815792,0.624,1.31,-0.187,-76.232,-69.03,-153.564,1
3.824482,0.598,1.18,-0.115,-80.017,-71.96,-159.179,1
3.831697,0.604,1.084,-0.042,-73.486,-75.622,-163.269,1
3.83983,0.572,0.962,0.054,-59.753,-78.491,-167.541,1
3.848572,0.52,0.85,0.141,-49.255,-80.932,-171.02,1
3.857448,0.48,0.774,0.263,-31.066,-82.031,-174.072,1
3.865021,0.497,0.653,0.403,-11.352,-83.129,-176.574,1
3.872123,0.512,0.537,0.541,-6.347,-80.383,-177.856,1
3.880946,0.551,0.465,0.696,-20.507,-74.829,-179.016,1
3.887959,0.584,0.416,0.86,-32.043,-68.664,-179.26,1
3.895062,0.61,0.371,0.989,-38.391,-61.828,-179.138,1
3.903804,0.627,0.315,1.107,-44.189,-54.809,-178.588,1
3.911058,0.675,0.287,1.207,-42.297,-47.973,-178.039,1
3.917779,0.711,0.26,1.333,-27.77,-41.625,-178.283,1
3.925656,0.72,0.205,1.44,-8.972,-33.874,-178.161,1
3.934194,0.726,0.13,1.518,4.638,-24.169,-177.795,1
3.940906,0.703,0.056,1.528,8.239,-12.634,-176.879,1
3.949543,0.631,0.02,1.502,2.807,-1.525,-176.635,1
3.957472,0.548,-0.009,1.496,-1.037,9.46,-176.513,1
3.964455,0.468,-0.057,1.449,-0.122,20.507,-176.025,1
3.973161,0.468,-0.132,1.368,1.098,32.653,-175.476,1
3.979568,0.427,-0.216,1.231,-18.188,44.006,-174.194,1
3.988379,0.408,-0.224,1.112,-37.78,52.795,-173.156,1
3.995413,0.416,-0.237,0.993,-42.053,60.119,-172.668,1
4.003789,0.429,-0.292,0.83,-43.762,64.758,-171.63,1
4.010814,0.436,-0.346,0.653,-52.673,69.458,-170.41,1
4.018819,0.4,-0.346,0.43,-63.415,71.533,-168.64,1
4.027285,0.35,-0.325,0.241,-70.861,72.082,-167.236,1
4.03389,0.28,-0.29,0.052,-76.171,70.8,-165.527,1
4.041686,0.188,-0.265,-0.152,-88.134,67.504,-164.001,1
4.049986,0.1,-0.216,-0.352,-98.51,62.927,-162.719,1
4.058682,-0.019,-0.176,-0.534,-105.773,56.701,-161.926,1
4.065443,-0.154,-0.157,-0.74,-110.9,48.034,-161.254,1
4.073222,-0.257,-0.173,-0.911,-115.6,36.743,-159.729,1
4.081797,-0.358,-0.207,-1.067,-122.619,25.329,-158.142,1
4.088723,-0.506,-0.254,-1.208,-132.995,13.122,-155.456,1
4.097066,-0.624,-0.346,-1.34,-144.897,-0.732,-151.855,1
4.104327,-0.806,-0.425,-1.473,-156.677,-15.93,-147.216,1
4.114121,-0.97,-0.543,-1.521,-160.644,-35.644,-141.296,1
4.121182,-1.129,-0.717,-1.596,-159.667,-53.527,-134.643,1
4.131453,-1.284,-0.879,-1.621,-160.156,-76.599,-124.999,1
4.138505,-1.445,-1.068,-1.618,-156.25,-99.243,-113.342,1
4.1473,-1.553,-1.299,-1.555,-146.423,-123.84,-99.182,1
4.155607,-1.682,-1.484,-1.465,-122.375,-144.47,-85.51,1
4.164439,-2.011,-1.612,-1.411,-92.651,-169.982,-68.237,1
4.173159,-1.957,-1.865,-1.417,-75.805,-189.208,-51.574,1
4.181322,-2.23,-2.03,-1.326,-82.885,-214.782,-30.7,1
4.190004,-2.242,-2.298,-1.339,-94.604,-235.717,-4.089,1
4.197088,-2.543,-2.446,-1.165,-140.869,-259.521,25.939,1
4.205095,-3.015,-2.629,-1.064,-184.57,-275.512,57.006,1
4.214705,-3.229,-2.617,-0.886,-202.88,-297.485,89.965,1
4.221412,-3.675,-2.694,-0.684,-221.008,-318.115,134.338,1
4.22971,-3.975,-2.716,-0.524,-224.67,-338.256,175.17,1
4.238086,-4.279,-2.702,-0.308,-226.074,-353.21,219.299,1
4.245167,-4.695,-2.711,-0.11,-240.539,-368.652,275.878,1
4.25418,-4.945,-2.717,0.097,-257.385,-374.267,328.735,1
4.262421,-5.373,-2.587,0.403,-275.024,-376.281,394.531,1
4.271033,-5.963,-2.167,0.729,-247.68,-374.511,449.218,1
4.279151,-6.192,-2.168,1.0,-209.96,-375.732,504.882,1
4.285791,-6.553,-2.292,1.27,-241.699,-360.534,572.631,1
4.293761,-7.48,-1.999,1.632,-281.921,-335.51,629.516,1
4.30208,-8.625,-1.606,1.959,-292.541,-306.152,686.035,1
4.309157,-9.763,-1.283,2.079,-311.889,-270.019,739.929,1
4.31744,-11.025,-0.907,2.075,-363.708,-218.627,800.537,1
4.325789,-12.273,-0.416,2.045,-406.86,-165.649,850.219,1
4.332891,-13.499,0.121,1.934,-421.936,-110.412,894.836,1
4.341055,-14.764,0.685,1.763,-405.273,-54.504,933.166,1
4.348045,-15.553,1.02,1.577,-380.187,-1.831,965.576,1
4.355891,-15.999,1.41,1.389,-345.214,48.339,992.492,1
4.362881,-15.999,1.729,1.231,-306.091,92.224,1014.587,1
4.369581,-15.999,2.125,1.122,-254.15,129.943,1031.982,1
4.377369,-15.999,2.458,1.067,-215.698,157.531,1043.762,1
4.384337,-15.999,2.647,1.05,-183.654,186.401,1055.664,1
4.392472,-15.999,2.863,1.068,-174.987,217.346,1065.612,1
4.399668,-15.999,2.986,0.991,-201.782,249.572,1073.913,1
4.406751,-15.999,3.106,1.017,-251.708,287.353,1079.101,1
4.413498,-15.999,3.237,1.02,-291.442,327.209,1079.162,1
4.420435,-15.999,3.51,0.974,-309.143,372.741,1073.486,1
4.427476,-15.999,3.663,0.901,-329.589,422.79,1061.828,1
4.435361,-15.999,3.698,0.782,-387.084,471.557,1047.058,1
4.442211,-15.999,3.807,0.708,-456.542,547.18,1023.559,1
4.449276,-15.999,3.858,0.52,-517.822,625.183,994.689,1
4.458077,-15.999,3.755,0.157,-610.656,712.158,958.496,1
4.466216,-15.999,3.736,-0.194,-689.636,773.254,912.231,1
4.472942,-15.999,3.662,-0.42,-759.399,862.06,829.528,1
4.479994,-15.999,3.764,-0.964,-852.783,930.541,731.994,1
4.487013,-15.999,4.24,-1.727,-873.413,986.267,633.789,1
4.495494,-15.999,4.259,-2.604,-908.935,1012.023,502.807,1
4.502447,-15.999,3.958,-3.125,-1009.887,1051.147,364.013,1
4.509482,-15.999,3.692,-4.028,-1135.681,1063.415,213.684,1
4.516521,-15.999,3.429,-3.992,-1153.747,1032.226,55.175,1
4.525,-14.994,2.887,-3.402,-978.271,991.332,-77.758,1
4.532113,-13.736,2.236,-3.504,-772.644,924.011,-173.4,1
4.539253,-12.537,1.786,-3.423,-595.642,849.792,-241.638,1
4.54711,-11.444,1.399,-3.377,-440.429,785.034,-285.949,1
4.55403,-10.586,1.072,-3.388,-336.608,729.858,-310.363,1
4.562762,-9.662,0.728,-3.436,-246.948,677.062,-328.002,1
4.571074,-8.872,0.475,-3.521,-210.021,626.709,-338.745,1
4.578113,-7.855,0.11,-3.397,-216.186,579.528,-347.29,1
4.586945,-7.128,-0.102,-3.401,-248.718,541.015,-354.675,1
4.595376,-6.317,-0.362,-3.307,-306.335,497.558,-365.234,1
4.601717,-5.738,-0.541,-3.333,-356.445,457.214,-374.389,1
4.610522,-5.232,-0.632,-3.24,-380.371,413.085,-382.202,1
4.619099,-4.774,-0.738,-3.152,-369.445,367.004,-386.291,1
4.627856,-4.323,-0.849,-3.024,-317.016,309.143,-385.314,1
4.634813,-3.881,-0.905,-2.963,-215.942,253.54,-377.807,1
4.643211,-3.611,-1.012,-2.865,-142.028,211.547,-367.736,1
4.651475,-3.276,-1.086,-2.758,-89.843,174.438,-353.698,1
4.659724,-2.993,-1.159,-2.628,-73.059,148.01,-340.881,1
4.668485,-2.625,-1.204,-2.457,-69.335,127.685,-328.124,1
4.676997,-2.3,-1.233,-2.331,-84.106,105.468,-312.133,1
4.685892,-1.972,-1.148,-2.097,-101.013,83.679,-294.311,1
4.692677,-1.758,-1.129,-1.959,-114.379,68.786,-281.127,1
4.701285,-1.682,-1.106,-1.799,-127.99,55.358,-267.456,1
4.708099,-1.479,-1.107,-1.711,-133.911,41.564,-252.99,1
4.716102,-1.324,-1.093,-1.596,-123.229,26.245,-238.281,1
4.724825,-1.221,-1.099,-1.516,-109.008,14.038,-223.266,1
4.731914,-1.13,-1.101,-1.434,-100.83,2.014,-208.862,1
4.738882,-1.095,-1.096,-1.377,-96.13,-8.361,-192.077,1
4.747715,-1.049,-1.09,-1.337,-90.454,-17.822,-178.039,1
4.754494,-0.961,-1.082,-1.272,-79.65,-25.817,-164.062,1
4.762833,-0.848,-1.081,-1.216,-70.983,-32.836,-150.634,1
4.771253,-0.74,-1.07,-1.147,-68.176,-38.757,-137.451,1
4.778214,-0.628,-1.029,-1.08,-70.251,-43.273,-124.999,1
4.786654,-0.577,-1.01,-1.027,-73.425,-47.79,-111.267,1
4.795444,-0.465,-1.016,-0.993,-79.04,-51.757,-99.487,1
4.803846,-0.354,-1.0,-0.934,-86.303,-55.541,-85.998,1
4.812511,-0.283,-0.968,-0.878,-88.195,-59.143,-73.181,1
4.820915,-0.264,-0.957,-0.842,-89.782,-61.645,-62.683,1
4.82955,-0.273,-0.968,-0.812,-97.839,-63.171,-49.926,1
4.837854,-0.206,-0.953,-0.765,-106.323,-64.086,-38.024,1
4.84624,-0.158,-0.93,-0.709,-109.558,-64.086,-26.184,1
4.855034,-0.103,-0.878,-0.678,-100.402,-65.246,-16.723,1
4.864612,-0.095,-0.867,-0.654,-93.994,-65.429,-7.019,1
4.871253,-0.046,-0.866,-0.608,-92.529,-65.979,2.319,1
4.879168,0.011,-0.857,-0.572,-84.899,-65.979,10.192,1
4.887845,0.062,-0.864,-0.553,-73.974,-66.467,18.432,1
4.896304,0.112,-0.871,-0.523,-66.589,-66.467,25.451,1
4.903395,0.154,-0.867,-0.508,-62.438,-66.223,32.165,1
4.910697,0.175,-0.841,-0.481,-59.936,-65.979,38.513,1
4.919122,0.181,-0.805,-0.452,-57.128,-65.612,45.41,1
4.926965,0.191,-0.753,-0.428,-54.016,-65.063,51.94,1
4.935406,0.191,-0.698,-0.413,-50.598,-64.758,57.434,1
4.942151,0.187,-0.631,-0.399,-47.302,-63.842,62.011,1
4.951759,0.179,-0.56,-0.386,-44.799,-63.537,66.101,1
4.95834,0.245,-0.545,-0.401,-50.842,-61.645,70.007,1
4.967006,0.245,-0.496,-0.391,-59.631,-59.814,73.669,1
4.974918,0.279,-0.444,-0.399,-65.307,-57.739,77.026,1
4.983223,0.312,-0.414,-0.379,-66.833,-56.152,81.115,1
4.991446,0.301,-0.351,-0.373,-64.697,-54.504,84.594,1
4.99981,0.311,-0.314,-0.362,-60.363,-52.795,87.341,1
5.008108,0.31,-0.29,-0.355,-54.992,-51.757,90.454,1
5.015219,0.288,-0.256,-0.335,-48.278,-50.537,93.2,1
5.02406,0.247,-0.2,-0.321,-38.513,-49.255,95.092,1
5.030633,0.25,-0.2,-0.324,-33.996,-48.034,95.642,1
5.038951,0.243,-0.173,-0.286,-35.034,-46.63,95.886,1
5.046803,0.253,-0.141,-0.255,-34.301,-43.823,95.642,1
5.055686,0.278,-0.157,-0.25,-34.179,-41.748,95.52,1
5.062653,0.321,-0.194,-0.229,-37.536,-39.245,96.374,1
5.071113,0.38,-0.22,-0.213,-42.785,-36.437,98.693,1
5.078099,0.468,-0.263,-0.192,-49.133,-33.874,101.623,1
5.086712,0.555,-0.292,-0.15,-61.096,-30.273,106.689,1
5.095511,0.671,-0.321,-0.119,-76.293,-25.39,111.755,1
5.102206,0.824,-0.323,-0.074,-92.468,-19.042,119.384,1
5.110505,0.976,-0.317,-0.024,-96.313,-12.756,126.892,1
5.118229,1.034,-0.257,0.033,-86.608,-6.774,133.056,1
5.126398,0.996,-0.206,0.055,-64.514,-0.305,138.732,1
5.13431,0.949,-0.182,0.076,-45.532,3.479,143.798,1
5.142486,0.946,-0.161,0.084,-28.747,6.652,149.169,1
5.149204,0.966,-0.151,0.061,-15.991,10.498,154.357,1
5.157612,0.93,-0.136,0.0,-13.061,12.756,158.508,1
5.165936,0.844,-0.104,-0.051,-16.845,14.953,161.56,1
5.173803,0.808,-0.071,-0.118,-20.385,17.578,164.489,1
5.182596,0.79,-0.042,-0.207,-21.911,20.446,166.137,1
5.190448,0.737,0.006,-0.349,-28.198,23.01,167.175,1
5.197288,0.64,0.077,-0.51,-50.964,26.428,165.771,1
5.205038,0.537,0.216,-0.609,-74.951,27.587,162.902,1
5.213224,0.482,0.354,-0.694,-86.914,29.052,159.79,1
5.221338,0.48,0.459,-0.799,-85.144,28.32,156.555,1
5.227937,0.501,0.535,-0.947,-78.247,26.672,152.709,1
5.236374,0.498,0.563,-1.06,-74.584,23.681,148.498,1
5.243355,0.496,0.633,-1.164,-69.152,21.057,144.775,1
5.251566,0.557,0.679,-1.289,-65.795,17.15,140.136,1
5.25846,0.602,0.734,-1.34,-65.185,12.695,135.07,1
5.266853,0.565,0.813,-1.387,-60.058,6.469,130.187,1
5.275191,0.572,0.873,-1.401,-47.729,-0.915,124.267,1
5.281793,0.607,0.904,-1.397,-35.095,-8.972,119.384,1
5.290462,0.617,0.904,-1.367,-23.986,-16.113,114.501,1
5.297516,0.653,0.867,-1.332,-17.761,-23.071,110.168,1
5.305701,0.685,0.833,-1.271,-16.174,-28.32,106.506,1
5.314506,0.705,0.807,-1.211,-18.066,-32.836,103.698,1
5.32144,0.732,0.77,-1.173,-28.381,-36.376,101.196,1
5.330328,0.714,0.76,-1.109,-44.494,-37.902,99.365,1
5.336872,0.692,0.77,-1.054,-62.805,-39.245,97.595,1
5.345826,0.704,0.789,-0.998,-75.927,-40.344,96.252,1
5.352842,0.754,0.816,-0.966,-84.167,-42.358,94.726,1
5.361599,0.793,0.837,-0.935,-88.745,-42.541,93.322,1
5.36827,0.781,0.87,-0.905,-92.285,-45.532,92.102,1
5.376384,0.77,0.888,-0.882,-92.346,-46.813,90.698,1
5.384802,0.771,0.899,-0.85,-91.125,-49.743,89.233,1
5.39313,0.767,0.894,-0.82,-87.89,-52.124,88.256,1
5.400181,0.793,0.902,-0.798,-83.19,-54.809,87.28,1
5.407275,0.777,0.898,-0.789,-79.406,-57.983,85.937,1
5.416076,0.755,0.884,-0.76,-78.125,-60.058,84.96,1
5.423008,0.741,0.882,-0.749,-78.674,-62.377,83.74,1
5.43182,0.745,0.879,-0.722,-78.674,-64.514,82.397,1
5.438508,0.755,0.888,-0.715,-76.843,-66.528,81.298,1
5.446844,0.743,0.893,-0.722,-75.195,-68.786,79.833,1
5.455507,0.722,0.898,-0.728,-76.782,-70.129,78.063,1
5.462495,0.699,0.899,-0.74,-80.871,-71.228,76.232,1
5.471358,0.669,0.907,-0.745,-85.51,-72.204,73.852,1
5.478343,0.66,0.906,-0.743,-86.242,-73.364,71.533,1
5.486623,0.641,0.891,-0.725,-84.594,-74.401,69.396,1
5.493511,0.658,0.867,-0.709,-84.045,-75.683,67.077,1
5.502046,0.687,0.857,-0.687,-83.007,-77.026,64.697,1
5.508992,0.71,0.849,-0.665,-78.735,-78.918,62.927,1
5.517863,0.723,0.855,-0.644,-71.838,-80.566,60.791,1
5.526219,0.743,0.86,-0.637,-63.903,-82.824,58.837,1
5.533437,0.724,0.875,-0.635,-55.908,-84.472,56.457,1
5.541731,0.725,0.878,-0.636,-44.921,-87.341,53.527,1
5.55024,0.743,0.871,-0.636,-34.545,-89.904,50.842,1
5.557043,0.745,0.854,-0.626,-24.475,-93.017,47.668,1
5.56639,0.757,0.836,-0.61,-19.287,-95.642,45.288,1
5.574174,0.783,0.808,-0.583,-16.967,-96.984,42.663,1
5.58138,0.775,0.783,-0.558,-16.479,-98.571,40.283,1
5.588159,0.775,0.758,-0.53,-16.418,-99.487,38.024,1
5.595168,0.788,0.743,-0.506,-16.296,-100.646,36.01,1
5.604482,0.792,0.73,-0.469,-13.549,-101.501,34.179,1
5.611489,0.816,0.708,-0.426,-9.643,-102.661,32.348,1
5.619748,0.835,0.693,-0.37,-3.967,-103.881,30.395,1
5.628191,0.849,0.683,-0.327,3.601,-105.224,28.808,1
5.634869,0.848,0.686,-0.28,13.61,-105.773,27.282,1
5.641924,0.819,0.681,-0.246,21.24,-106.689,25.878,1
5.650729,0.789,0.67,-0.218,25.573,-106.567,24.169,1
5.657784,0.761,0.655,-0.183,26.672,-106.384,22.338,1
5.664997,0.759,0.629,-0.17,25.329,-105.651,20.996,1
5.673122,0.752,0.612,-0.135,17.089,-104.431,19.958,1
5.679966,0.749,0.592,-0.125,3.723,-102.783,19.226,1
5.68784,0.739,0.572,-0.104,-13.671,-101.013,18.676,1
5.69624,0.769,0.557,-0.098,-32.531,-98.51,18.676,1
5.703138,0.767,0.548,-0.08,-52.246,-96.313,19.226,1
5.711994,0.754,0.518,-0.061,-73.547,-94.299,20.568,1
5.718557,0.738,0.515,-0.033,-96.13,-91.125,21.972,1
5.727423,0.738,0.546,0.0,-111.267,-88.073,22.644,1
5.733854,0.683,0.56,0.03,-118.53,-85.815,23.315,1
5.742208,0.636,0.579,0.059,-115.722,-83.557,23.559,1
5.750549,0.616,0.589,0.076,-108.398,-82.275,22.888,1
5.758851,0.641,0.602,0.086,-100.646,-80.383,22.46,1
5.767192,0.636,0.612,0.087,-88.928,-79.65,22.46,1
5.773646,0.64,0.624,0.081,-77.941,-79.345,22.399,1
5.78244,0.638,0.633,0.081,-65.002,-78.735,22.583,1
5.790777,0.649,0.643,0.074,-50.598,-78.674,22.155,1
5.799198,0.679,0.634,0.06,-35.156,-78.308,21.179,1
5.806347,0.694,0.622,0.056,-23.559,-77.941,20.324,1
5.814162,0.708,0.598,0.066,-13.61,-76.904,19.287,1
5.822945,0.729,0.573,0.082,-8.605,-75.866,19.104,1
5.829162,0.743,0.537,0.096,-9.155,-74.157,19.409,1
5.837435,0.774,0.512,0.112,-17.395,-70.922,20.446,1
5.844547,0.767,0.511,0.121,-20.996,-69.091,21.484,1
5.854048,0.773,0.525,0.151,-11.047,-68.115,22.399,1
5.860675,0.825,0.526,0.18,14.404,-68.603,22.949,1
5.867636,0.854,0.506,0.194,38.085,-68.237,23.193,1
5.876537,0.835,0.465,0.182,47.668,-67.687,22.949,1
5.883077,0.819,0.439,0.174,44.433,-65.612,23.315,1
5.890066,0.797,0.433,0.173,31.921,-62.927,23.803,1
5.898357,0.798,0.416,0.166,13.366,-59.692,24.108,1
5.905051,0.753,0.43,0.199,-9.277,-55.541,24.597,1
5.913786,0.769,0.459,0.205,-28.137,-52.124,24.963,1
5.920474,0.751,0.465,0.225,-43.823,-49.194,25.695,1
5.928742,0.725,0.526,0.248,-48.461,-47.302,26.489,1
5.935677,0.704,0.574,0.278,-44.982,-46.63,26.977,1
5.943951,0.681,0.6,0.287,-28.869,-45.715,27.954,1
5.950283,0.753,0.569,0.272,-19.836,-46.63,27.404,1
5.958494,0.665,0.61,0.274,-12.634,-44.982,28.015,1
5.966831,0.736,0.592,0.244,-12.695,-44.982,27.099,1
5.97492,0.687,0.634,0.27,-10.925,-42.236,26.855,1
5.981966,0.752,0.623,0.26,-11.84,-42.358,25.817,1
5.990448,0.73,0.622,0.287,-12.573,-38.94,25.329,1
5.997524,0.762,0.621,0.277,-16.052,-38.208,25.085,1
6.005729,0.777,0.633,0.279,-17.883,-34.729,24.841,1
6.014216,0.767,0.656,0.255,-18.432,-33.691,24.414,1
6.020753,0.761,0.673,0.246,-18.432,-32.104,23.681,1
6.029526,0.753,0.692,0.217,-19.592,-31.433,23.071,1
6.035987,0.75,0.702,0.205,-19.958,-30.578,22.216,1
6.044342,0.749,0.698,0.182,-21.362,-30.029,20.996,1
6.051396,0.741,0.704,0.176,-22.521,-29.357,19.958,1
6.058333,0.728,0.701,0.171,-22.033,-29.113,19.165,1
6.066647,0.733,0.708,0.173,-17.578,-29.357,18.371,1
6.074943,0.748,0.712,0.182,-9.948,-30.029,16.967,1
6.083297,0.76,0.684,0.191,-5.615,-29.907,16.601,1
6.091528,0.79,0.687,0.194,-4.15,-29.235,16.296,1
6.098295,0.807,0.689,0.2,-2.807,-29.113,15.563,1
6.105369,0.794,0.691,0.214,-2.502,-28.137,15.197,1
6.114917,0.788,0.7,0.205,-3.54,-27.16,14.77,1
6.121973,0.785,0.707,0.208,-5.676,-26.245,14.099,1
6.129012,0.781,0.713,0.205,-8.789,-25.573,13.183,1
6.136926,0.78,0.713,0.203,-11.413,-24.719,12.756,1
6.145461,0.8,0.698,0.187,-16.296,-24.169,12.207,1
6.152202,0.814,0.711,0.181,-20.69,-23.498,11.291,1
6.159547,0.816,0.732,0.179,-18.737,-23.132,10.07,1
6.167404,0.813,0.748,0.179,-6.835,-24.353,9.277,1
6.175665,0.803,0.746,0.157,7.995,-25.634,8.056,1
6.182707,0.785,0.741,0.144,19.531,-26.55,6.713,1
6.189538,0.76,0.732,0.121,26.855,-27.221,5.31,1
6.197688,0.729,0.724,0.105,30.395,-28.076,4.089,1
6.204629,0.72,0.714,0.099,31.311,-28.259,2.807,1
6.212874,0.725,0.698,0.089,31.799,-28.747,1.892,1
6.219452,0.75,0.688,0.068,32.653,-30.09,0.366,1
6.227829,0.776,0.694,0.054,36.071,-31.738,-0.854,1
6.234906,0.766,0.687,0.036,42.236,-34.423,-1.708,1
6.242535,0.76,0.668,0.016,48.278,-36.926,-2.197,1
6.250037,0.777,0.641,-0.012,52.124,-39.489,-1.953,1
6.258078,0.801,0.608,-0.021,53.344,-41.381,-1.525,1
6.266456,0.834,0.571,-0.029,46.569,-42.297,-1.22,1
6.274844,0.802,0.536,-0.032,31.372,-42.053,0.793,1
6.281549,0.816,0.532,-0.016,18.127,-44.982,1.892,1
6.289777,0.841,0.523,0.022,19.287,-45.043,3.967,1
6.29642,0.833,0.533,0.048,27.587,-48.217,5.004,1
6.304794,0.811,0.543,0.094,45.41,-48.889,6.164,1
6.311923,0.805,0.543,0.144,57.312,-50.842,7.019,1
6.318329,0.78,0.545,0.225,64.941,-48.95,7.141,1
6.32631,0.815,0.539,0.283,55.908,-46.508,7.446,1
6.333237,0.839,0.567,0.355,35.156,-41.32,6.896,1
6.341727,0.828,0.593,0.412,5.798,-36.071,6.042,1
6.34846,0.872,0.629,0.464,-22.705,-30.761,5.737,1
6.356789,0.914,0.665,0.498,-54.931,-24.658,4.76,1
6.363913,0.917,0.725,0.517,-72.753,-20.69,4.211,1
6.371839,0.93,0.774,0.515,-80.688,-18.249,3.112,1
6.378505,0.939,0.792,0.497,-86.547,-15.563,1.77,1
6.3867,0.931,0.792,0.471,-91.003,-13.488,0.732,1
6.393757,0.907,0.813,0.45,-96.496,-11.413,-0.366,1
6.402004,0.896,0.821,0.393,-101.745,-9.399,-1.22,1
6.409096,0.881,0.817,0.339,-105.59,-7.385,-2.563,1
6.416016,0.841,0.861,0.294,-107.971,-5.981,-3.723,1
6.422918,0.823,0.882,0.228,-105.346,-5.737,-5.432,1
6.431764,0.789,0.867,0.202,-99.182,-7.263,-5.92,1
6.438528,0.762,0.887,0.161,-86.486,-7.812,-6.286,1
6.445231,0.793,0.815,0.109,-74.401,-10.131,-7.995,1
6.453549,0.755,0.84,0.072,-60.119,-10.498,-9.46,1
6.460484,0.722,0.8,0.017,-52.246,-13.916,-10.375,1
6.469539,0.709,0.719,0.009,-47.851,-13.854,-11.169,1
6.477791,0.642,0.692,-0.003,-39.428,-15.747,-10.559,1
6.485634,0.64,0.717,0.018,-24.902,-18.493,-11.352,1
6.493937,0.642,0.687,0.028,0.244,-21.24,-12.39,1
6.500927,0.673,0.621,0.001,19.897,-23.437,-12.207,1
6.508716,0.663,0.526,0.016,35.217,-25.146,-11.718,1
6.516965,0.677,0.464,-0.001,41.381,-26.977,-11.23,1
6.523932,0.695,0.417,0.004,39.916,-27.587,-10.559,1
6.532988,0.699,0.367,-0.005,35.278,-27.282,-9.338,1
6.539557,0.748,0.312,-0.008,32.47,-28.869,-7.446,1
6.547323,0.764,0.277,-0.009,25.268,-28.137,-5.432,1
6.555539,0.788,0.254,-0.032,12.756,-29.663,-3.356,1
6.563241,0.774,0.245,-0.021,0.366,-28.991,-0.793,1
6.571479,0.777,0.269,-0.018,-8.239,-30.822,1.892,1
6.57845,0.775,0.301,-0.008,-8.789,-32.409,4.516,1
6.587128,0.771,0.333,0.006,-3.112,-35.644,7.324,1
6.593781,0.756,0.371,0.023,4.821,-37.353,8.972,1
6.600237,0.754,0.405,0.032,16.296,-40.283,10.681,1
6.608444,0.754,0.42,0.057,27.404,-42.724,11.84,1
6.615032,0.742,0.424,0.083,34.301,-44.006,13.305,1
6.623254,0.699,0.429,0.102,30.517,-44.433,14.709,1
6.630115,0.678,0.445,0.132,18.432,-43.518,15.624,1
6.637984,0.649,0.468,0.159,5.432,-42.663,15.93,1
6.646711,0.631,0.504,0.205,-9.277,-40.832,16.784,1
6.653547,0.638,0.544,0.227,-20.629,-39.794,17.211,1
6.662012,0.629,0.582,0.267,-23.498,-39.001,17.456,1
6.669872,0.633,0.623,0.283,-20.263,-38.696,17.211,1
6.676957,0.663,0.661,0.298,-12.695,-38.94,17.272,1
6.684932,0.715,0.699,0.303,-1.892,-39.367,16.723,1
6.693659,0.766,0.738,0.3,7.507,-39.611,16.113,1
6.700297,0.797,0.776,0.289,12.023,-39.306,15.258,1
6.709033,0.812,0.81,0.301,8.117,-39.306,14.221,1
6.715468,0.824,0.851,0.316,-1.953,-38.024,12.695,1
6.723488,0.82,0.889,0.334,-14.465,-36.682,11.23,1
6.732217,0.808,0.927,0.358,-24.23,-34.912,9.033,1
6.739009,0.819,0.95,0.351,-32.409,-33.203,6.896,1
6.746121,0.834,0.973,0.353,-39.428,-31.982,4.638,1
6.754983,0.848,0.999,0.355,-41.809,-31.188,2.38,1
6.76165,0.84,1.013,0.37,-41.931,-31.188,-0.305,1
6.770387,0.843,1.031,0.389,-40.222,-30.761,-2.319,1
6.777623,0.829,1.029,0.393,-38.574,-29.846,-4.577,1
6.786365,0.805,1.025,0.391,-40.405,-28.625,-6.713,1
6.793421,0.778,1.014,0.386,-44.982,-27.343,-9.033,1
6.801578,0.75,1.009,0.395,-50.537,-26.0,-10.986,1
6.810388,0.733,1.02,0.41,-55.847,-24.597,-12.634,1
6.816932,0.74,1.028,0.414,-61.645,-22.827,-14.77,1
6.824998,0.754,1.057,0.416,-67.565,-20.935,-16.235,1
6.831887,0.774,1.089,0.408,-75.439,-18.981,-18.188,1
6.840636,0.81,1.129,0.398,-84.594,-17.211,-20.69,1
6.848779,0.849,1.172,0.384,-92.895,-14.77,-23.437,1
6.855808,0.876,1.21,0.363,-96.618,-13.549,-26.245,1
6.864523,0.919,1.234,0.328,-98.632,-12.268,-29.602,1
6.871686,0.953,1.237,0.287,-101.806,-11.23,-33.142,1
6.880318,0.982,1.231,0.242,-105.59,-9.826,-36.804,1
6.889285,0.98,1.246,0.19,-106.201,-8.911,-40.588,1
6.896268,0.95,1.24,0.132,-101.806,-9.582,-44.25,1
6.904779,0.92,1.233,0.086,-98.083,-10.314,-47.851,1
6.911772,0.929,1.191,0.078,-90.27,-12.268,-50.964,1
6.920496,0.942,1.137,0.075,-73.669,-13.488,-53.894,1
6.92748,0.95,1.062,0.072,-55.786,-15.93,-55.786,1
6.935812,0.987,0.974,0.074,-43.334,-16.296,-56.64,1
6.942475,0.995,0.939,0.062,-39.916,-16.174,-57.373,1
6.950906,0.995,0.923,0.066,-41.076,-15.258,-57.861,1
6.959282,1.013,0.949,0.061,-42.907,-14.343,-58.898,1
6.965865,1.03,0.979,0.079,-41.137,-14.099,-60.363,1
6.976377,1.029,1.0,0.098,-40.405,-12.512,-60.974,1
6.98305,1.036,1.036,0.105,-44.982,-10.864,-62.499,1
6.991698,0.996,1.095,0.109,-51.269,-8.972,-64.819,1
7.000465,0.99,1.154,0.106,-51.757,-7.69,-67.565,1
7.007567,0.985,1.209,0.117,-47.18,-6.53,-70.739,1
7.015845,1.008,1.255,0.116,-42.48,-4.943,-75.256,1
7.024227,1.025,1.286,0.11,-44.677,-2.868,-79.345,1
7.032787,1.075,1.329,0.1,-56.274,-0.793,-85.083,1
7.039776,1.124,1.387,0.116,-66.345,1.892,-89.721,1
7.048299,1.149,1.418,0.102,-78.125,4.455,-93.444,1
7.055282,1.256,1.558,0.093,-89.233,7.995,-98.083,1
7.062253,1.251,1.751,0.064,-86.12,8.85,-104.187,1
7.070176,1.255,1.934,0.013,-72.753,10.559,-111.755,1
7.078941,1.222,2.049,-0.112,-62.561,9.521,-121.337,1
7.087712,1.187,2.142,-0.22,-63.842,9.948,-132.263,1
7.094978,1.133,2.249,-0.39,-78.308,7.69,-144.958,1
7.10194,1.011,2.314,-0.466,-91.369,4.76,-156.616,1
7.11067,0.845,2.359,-0.52,-98.144,0.061,-168.029,1
7.118628,0.638,2.348,-0.544,-102.722,-5.554,-179.748,1
7.127134,0.46,2.29,-0.541,-114.013,-12.084,-193.237,1
7.135406,0.254,2.204,-0.5,-122.436,-18.798,-204.101,1
7.143807,0.083,2.107,-0.465,-125.488,-26.916,-216.491,1
7.150876,-0.04,1.987,-0.412,-124.389,-34.606,-226.562,1
7.159529,-0.211,1.823,-0.362,-118.591,-44.433,-236.938,1
7.167611,-0.348,1.665,-0.306,-114.501,-52.185,-245.239,1
7.176149,-0.465,1.506,-0.253,-112.548,-59.631,-252.319,1
7.184114,-0.595,1.322,-0.184,-111.755,-68.054,-259.399,1
7.190963,-0.708,1.172,-0.123,-112.548,-75.256,-264.709,1
7.200549,-0.796,1.02,-0.039,-109.13,-82.153,-269.042,1
7.207718,-0.852,0.897,0.041,-95.947,-90.454,-273.315,1
7.216357,-0.902,0.804,0.142,-76.843,-97.717,-276.245,1
7.223333,-1.004,0.702,0.255,-55.297,-102.6,-278.93,1
7.232083,-1.064,0.56,0.351,-32.836,-106.75,-281.799,1
7.240897,-1.104,0.408,0.416,-20.446,-108.581,-283.569,1
7.247487,-1.091,0.22,0.481,-19.409,-108.215,-283.63,1
7.255864,-1.059,0.068,0.534,-26.184,-106.201,-282.409,1
7.264656,-1.04,-0.041,0.576,-29.357,-104.614,-280.151,1
7.27113,-1.018,-0.175,0.624,-28.442,-102.905,-277.221,1
7.279313,-0.997,-0.306,0.656,-26.916,-100.463,-273.01,1
7.287901,-0.948,-0.429,0.678,-31.921,-97.473,-268.615,1
7.295834,-0.87,-0.561,0.692,-40.039,-93.749,-262.146,1
7.304273,-0.775,-0.647,0.68,-46.386,-91.43,-256.103,1
7.31134,-0.715,-0.702,0.671,-51.208,-90.332,-249.267,1
7.318905,-0.711,-0.724,0.662,-50.292,-89.416,-242.614,1
7.327275,-0.713,-0.756,0.64,-41.748,-90.209,-235.29,1
7.335573,-0.684,-0.776,0.615,-32.043,-90.026,-229.309,1
7.343887,-0.696,-0.822,0.568,-27.099,-90.637,-223.449,1
7.35238,-0.785,-0.845,0.535,-30.456,-89.599,-218.139,1
7.359338,-0.862,-0.875,0.506,-43.273,-88.195,-211.608,1
7.368044,-0.947,-0.938,0.456,-54.138,-86.364,-205.505,1
7.375271,-0.994,-1.001,0.378,-73.791,-83.801,-197.937,1
7.383109,-1.044,-1.058,0.288,-94.055,-82.702,-190.612,1
7.391408,-1.131,-1.133,0.189,-114.685,-82.214,-182.739,1
7.400196,-1.212,-1.203,0.06,-136.535,-83.557,-172.546,1
7.407937,-1.274,-1.242,-0.05,-149.047,-86.669,-163.146,1
7.416235,-1.435,-1.324,-0.165,-169.25,-90.881,-152.832,1
7.424944,-1.459,-1.381,-0.242,-202.331,-94.604,-139.404,1
7.434874,-1.448,-1.467,-0.386,-222.473,-102.722,-123.168,1
7.441543,-1.464,-1.546,-0.475,-238.952,-110.656,-104.431,1
7.450667,-1.496,-1.655,-0.547,-267.639,-120.3,-82.336,1
7.457858,-1.541,-1.734,-0.616,-288.574,-126.892,-60.363,1
7.465634,-1.6,-1.812,-0.648,-302.978,-137.084,-35.583,1
7.474121,-1.794,-1.974,-0.734,-321.777,-145.874,-3.967,1
7.482288,-2.016,-2.069,-0.781,-348.632,-154.296,25.573,1
7.490552,-2.279,-2.236,-0.858,-373.657,-161.315,57.861,1
7.498849,-2.516,-2.362,-0.898,-387.145,-172.729,100.158,1
7.505866,-2.882,-2.51,-0.971,-392.272,-184.143,139.587,1
7.513977,-3.367,-2.57,-0.974,-377.441,-196.35,180.114,1
7.523961,-4.038,-2.547,-0.94,-346.435,-217.041,227.966,1
7.531034,-4.639,-2.443,-0.724,-275.085,-239.318,273.742,1
7.539393,-5.182,-2.357,-0.494,-220.336,-256.347,311.889,1
7.547858,-5.725,-2.401,-0.261,-229.675,-264.038,358.764,1
7.556034,-5.944,-2.436,-0.031,-298.095,-254.882,407.165,1
7.564748,-6.464,-2.232,0.303,-383.483,-229.003,470.947,1
7.57332,-7.209,-2.034,0.549,-432.556,-199.218,529.296,1
7.580372,-7.773,-1.873,0.731,-477.05,-155.456,597.961,1
7.588761,-8.439,-1.663,0.93,-486.816,-112.792,656.494,1
7.597229,-9.227,-1.325,1.095,-470.031,-67.565,710.388,1
7.604296,-10.34,-0.907,1.222,-440.429,-20.08,759.765,1
7.613027,-11.381,-0.465,1.173,-412.475,36.926,811.218,1
7.619658,-12.482,0.041,1.124,-396.24,86.914,851.074,1
7.628101,-13.877,0.617,0.967,-378.784,136.047,887.695,1
7.636759,-15.12,1.057,0.87,-369.14,183.166,921.386,1
7.643406,-15.999,1.442,0.664,-366.882,235.717,957.458,1
7.652036,-15.999,1.803,0.604,-346.679,276.672,984.069,1
7.658895,-15.999,2.113,0.501,-319.824,313.537,1005.92,1
7.667181,-15.999,2.472,0.497,-284.667,347.29,1021.667,1
7.673819,-15.999,2.819,0.382,-239.562,376.342,1031.921,1
7.682062,-15.999,3.166,0.311,-192.504,396.545,1036.987,1
7.6891,-15.999,3.366,0.261,-141.601,414.184,1040.71,1
7.696866,-15.999,3.395,0.199,-123.779,426.635,1044.738,1
7.705625,-15.999,3.239,0.224,-144.897,449.523,1050.659,1
7.712231,-15.999,3.088,0.225,-225.28,484.313,1057.128,1
7.720986,-15.999,2.956,0.173,-351.684,543.212,1059.692,1
7.727998,-15.999,2.823,-0.183,-521.362,629.089,1051.391,1
7.73683,-15.999,2.914,-0.615,-633.972,707.031,1024.597,1
7.743265,-15.999,2.88,-0.902,-752.441,794.921,981.262,1
7.752059,-15.999,3.105,-1.392,-827.758,870.056,912.902,1
7.760318,-15.999,3.512,-1.626,-845.153,939.941,821.655,1
7.767273,-15.999,3.507,-2.44,-860.717,998.168,717.895,1
7.77602,-15.999,3.415,-2.931,-953.43,1053.283,575.5,1
7.784124,-15.999,3.442,-3.703,-1059.326,1093.994,436.279,1
7.792396,-15.999,3.375,-3.986,-1140.075,1110.107,252.441,1
7.800403,-15.999,2.919,-3.784,-1094.36,1094.787,94.97,1
7.809001,-15.999,2.237,-3.52,-958.435,1052.368,-60.852,1
7.815985,-15.542,1.79,-3.52,-838.623,990.661,-169.738,1
7.82601,-13.965,1.288,-3.409,-735.229,926.33,-255.493,1
7.832859,-12.556,0.79,-3.319,-650.024,828.124,-342.895,1
7.84102,-11.418,0.498,-2.996,-592.895,759.765,-391.418,1
7.850013,-10.002,0.116,-2.873,-546.752,676.94,-432.983,1
7.858935,-8.991,-0.099,-2.62,-501.342,610.717,-457.458,1
7.86605,-7.932,-0.282,-2.565,-418.762,532.409,-474.67,1
7.876078,-7.341,-0.467,-2.464,-361.694,471.313,-481.018,1
7.882949,-6.726,-0.677,-2.512,-320.922,407.775,-479.309,1
7.891012,-6.209,-0.78,-2.432,-291.687,356.323,-474.121,1
7.899443,-5.635,-0.888,-2.357,-250.366,303.71,-463.745,1
7.907838,-5.064,-0.995,-2.212,-227.661,264.038,-452.392,1
7.916673,-4.606,-1.042,-2.098,-226.928,226.44,-436.889,1
7.923416,-4.155,-1.037,-1.959,-238.464,196.716,-423.828,1
7.93167,-3.752,-1.083,-1.844,-257.324,166.687,-406.311,1
7.939583,-3.456,-1.031,-1.726,-259.765,137.817,-391.906,1
7.948262,-3.218,-0.964,-1.608,-242.614,112.426,-377.136,1
7.956753,-2.954,-0.913,-1.507,-213.745,81.665,-359.68,1
7.963778,-2.77,-0.87,-1.417,-185.119,59.814,-344.543,1
7.972496,-2.645,-0.838,-1.367,-160.156,38.757,-329.589,1
7.981271,-2.506,-0.795,-1.302,-130.981,18.371,-312.194,1
7.990207,-2.386,-0.756,-1.241,-108.703,2.38,-297.973,1
7.997289,-2.27,-0.748,-1.172,-85.998,-11.718,-282.409,1
8.004289,-2.088,-0.755,-1.13,-73.974,-23.132,-269.775,1
8.01292,-1.986,-0.75,-1.078,-63.11,-32.287,-255.187,1
8.021872,-1.877,-0.747,-1.065,-56.03,-40.283,-243.591,1
8.030312,-1.774,-0.758,-1.021,-51.025,-47.363,-230.59,1
8.037475,-1.68,-0.758,-1.007,-50.17,-52.856,-219.787,1
8.046149,-1.585,-0.741,-0.951,-45.715,-58.715,-207.458,1
8.054322,-1.493,-0.752,-0.933,-40.71,-63.293,-197.814,1
8.063008,-1.357,-0.767,-0.893,-35.705,-68.237,-186.645,1
8.072574,-1.259,-0.798,-0.864,-28.869,-73.547,-175.842,1
8.081131,-1.15,-0.814,-0.826,-14.038,-77.758,-165.283,1
8.089654,-1.055,-0.842,-0.808,-2.502,-80.871,-156.555,1
8.098125,-0.988,-0.866,-0.783,3.906,-82.58,-146.362,1
8.106966,-0.934,-0.88,-0.762,3.723,-83.557,-136.23,1
8.113648,-0.858,-0.878,-0.738,4.211,-83.679,-126.159,1
8.122237,-0.772,-0.871,-0.719,6.774,-83.618,-118.347,1
8.132879,-0.691,-0.868,-0.691,8.972,-83.007,-108.825,1
8.139914,-0.634,-0.878,-0.686,5.432,-81.481,-100.28,1
8.148411,-0.597,-0.892,-0.669,-0.244,-79.467,-93.017,1
8.155345,-0.522,-0.919,-0.661,-7.263,-77.026,-84.167,1
8.165295,-0.452,-0.938,-0.645,-10.498,-75.256,-76.66,1
8.172393,-0.405,-0.977,-0.64,-11.413,-72.814,-67.626,1
8.180668,-0.304,-0.993,-0.618,-11.23,-70.739,-58.776,1
8.188854,-0.252,-0.996,-0.608,-5.737,-68.603,-51.025,1
8.197227,-0.218,-1.004,-0.586,-2.868,-66.406,-43.823,1
8.205494,-0.196,-1.007,-0.577,-6.225,-62.744,-35.339,1
8.21389,-0.17,-0.988,-0.558,-10.498,-59.875,-28.442,1
8.222648,-0.148,-0.962,-0.536,-10.742,-56.457,-20.629,1
8.231289,-0.128,-0.949,-0.537,-10.559,-53.527,-13.0,1
8.23873,-0.092,-0.951,-0.541,-11.596,-50.964,-7.08,1
8.246936,-0.063,-0.991,-0.552,-18.737,-47.302,0.244,1
8.255233,-0.012,-1.017,-0.56,-27.954,-44.372,6.774,1
8.263997,0.032,-1.019,-0.562,-33.081,-41.076,14.404,1
8.271024,0.059,-1.009,-0.555,-28.503,-39.367,21.118,1
8.279276,0.066,-1.006,-0.565,-16.967,-37.902,28.381,1
8.287737,0.09,-1.002,-0.572,-7.934,-37.231,34.301,1
8.296188,0.089,-0.998,-0.585,-1.647,-36.071,40.527,1
8.302714,0.061,-0.967,-0.579,1.037,-34.851,47.18,1
8.312274,0.064,-0.932,-0.59,3.845,-33.02,52.978,1
8.318924,0.069,-0.886,-0.593,6.713,-31.86,58.654,1
8.327671,0.088,-0.842,-0.6,6.713,-29.602,63.476,1
8.334772,0.114,-0.806,-0.625,-6.286,-26.489,69.03,1
8.344407,0.149,-0.778,-0.645,-33.264,-21.85,73.059,1
8.351328,0.171,-0.724,-0.66,-70.922,-16.54,77.514,1
8.35943,0.193,-0.668,-0.662,-95.764,-12.573,81.359,1
8.367811,0.219,-0.613,-0.656,-106.811,-10.62,85.144,1
8.374746,0.259,-0.575,-0.645,-102.661,-10.009,89.111,1
8.38299,0.289,-0.534,-0.638,-84.228,-11.352,92.834,1
8.391845,0.332,-0.509,-0.628,-51.391,-14.343,96.862,1
8.398827,0.376,-0.499,-0.642,-22.338,-18.127,100.585,1
8.407727,0.404,-0.484,-0.637,3.295,-21.667,104.431,1
8.414382,0.386,-0.449,-0.648,26.428,-25.695,109.13,1
8.42326,0.336,-0.379,-0.623,45.593,-29.052,112.426,1
8.430241,0.395,-0.378,-0.653,55.419,-30.578,114.746,1
8.437051,0.391,-0.408,-0.683,44.433,-31.616,116.76,1
8.445383,0.356,-0.39,-0.686,20.08,-29.418,118.713,1
8.455335,0.369,-0.369,-0.696,-6.103,-27.526,120.422,1
8.462252,0.413,-0.347,-0.69,-34.179,-25.207,122.558,1
8.470389,0.454,-0.345,-0.723,-62.499,-21.423,124.999,1
8.478769,0.45,-0.27,-0.692,-103.088,-16.601,127.075,1
8.485556,0.516,-0.23,-0.681,-127.38,-12.39,130.004,1
8.494187,0.557,-0.172,-0.677,-135.498,-9.948,133.789,1
8.500879,0.625,-0.124,-0.691,-124.999,-9.887,136.901,1
8.509593,0.653,-0.08,-0.711,-103.332,-12.573,139.587,1
8.518025,0.648,-0.098,-0.761,-77.026,-14.465,141.418,1
8.525059,0.562,-0.098,-0.782,-57.128,-17.822,143.127,1
8.53389,0.493,-0.095,-0.8,-34.057,-20.69,144.836,1
8.540927,0.46,-0.087,-0.827,-15.624,-23.864,145.996,1
8.549745,0.436,-0.085,-0.853,-0.732,-25.878,146.667,1
8.556911,0.418,-0.097,-0.889,7.019,-27.343,147.033,1
8.566867,0.408,-0.115,-0.914,4.455,-28.32,147.644,1
8.575293,0.421,-0.124,-0.941,-3.967,-27.893,148.315,1
8.582357,0.431,-0.128,-0.951,-15.197,-27.526,149.414,1
8.590617,0.438,-0.125,-0.955,-24.902,-26.672,151.306,1
8.599092,0.436,-0.119,-0.952,-32.775,-26.245,153.259,1
8.607865,0.428,-0.097,-0.939,-39.245,-25.695,155.517,1
8.614124,0.388,-0.059,-0.917,-42.114,-25.268,157.775,1
8.621906,0.352,-0.035,-0.903,-43.029,-25.878,158.996,1
8.630306,0.342,-0.024,-0.884,-44.494,-24.902,160.095,1
8.638982,0.331,0.015,-0.852,-47.485,-25.512,161.254,1
8.646174,0.301,0.047,-0.828,-46.142,-25.268,162.719,1
8.653337,0.258,0.075,-0.801,-43.334,-26.184,163.574,1
8.661905,0.217,0.095,-0.776,-40.527,-26.245,164.611,1
8.67023,0.204,0.124,-0.746,-34.179,-27.038,166.198,1
8.678049,0.217,0.106,-0.725,-28.137,-27.099,167.907,1
8.685787,0.248,0.096,-0.713,-18.798,-26.489,169.372,1
8.694157,0.297,0.043,-0.765,-18.249,-27.77,171.325,1
8.701194,0.353,-0.071,-0.805,-27.404,-27.526,174.011,1
8.710087,0.367,-0.129,-0.88,-47.851,-26.55,177.001,1
8.717133,0.359,-0.13,-0.896,-67.993,-25.268,180.48,1
8.726009,0.371,-0.143,-0.929,-86.181,-22.766,184.875,1
8.732933,0.332,-0.105,-0.914,-94.97,-21.85,188.598,1
8.741856,0.313,-0.056,-0.891,-96.008,-20.08,192.26,1
8.748957,0.314,0.014,-0.879,-89.599,-19.592,195.495,1
8.75738,0.329,0.099,-0.864,-75.561,-19.958,198.181,1
8.764292,0.335,0.196,-0.847,-56.335,-21.179,200.683,1
8.7729,0.316,0.279,-0.835,-37.597,-22.155,203.369,1
8.779919,0.311,0.366,-0.836,-28.808,-22.949,205.261,1
8.788662,0.311,0.461,-0.839,-23.254,-23.376,206.726,1
8.795211,0.305,0.551,-0.849,-20.69,-23.864,208.007,1
8.803939,0.303,0.635,-0.86,-19.836,-24.353,208.496,1
8.811046,0.277,0.728,-0.874,-21.301,-24.719,208.923,1
8.818875,0.24,0.815,-0.882,-27.038,-25.207,209.045,1
8.826024,0.212,0.912,-0.884,-36.071,-25.39,208.496,1
8.834068,0.172,1.011,-0.892,-43.762,-25.512,207.336,1
8.841975,0.124,1.106,-0.895,-48.645,-26.367,205.139,1
8.849031,0.078,1.174,-0.896,-51.818,-27.343,202.209,1
8.857055,0.036,1.245,-0.889,-54.016,-28.869,198.852,1
8.863478,0.007,1.302,-0.883,-56.152,-29.846,195.373,1
8.87143,-0.023,1.347,-0.868,-56.457,-31.433,190.49,1
8.879683,-0.035,1.37,-0.852,-51.94,-33.874,185.729,1
8.886257,-0.046,1.385,-0.823,-40.588,-36.926,180.664,1
8.894025,-0.059,1.372,-0.792,-23.925,-40.466,175.292,1
8.902758,-0.039,1.362,-0.773,-10.925,-43.64,170.166,1
8.909429,-0.024,1.38,-0.742,-6.042,-46.752,164.855,1
8.916561,-0.003,1.408,-0.708,-4.15,-49.011,159.667,1
8.924914,-0.005,1.436,-0.684,0.732,-52.062,154.541,1
8.932673,-0.002,1.461,-0.654,11.901,-54.931,149.414,1
8.939389,-0.009,1.46,-0.636,17.7,-57.739,144.226,1
8.947742,-0.013,1.431,-0.626,17.639,-58.41,139.16,1
8.959475,-0.025,1.402,-0.637,10.742,-59.57,134.277,1
8.962497,-0.032,1.362,-0.597,6.103,-59.753,129.821,1
8.969793,-0.022,1.313,-0.594,3.967,-59.143,126.098,1
8.977901,-0.125,1.254,-0.613,-5.676,-57.189,122.253,1
8.986028,-0.077,1.227,-0.557,-26.428,-56.091,118.469,1
8.994381,-0.1,1.192,-0.543,-48.034,-50.659,114.807,1
9.001437,-0.15,1.15,-0.502,-67.81,-48.095,111.083,1
9.010111,-0.08,1.144,-0.44,-73.669,-41.503,108.642,1
9.018703,-0.071,1.118,-0.444,-74.768,-40.71,106.079,1
9.025453,-0.06,1.091,-0.368,-68.908,-37.658,104.125,1
9.033782,-0.06,1.077,-0.362,-61.096,-35.339,102.294,1
9.042201,-0.041,1.055,-0.332,-52.307,-34.179,100.646,1
9.050467,0.006,1.046,-0.333,-43.334,-32.287,99.548,1
9.058471,0.026,1.032,-0.34,-38.696,-30.334,98.449,1
9.065498,0.032,1.023,-0.345,-35.827,-29.235,96.984,1
9.073829,0.015,0.986,-0.335,-30.883,-27.954,95.886,1
9.082501,0.022,0.954,-0.339,-27.282,-26.916,94.97,1
9.089079,0.009,0.918,-0.35,-24.841,-26.489,93.933,1
9.097595,-0.003,0.889,-0.342,-24.169,-25.634,93.322,1
9.10548,-0.004,0.873,-0.339,-22.277,-25.024,92.773,1
9.112568,0.012,0.853,-0.337,-18.127,-25.207,92.529,1
9.120992,0.014,0.823,-0.326,-12.145,-25.085,92.407,1
9.129776,0.016,0.796,-0.33,-6.53,-25.085,92.407,1
9.138207,0.014,0.77,-0.331,-3.845,-24.536,92.712,1
9.145193,0.017,0.753,-0.326,-4.211,-23.864,93.322,1
9.15303,0.015,0.739,-0.327,-6.958,-22.949,94.116,1
9.161686,0.015,0.737,-0.328,-11.84,-21.24,95.092,1
9.168622,0.031,0.724,-0.319,-18.249,-19.409,96.13,1
9.175111,0.043,0.724,-0.315,-23.925,-17.578,97.534,1
9.183366,0.044,0.728,-0.311,-27.77,-15.686,98.876,1
9.190213,0.041,0.733,-0.313,-28.747,-14.099,100.219,1
9.198936,0.028,0.748,-0.316,-28.32,-12.451,101.196,1
9.207244,0.02,0.77,-0.318,-27.77,-11.169,102.294,1
9.213863,0.011,0.787,-0.322,-26.428,-9.826,103.21,1
9.222211,0.012,0.812,-0.324,-23.376,-8.666,103.332,1
9.231036,0.003,0.833,-0.326,-20.08,-7.507,103.149,1
9.237532,-0.01,0.842,-0.326,-19.836,-6.347,102.966,1
9.24634,-0.012,0.857,-0.327,-23.071,-4.333,102.478,1
9.253801,-0.006,0.875,-0.327,-26.55,-2.502,101.928,1
9.260714,0.0,0.891,-0.326,-28.747,-0.793,100.952,1
9.26903,-0.007,0.911,-0.328,-29.113,1.22,99.853,1
9.275679,-0.014,0.917,-0.332,-27.526,2.868,98.937,1
9.284013,-0.01,0.935,-0.336,-23.742,4.211,98.022,1
9.29232,-0.001,0.934,-0.339,-17.883,5.432,97.29,1
9.30082,0.0,0.938,-0.344,-12.573,6.591,96.313,1
9.308748,0.0,0.941,-0.346,-8.483,7.568,95.764,1
9.315425,0.0,0.942,-0.351,-6.713,9.094,95.092,1
9.324093,0.0,0.945,-0.357,-6.652,10.742,94.421,1
9.33027,-0.013,0.95,-0.359,-7.446,12.329,93.566,1
9.33843,-0.031,0.953,-0.365,-8.544,13.854,92.834,1
9.347193,-0.04,0.963,-0.369,-9.948,15.624,92.224,1
9.354145,-0.043,0.972,-0.382,-10.803,17.089,91.003,1
9.362089,-0.048,0.977,-0.387,-10.925,18.554,90.332,1
9.370509,-0.056,0.977,-0.397,-10.498,19.653,89.233,1
9.378769,-0.056,0.976,-0.398,-7.69,20.568,88.012,1
9.387055,-0.058,0.968,-0.403,-2.624,21.24,86.608,1
9.394274,-0.061,0.959,-0.415,3.845,21.24,86.181,1
9.400978,-0.063,0.954,-0.414,10.131,21.118,85.876,1
9.409276,-0.068,0.951,-0.425,15.014,21.179,85.388,1
9.416365,-0.073,0.946,-0.432,17.639,21.362,85.327,1
9.424464,-0.073,0.933,-0.436,17.883,21.911,85.51,1
9.431302,-0.068,0.926,-0.427,17.761,22.338,85.388,1
9.438153,-0.067,0.918,-0.425,18.127,23.193,85.51,1
9.44759,-0.071,0.903,-0.42,19.714,23.864,86.181,1
9.453848,-0.073,0.896,-0.421,22.155,24.658,86.425,1
9.462089,-0.083,0.893,-0.419,25.329,25.207,86.975,1
9.46997,-0.097,0.894,-0.426,28.991,25.573,87.036,1
9.477649,-0.107,0.894,-0.431,32.531,25.634,87.463,1
9.484315,-0.111,0.895,-0.433,37.475,25.756,87.524,1
9.492649,-0.123,0.889,-0.435,42.846,25.634,88.195,1
9.499409,-0.138,0.885,-0.438,47.119,25.39,88.195,1
9.509151,-0.137,0.878,-0.435,49.804,25.512,88.745,1
9.516124,-0.145,0.877,-0.436,50.17,26.489,89.233,1
9.523087,-0.167,0.882,-0.439,49.255,27.099,88.989,1
9.53178,-0.187,0.889,-0.435,47.363,27.587,88.867,1
9.54061,-0.21,0.888,-0.433,45.227,28.381,88.806,1
9.54717,-0.234,0.884,-0.436,42.602,29.052,88.5,1
9.554225,-0.264,0.887,-0.437,38.635,29.663,88.012,1
9.562645,-0.292,0.894,-0.441,35.705,30.151,87.219,1
9.569367,-0.315,0.911,-0.439,36.926,30.212,86.608,1
9.578103,-0.355,0.924,-0.444,42.053,29.785,85.754,1
9.58501,-0.388,0.949,-0.445,50.598,29.052,85.388,1
9.593232,-0.414,0.96,-0.456,59.875,27.709,84.594,1
9.6013,-0.439,0.968,-0.458,68.908,26.733,83.923,1
9.608273,-0.436,0.948,-0.46,74.157,25.39,83.251,1
9.616718,-0.466,0.945,-0.453,75.256,25.207,83.312,1
9.625513,-0.474,0.946,-0.455,73.852,24.475,83.068,1
9.632445,-0.479,0.946,-0.446,71.777,24.78,83.129,1
9.640618,-0.486,0.944,-0.449,68.969,24.78,83.129,1
9.649014,-0.504,0.951,-0.437,65.612,24.841,83.251,1
9.655985,-0.511,0.948,-0.431,61.035,24.78,83.557,1
9.664802,-0.525,0.949,-0.419,56.823,25.634,83.923,1
9.671786,-0.534,0.945,-0.417,52.429,26.062,84.289,1
9.680187,-0.551,0.946,-0.414,48.767,26.611,84.655,1
9.687341,-0.561,0.947,-0.41,46.447,26.977,84.838,1
9.694926,-0.568,0.941,-0.404,45.349,26.977,85.51,1
9.703232,-0.581,0.933,-0.399,45.593,26.916,85.876,1
9.709498,-0.588,0.939,-0.406,44.799,26.794,86.486,1
9.717461,-0.599,0.947,-0.408,44.006,26.306,86.364,1
9.72444,-0.607,0.948,-0.409,42.602,26.0,86.547,1
9.733285,-0.623,0.959,-0.415,41.687,25.512,86.303,1
9.740998,-0.634,0.959,-0.415,37.902,25.085,85.815,1
9.74923,-0.637,0.967,-0.403,32.47,24.902,85.083,1
9.755844,-0.633,0.978,-0.4,28.625,25.085,84.472,1
9.764579,-0.64,0.99,-0.388,26.733,24.536,83.679,1
9.771715,-0.648,1.0,-0.387,27.16,24.23,82.58,1
9.78003,-0.656,1.004,-0.38,29.113,23.681,81.298,1
9.787203,-0.639,1.0,-0.384,29.541,23.132,80.444,1
9.795499,-0.673,1.011,-0.373,27.465,22.827,79.162,1
9.804164,-0.697,1.016,-0.384,29.602,22.155,77.575,1
9.811967,-0.707,1.021,-0.369,35.339,21.423,76.11,1
9.818651,-0.691,1.014,-0.38,38.574,20.507,74.829,1
9.826973,-0.688,1.018,-0.386,36.437,19.897,73.12,1
9.833693,-0.687,1.014,-0.4,28.808,19.592,71.228,1
9.841913,-0.693,1.026,-0.4,18.371,20.019,68.786,1
9.848818,-0.685,1.035,-0.401,8.483,20.202,66.345,1
9.857692,-0.684,1.029,-0.391,1.342,19.897,63.659,1
9.864804,-0.687,1.022,-0.389,-2.685,19.897,61.218,1
9.872095,-0.696,1.02,-0.377,-3.723,19.47,58.776,1
9.880699,-0.68,1.009,-0.373,-1.892,19.287,56.884,1
9.889441,-0.711,1.016,-0.368,-0.671,19.042,54.992,1
9.896389,-0.735,1.02,-0.394,5.859,17.883,52.429,1
9.904345,-0.745,1.02,-0.377,10.437,17.517,50.476,1
9.911383,-0.735,1.018,-0.398,16.54,16.54,48.095,1
9.918414,-0.737,1.002,-0.406,19.775,15.808,45.41,1
9.926688,-0.726,0.984,-0.428,17.15,16.113,42.785,1
9.933526,-0.728,0.964,-0.446,7.568,15.563,39.794,1
9.941299,-0.724,0.937,-0.458,-3.601,16.418,37.17,1
9.950256,-0.727,0.913,-0.467,-24.108,16.479,33.935,1
9.956472,-0.735,0.891,-0.465,-39.306,17.15,31.555,1
9.964921,-0.756,0.876,-0.451,-49.499,16.54,29.785,1
9.973674,-0.779,0.865,-0.433,-51.513,16.357,28.198,1
9.981682,-0.794,0.852,-0.419,-45.898,15.197,27.16,1
9.988642,-0.812,0.831,-0.402,-33.081,13.793,26.489,1
9.997484,-0.816,0.808,-0.393,-19.775,12.145,26.245,1
