timestamp_s,ax,ay,az,gx,gy,gz,label
0.006285,0.077,1.019,0.07,1.464,1.098,1.037,1
0.013082,0.081,1.016,0.074,1.098,1.098,0.671,1
0.019925,0.083,1.012,0.071,0.549,1.037,0.671,1
0.027947,0.083,1.003,0.071,0.183,0.915,0.61,1
0.034421,0.082,0.995,0.073,0.427,0.793,0.549,1
0.041838,0.082,0.981,0.067,-0.183,0.732,0.549,1
0.050107,0.078,0.973,0.07,-0.183,0.549,0.61,1
0.056882,0.082,0.967,0.07,-0.305,0.305,0.793,1
0.065055,0.082,0.97,0.07,0.244,0.244,0.671,1
0.073301,0.085,0.976,0.074,1.464,-0.244,0.915,1
0.080102,0.091,0.978,0.076,2.441,-0.244,0.915,1
0.088547,0.089,0.981,0.079,3.662,-0.549,1.037,1
0.095423,0.096,0.984,0.083,3.906,-0.854,0.915,1
0.102339,0.096,0.979,0.087,2.441,-0.793,0.976,1
0.110416,0.096,0.989,0.097,0.671,-0.549,0.732,1
0.117088,0.102,0.997,0.096,-0.183,-0.244,0.793,1
0.125402,0.103,1.001,0.094,-0.122,-0.549,0.671,1
0.132362,0.103,1.011,0.099,1.647,-0.488,0.854,1
0.140932,0.099,1.008,0.102,2.624,-0.427,0.732,1
0.147999,0.105,1.009,0.101,3.234,-0.549,0.488,1
0.156482,0.106,1.011,0.108,3.234,-0.427,0.61,1
0.163179,0.105,1.014,0.115,2.075,0.0,0.793,1
0.171801,0.11,1.034,0.133,0.488,0.488,0.61,1
0.178525,0.109,1.041,0.137,-0.488,1.037,0.366,1
0.186956,0.117,1.051,0.141,-1.281,1.831,0.427,1
0.193389,0.117,1.05,0.143,-3.112,2.502,-0.061,1
0.202487,0.12,1.053,0.143,-5.065,3.417,0.0,1
0.209089,0.117,1.052,0.143,-7.263,4.089,-0.305,1
0.218421,0.114,1.052,0.141,-9.399,4.699,-0.671,1
0.224649,0.111,1.042,0.134,-10.925,5.432,-1.281,1
0.233235,0.111,1.032,0.136,-12.329,5.493,-1.403,1
0.239895,0.115,1.02,0.131,-13.244,6.225,-1.831,1
0.248336,0.114,1.016,0.131,-14.831,6.713,-1.831,1
0.256145,0.115,1.012,0.138,-15.869,7.202,-1.77,1
0.263137,0.112,1.023,0.136,-16.662,7.995,-2.075,1
0.271595,0.114,1.033,0.135,-16.479,8.422,-2.563,1
0.279735,0.115,1.042,0.132,-15.441,8.422,-2.929,1
0.286623,0.118,1.038,0.123,-14.526,9.155,-3.356,1
0.294849,0.121,1.044,0.114,-13.916,9.46,-3.784,1
0.301781,0.123,1.053,0.107,-12.39,9.521,-4.272,1
0.310325,0.125,1.07,0.103,-11.169,9.765,-4.821,1
0.31833,0.131,1.083,0.095,-11.23,9.948,-5.31,1
0.324952,0.151,1.114,0.092,-11.84,10.498,-5.859,1
0.333572,0.176,1.151,0.079,-13.854,10.803,-6.591,1
0.340493,0.196,1.198,0.065,-16.723,11.169,-7.812,1
0.348506,0.223,1.256,0.049,-19.531,12.084,-9.155,1
0.35683,0.253,1.313,0.015,-22.827,12.756,-10.986,1
0.363618,0.279,1.363,-0.01,-27.465,13.305,-13.122,1
0.371902,0.292,1.415,-0.032,-33.935,14.526,-15.441,1
0.3801,0.31,1.466,-0.062,-38.757,14.892,-17.761,1
0.387442,0.324,1.517,-0.088,-41.381,15.563,-19.836,1
0.395432,0.355,1.572,-0.134,-43.701,15.441,-22.644,1
0.403362,0.373,1.64,-0.19,-44.86,14.77,-25.573,1
0.410746,0.411,1.692,-0.245,-36.743,13.183,-28.198,1
0.419021,0.462,1.75,-0.309,-27.832,10.437,-32.531,1
0.425666,0.48,1.775,-0.313,-20.324,8.728,-36.987,1
0.434209,0.486,1.79,-0.331,-13.244,7.019,-41.198,1
0.442592,0.512,1.802,-0.347,-11.413,4.76,-46.02,1
0.44975,0.519,1.78,-0.345,-16.479,3.295,-51.208,1
0.457883,0.511,1.757,-0.364,-28.93,2.746,-55.48,1
0.464724,0.509,1.726,-0.357,-46.691,1.77,-59.631,1
0.47368,0.542,1.734,-0.354,-62.805,1.281,-64.208,1
0.480467,0.589,1.738,-0.349,-80.261,-0.305,-67.871,1
0.487453,0.685,1.753,-0.332,-97.29,-0.671,-72.082,1
0.495533,0.641,1.812,-0.307,-112.854,-2.136,-76.171,1
0.502554,0.649,1.793,-0.278,-122.863,-3.54,-78.186,1
0.51021,0.609,1.836,-0.273,-130.798,-3.54,-81.176,1
0.517242,0.602,1.858,-0.296,-137.878,-5.615,-85.815,1
0.525608,0.571,1.857,-0.286,-143.981,-7.141,-90.881,1
0.534049,0.522,1.837,-0.296,-149.902,-8.3,-96.008,1
0.540915,0.483,1.835,-0.299,-156.738,-9.643,-100.646,1
0.550203,0.47,1.872,-0.297,-164.916,-11.169,-105.529,1
0.557096,0.447,1.912,-0.288,-172.363,-11.901,-110.656,1
0.565086,0.389,1.945,-0.291,-176.879,-12.878,-114.624,1
0.572947,0.354,1.998,-0.271,-174.56,-14.099,-118.652,1
0.579875,0.357,2.063,-0.26,-159.301,-15.624,-123.474,1
0.588591,0.361,2.189,-0.24,-132.69,-17.883,-129.089,1
0.595201,0.392,2.297,-0.228,-99.365,-20.629,-136.535,1
0.603806,0.414,2.394,-0.259,-70.8,-23.559,-143.31,1
0.610047,0.405,2.453,-0.304,-39.916,-29.174,-151.489,1
0.618486,0.389,2.367,-0.306,-15.197,-34.606,-158.874,1
0.625373,0.396,2.273,-0.32,-8.422,-35.4,-165.466,1
0.633356,0.353,2.198,-0.335,-13.244,-36.071,-172.79,1
0.641347,0.32,2.018,-0.311,-29.907,-35.583,-179.138,1
0.648209,0.251,1.889,-0.271,-59.448,-32.226,-184.875,1
0.655218,0.144,1.77,-0.273,-77.941,-31.616,-189.025,1
0.663719,0.036,1.676,-0.236,-93.627,-35.766,-193.176,1
0.67076,-0.024,1.562,-0.121,-86.547,-39.428,-196.289,1
0.678351,-0.037,1.478,-0.053,-62.011,-43.762,-198.303,1
0.686216,-0.032,1.315,0.024,-11.108,-49.194,-200.805,1
0.693899,-0.001,1.124,0.058,26.428,-52.429,-201.232,1
0.700731,0.056,0.989,0.093,68.176,-54.687,-201.11,1
0.708692,0.117,0.866,0.102,95.581,-55.236,-200.988,1
0.715702,0.152,0.677,0.092,103.454,-51.33,-200.195,1
0.722596,0.205,0.489,-0.007,84.167,-48.156,-198.303,1
0.730597,0.218,0.372,-0.031,47.729,-43.273,-196.35,1
0.738746,0.235,0.314,-0.062,4.455,-38.269,-193.359,1
0.747189,0.26,0.283,-0.066,-46.386,-34.973,-188.415,1
0.755236,0.339,0.372,-0.047,-80.81,-32.104,-186.462,1
0.762857,0.352,0.385,-0.068,-114.379,-33.508,-179.992,1
0.77019,0.472,0.163,-0.113,-145.019,-36.376,-174.194,1
0.778435,0.437,0.233,-0.084,-173.95,-38.452,-167.541,1
0.786472,0.444,0.282,-0.093,-192.749,-41.015,-161.682,1
0.792812,0.404,0.301,-0.069,-209.655,-45.104,-155.517,1
0.801125,0.37,0.275,-0.077,-223.876,-46.325,-148.254,1
0.808933,0.357,0.278,-0.095,-236.694,-50.72,-141.723,1
0.817008,0.338,0.272,-0.093,-245.849,-53.649,-134.704,1
0.823826,0.31,0.29,-0.111,-251.464,-57.373,-128.112,1
0.832874,0.304,0.278,-0.111,-252.075,-61.218,-121.582,1
0.841141,0.244,0.275,-0.116,-244.75,-65.185,-115.234,1
0.848021,0.145,0.32,-0.109,-214.05,-70.617,-107.604,1
0.855899,0.077,0.371,-0.117,-170.349,-76.66,-103.149,1
0.864503,0.133,0.417,-0.112,-105.163,-82.702,-100.646,1
0.870983,0.16,0.456,-0.134,-15.991,-91.613,-100.708,1
0.879278,0.015,0.421,-0.085,83.312,-95.52,-97.106,1
0.88625,0.276,0.308,-0.32,160.583,-101.928,-94.421,1
0.894632,0.48,0.191,-0.223,217.529,-107.116,-93.322,1
0.901409,0.288,0.099,-0.284,257.812,-105.529,-89.538,1
0.908248,0.393,0.018,-0.326,279.785,-106.262,-85.998,1
0.915692,0.422,-0.045,-0.344,286.193,-106.323,-82.275,1
0.923957,0.43,-0.067,-0.302,281.799,-104.98,-75.561,1
0.932009,0.438,-0.05,-0.281,276.672,-102.294,-67.993,1
0.940083,0.477,-0.023,-0.257,275.939,-100.524,-62.622,1
0.946628,0.487,0.029,-0.237,284.301,-99.243,-58.593,1
0.954783,0.496,0.043,-0.228,305.969,-98.571,-59.936,1
0.963057,0.373,0.103,-0.207,327.636,-94.787,-60.485,1
0.971115,0.351,0.199,-0.273,348.815,-83.618,-65.246,1
0.978275,0.62,0.208,-0.519,345.031,-77.819,-78.43,1
0.986378,0.68,0.144,-0.491,310.302,-70.312,-86.73,1
0.994308,0.594,0.109,-0.5,251.464,-58.898,-88.928,1
1.002537,0.589,0.178,-0.507,181.274,-53.955,-90.881,1
1.009468,0.572,0.238,-0.41,129.882,-49.621,-91.979,1
1.017449,0.52,0.294,-0.387,93.688,-46.264,-92.773,1
1.026085,0.498,0.344,-0.35,72.875,-46.508,-94.238,1
1.034431,0.437,0.399,-0.329,58.715,-47.058,-95.458,1
1.041238,0.338,0.463,-0.287,53.588,-49.621,-98.449,1
1.048141,0.264,0.503,-0.243,60.791,-52.551,-100.891,1
1.056046,0.241,0.514,-0.189,78.674,-57.006,-103.332,1
1.063825,0.296,0.469,-0.104,102.05,-60.607,-105.407,1
1.072299,0.357,0.395,-0.028,111.999,-60.241,-106.201,1
1.08023,0.518,0.391,-0.014,113.647,-61.035,-110.107,1
1.088766,0.532,0.39,0.06,119.689,-60.241,-114.44,1
1.095213,0.49,0.35,0.087,129.943,-58.959,-119.323,1
1.103111,0.488,0.319,0.121,139.099,-58.044,-123.474,1
1.110073,0.498,0.271,0.162,148.437,-55.48,-127.685,1
1.118558,0.48,0.205,0.176,156.188,-52.49,-131.286,1
1.124955,0.489,0.131,0.222,158.264,-48.706,-134.704,1
1.132873,0.494,0.037,0.27,155.212,-41.992,-137.084,1
1.140634,0.459,-0.05,0.297,139.77,-35.034,-138.427,1
1.147758,0.496,-0.154,0.343,110.595,-25.817,-138.793,1
1.155137,0.532,-0.253,0.388,66.589,-15.686,-138.732,1
1.163204,0.52,-0.332,0.442,13.854,-4.76,-137.39,1
1.170095,0.48,-0.375,0.524,-33.203,5.981,-134.887,1
1.178336,0.429,-0.377,0.593,-61.157,15.014,-131.958,1
1.185619,0.401,-0.378,0.667,-62.499,21.667,-128.356,1
1.193233,0.378,-0.39,0.752,-33.935,27.038,-123.657,1
1.201744,0.415,-0.393,0.842,29.846,31.982,-117.614,1
1.208805,0.466,-0.435,0.857,115.661,35.827,-111.389,1
1.215778,0.448,-0.522,0.815,194.274,39.245,-104.37,1
1.224122,0.432,-0.662,0.742,233.215,45.104,-97.412,1
1.230974,0.411,-0.844,0.686,216.918,54.626,-89.782,1
1.238813,0.439,-0.961,0.694,170.654,67.81,-83.374,1
1.245425,0.39,-1.032,0.717,98.999,83.557,-75.073,1
1.253858,0.258,-1.051,0.712,30.151,100.524,-67.199,1
1.260195,0.105,-0.978,0.764,-17.822,112.304,-60.668,1
1.268869,-0.122,-0.912,0.828,-29.968,121.704,-54.748,1
1.276785,-0.335,-0.881,0.868,-18.249,129.821,-49.316,1
1.283517,-0.54,-0.911,0.876,-9.643,138.244,-44.494,1
1.291565,-0.668,-0.93,0.846,-13.671,147.644,-39.916,1
1.298949,-0.713,-0.995,0.791,-30.517,160.644,-36.01,1
1.307718,-0.837,-1.052,0.739,-53.283,168.762,-32.775,1
1.315636,-1.021,-1.069,0.689,-61.767,181.396,-28.93,1
1.322679,-1.002,-1.15,0.664,-57.739,187.072,-25.512,1
1.331392,-1.102,-1.218,0.581,-44.372,194.885,-20.874,1
1.339413,-1.111,-1.429,0.449,-38.452,199.89,-13.122,1
1.347735,-1.128,-1.605,0.369,-45.654,207.946,-5.004,1
1.354323,-1.228,-1.765,0.27,-63.415,214.843,4.394,1
1.361931,-1.383,-1.845,0.222,-95.52,221.984,14.16,1
1.368857,-1.532,-1.923,0.201,-119.873,232.055,24.047,1
1.377023,-1.476,-2.0,0.08,-126.403,239.562,34.484,1
1.384022,-1.52,-2.118,0.031,-134.704,244.628,44.86,1
1.392126,-1.686,-2.213,-0.042,-141.723,253.051,57.373,1
1.400534,-1.836,-2.333,-0.113,-154.235,259.399,69.946,1
1.40767,-1.999,-2.416,-0.16,-168.273,267.456,83.801,1
1.41625,-2.169,-2.482,-0.215,-174.865,274.536,97.778,1
1.424122,-2.383,-2.542,-0.249,-166.259,282.348,115.539,1
1.432392,-2.539,-2.641,-0.28,-157.531,288.085,132.629,1
1.439117,-2.763,-2.703,-0.36,-158.02,295.837,150.695,1
1.447456,-3.085,-2.699,-0.414,-158.447,304.199,170.104,1
1.455947,-3.356,-2.687,-0.5,-142.272,310.913,194.213,1
1.463711,-3.719,-2.626,-0.545,-110.534,316.894,216.613,1
1.472243,-4.012,-2.661,-0.669,-81.848,321.594,240.844,1
1.480282,-4.451,-2.637,-0.768,-71.411,328.308,272.033,1
1.487222,-4.971,-2.57,-0.895,-67.687,334.899,305.297,1
1.495223,-5.498,-2.486,-0.981,-61.096,339.477,334.899,1
1.50333,-6.045,-2.432,-1.072,-56.762,343.811,361.267,1
1.509886,-6.607,-2.406,-1.172,-47.485,345.947,395.019,1
1.519845,-7.28,-2.37,-1.263,-21.24,346.618,431.945,1
1.529021,-8.298,-2.355,-1.363,68.908,334.167,489.318,1
1.538976,-9.185,-2.427,-1.474,176.086,312.805,549.377,1
1.547806,-10.54,-2.564,-1.606,265.991,274.902,629.272,1
1.555802,-11.75,-2.712,-1.707,322.57,241.21,697.875,1
1.562686,-13.189,-2.695,-1.77,360.717,189.697,783.142,1
1.571309,-14.882,-2.456,-1.774,399.902,138.427,857.91,1
1.577784,-15.999,-2.047,-1.624,465.881,70.983,932.006,1
1.585636,-15.999,-1.641,-1.486,551.818,-9.155,1004.089,1
1.593627,-15.999,-1.267,-1.429,626.77,-108.215,1070.251,1
1.601919,-15.999,-0.869,-1.202,666.381,-217.285,1127.319,1
1.609057,-15.999,-0.208,-0.84,680.236,-326.354,1172.424,1
1.617105,-15.999,0.399,-0.548,706.909,-465.759,1206.481,1
1.624188,-15.999,1.038,-0.119,755.31,-589.904,1216.186,1
1.631263,-15.999,1.662,0.324,808.41,-704.711,1207.58,1
1.638062,-15.999,1.988,0.824,893.127,-852.05,1176.086,1
1.646377,-15.999,2.208,1.627,954.589,-1010.864,1122.802,1
1.653513,-15.999,2.508,2.887,1059.326,-1147.094,1038.635,1
1.660386,-15.999,2.467,3.42,1125.549,-1265.564,922.058,1
1.668916,-15.999,2.921,4.032,1125.488,-1349.487,786.437,1
1.676635,-15.999,3.866,4.27,1187.5,-1404.052,618.835,1
1.68341,-15.999,4.26,4.291,1284.912,-1443.115,412.597,1
1.690071,-15.999,3.905,4.12,1284.179,-1447.204,223.571,1
1.697732,-15.999,3.568,3.784,1140.258,-1415.344,3.295,1
1.704744,-15.999,3.425,4.093,974.731,-1336.791,-179.26,1
1.71207,-15.999,2.849,3.799,894.531,-1244.079,-325.622,1
1.719974,-15.999,2.247,3.383,852.416,-1173.4,-426.818,1
1.727308,-15.999,1.868,3.208,782.47,-1070.434,-526.794,1
1.734215,-15.999,1.665,3.116,656.249,-970.947,-604.553,1
1.742332,-15.999,1.303,2.97,537.353,-865.844,-656.249,1
1.750559,-15.999,1.036,2.661,427.978,-782.104,-691.894,1
1.758292,-15.999,0.754,2.666,355.407,-703.369,-711.364,1
1.764978,-15.999,0.477,2.536,312.5,-638.61,-719.238,1
1.773383,-15.999,0.273,2.498,306.579,-579.711,-718.444,1
1.78052,-15.092,0.078,2.454,329.833,-526.855,-714.843,1
1.788851,-13.493,-0.252,2.448,367.431,-467.285,-709.777,1
1.797607,-12.233,-0.586,2.322,376.953,-399.719,-700.317,1
1.805624,-11.189,-0.887,2.273,362.121,-338.745,-687.316,1
1.813319,-10.109,-1.275,2.153,319.885,-285.949,-669.25,1
1.819939,-9.176,-1.514,2.177,262.512,-225.097,-639.953,1
1.828765,-8.116,-1.662,2.08,236.877,-178.466,-615.173,1
1.8356,-7.223,-1.869,1.997,217.285,-135.681,-589.355,1
1.844421,-6.566,-2.027,1.818,198.974,-95.214,-561.035,1
1.851247,-6.172,-2.107,1.659,195.312,-64.697,-530.822,1
1.858307,-5.566,-2.191,1.543,218.749,-37.414,-499.45,1
1.866847,-5.154,-2.167,1.33,262.023,-11.413,-465.698,1
1.873505,-4.683,-2.162,1.164,297.18,10.681,-431.823,1
1.881929,-4.292,-2.189,0.995,307.373,39.794,-396.85,1
1.888418,-4.018,-2.16,0.814,272.094,63.293,-362.487,1
1.896677,-3.745,-2.017,0.735,244.812,86.181,-329.711,1
1.903738,-3.434,-1.92,0.617,224.365,102.172,-298.828,1
1.911489,-3.125,-1.837,0.569,207.763,116.638,-269.47,1
1.919416,-2.832,-1.749,0.498,189.453,128.845,-242.248,1
1.927176,-2.591,-1.625,0.472,172.424,139.038,-217.346,1
1.934123,-2.35,-1.499,0.439,159.362,147.949,-193.664,1
1.941741,-2.106,-1.363,0.422,153.686,154.479,-172.18,1
1.949572,-1.903,-1.227,0.404,154.357,160.4,-151.977,1
1.956195,-1.74,-1.104,0.364,155.395,164.184,-133.3,1
1.964022,-1.611,-0.999,0.345,154.235,167.968,-115.783,1
1.971909,-1.497,-0.9,0.305,150.268,170.471,-102.355,1
1.979886,-1.425,-0.795,0.278,142.944,172.363,-87.707,1
1.986479,-1.33,-0.719,0.236,134.277,173.522,-73.791,1
1.994578,-1.237,-0.642,0.2,122.863,173.95,-61.645,1
2.001221,-1.16,-0.584,0.174,111.328,173.767,-50.354,1
2.008898,-1.076,-0.52,0.137,98.815,172.851,-40.283,1
2.016085,-0.955,-0.461,0.118,89.172,171.203,-31.738,1
2.02445,-0.856,-0.403,0.089,83.679,168.823,-24.475,1
2.032406,-0.779,-0.352,0.077,80.993,165.893,-18.005,1
2.038881,-0.713,-0.303,0.063,79.772,163.513,-12.695,1
2.047302,-0.637,-0.264,0.035,79.162,160.949,-8.3,1
2.05399,-0.572,-0.238,0.009,77.148,158.508,-4.211,1
2.06202,-0.501,-0.226,0.003,74.707,156.066,0.122,1
2.068554,-0.414,-0.205,-0.01,73.486,154.846,3.173,1
2.075584,-0.314,-0.184,-0.03,73.364,152.221,6.591,1
2.083589,-0.24,-0.156,-0.048,75.988,149.963,9.521,1
2.090455,-0.188,-0.126,-0.066,83.251,146.606,12.695,1
2.098399,-0.093,-0.11,-0.091,93.139,142.761,14.77,1
2.105378,-0.03,-0.09,-0.116,102.905,137.39,15.93,1
2.113729,0.037,-0.078,-0.127,111.022,133.605,17.211,1
2.120561,0.116,-0.068,-0.147,119.934,128.906,18.31,1
2.127496,0.206,-0.061,-0.164,127.868,124.145,19.165,1
2.135527,0.239,-0.054,-0.186,133.972,119.75,19.775,1
2.142175,0.3,-0.062,-0.19,136.108,116.333,20.08,1
2.150044,0.37,-0.073,-0.203,135.559,113.098,20.69,1
2.15668,0.425,-0.086,-0.224,129.028,109.741,20.812,1
2.163661,0.478,-0.079,-0.221,121.52,106.933,20.69,1
2.172315,0.494,-0.078,-0.231,114.99,104.492,20.324,1
2.178782,0.526,-0.066,-0.234,112.06,102.905,19.897,1
2.185708,0.597,-0.049,-0.247,112.426,99.731,19.47,1
2.192603,0.66,-0.018,-0.237,121.093,96.252,18.432,1
2.200883,0.688,0.019,-0.236,136.352,93.811,17.456,1
2.207544,0.713,0.029,-0.24,158.569,89.233,16.479,1
2.214568,0.754,0.029,-0.249,183.166,86.364,15.624,1
2.22151,0.777,0.026,-0.272,199.584,83.679,15.502,1
2.22823,0.806,0.015,-0.289,211.181,81.359,15.991,1
2.236074,0.806,0.02,-0.307,215.148,80.017,16.174,1
2.242904,0.801,0.04,-0.333,214.843,79.467,16.418,1
2.249943,0.812,0.051,-0.356,211.914,78.613,16.54,1
2.257791,0.824,0.064,-0.381,207.092,78.308,16.418,1
2.264311,0.862,0.081,-0.402,201.721,77.636,16.235,1
2.271524,0.896,0.092,-0.413,198.669,77.697,16.052,1
2.278653,0.912,0.128,-0.439,197.387,77.941,16.235,1
2.287089,0.911,0.17,-0.457,202.819,76.904,15.624,1
2.294248,0.911,0.204,-0.47,213.195,75.622,15.197,1
2.300826,0.906,0.235,-0.49,231.079,73.242,15.197,1
2.307724,0.936,0.264,-0.509,252.807,70.617,15.136,1
2.316269,0.971,0.276,-0.526,270.751,68.481,15.624,1
2.322665,1.014,0.283,-0.576,279.602,68.298,16.296,1
2.329984,0.909,0.322,-0.592,280.883,65.49,17.333,1
2.336929,0.952,0.379,-0.622,281.494,66.162,18.31,1
2.345362,0.955,0.447,-0.647,280.639,64.27,19.104,1
2.351997,0.951,0.492,-0.636,281.982,63.72,19.287,1
2.359563,0.915,0.546,-0.659,284.057,62.805,19.409,1
2.365982,0.916,0.591,-0.659,287.902,61.462,18.92,1
2.373487,0.948,0.63,-0.651,290.1,60.913,18.859,1
2.380866,0.98,0.687,-0.663,294.128,60.546,18.005,1
2.387481,1.02,0.744,-0.687,294.433,59.509,16.967,1
2.39484,1.077,0.818,-0.723,289.855,59.326,15.869,1
2.402894,1.133,0.934,-0.777,284.484,57.128,14.465,1
2.409693,1.162,1.007,-0.79,280.395,54.443,12.451,1
2.416428,1.214,1.095,-0.811,274.902,52.124,10.437,1
2.423711,1.28,1.161,-0.819,267.211,49.011,7.934,1
2.431598,1.332,1.222,-0.81,259.399,47.912,5.065,1
2.438654,1.324,1.293,-0.819,242.98,46.813,1.647,1
2.445558,1.278,1.448,-0.778,231.079,46.752,-3.417,1
2.452666,1.182,1.477,-0.793,230.102,45.349,-8.056,1
2.46097,1.125,1.525,-0.762,232.055,44.372,-13.61,1
2.467451,1.094,1.573,-0.785,241.21,43.762,-19.226,1
2.475442,1.031,1.589,-0.789,250.305,42.541,-25.085,1
2.482121,0.98,1.587,-0.805,252.197,43.701,-30.761,1
2.490733,0.907,1.586,-0.84,246.215,43.64,-35.766,1
2.497266,0.829,1.59,-0.848,234.252,45.166,-40.954,1
2.505051,0.763,1.604,-0.869,224.121,46.752,-46.691,1
2.511565,0.696,1.604,-0.889,218.444,46.63,-52.673,1
2.520061,0.622,1.585,-0.887,218.811,46.874,-58.41,1
2.526678,0.566,1.54,-0.881,223.999,45.349,-63.659,1
2.533595,0.519,1.477,-0.862,229.37,45.288,-67.077,1
2.542132,0.504,1.421,-0.867,231.384,45.715,-71.228,1
2.548751,0.494,1.359,-0.868,224.182,46.203,-74.584,1
2.556732,0.514,1.298,-0.869,210.266,47.851,-77.331,1
2.563515,0.482,1.246,-0.858,191.101,49.194,-80.078,1
2.570332,0.455,1.197,-0.84,173.339,51.208,-82.641,1
2.578711,0.477,1.153,-0.832,165.1,51.696,-84.96,1
2.585419,0.487,1.087,-0.79,164.001,50.17,-87.158,1
2.592433,0.505,1.0,-0.741,174.316,51.452,-88.378,1
2.599378,0.525,0.909,-0.754,188.842,49.621,-88.928,1
2.607352,0.526,0.837,-0.68,204.956,48.706,-88.562,1
2.614275,0.557,0.756,-0.701,223.815,50.842,-87.28,1
2.621355,0.547,0.694,-0.673,231.323,48.767,-85.754,1
2.629647,0.53,0.651,-0.69,226.135,55.603,-83.618,1
2.636182,0.479,0.633,-0.739,206.909,56.091,-82.275,1
2.643995,0.448,0.638,-0.677,179.992,59.997,-81.054,1
2.650836,0.427,0.635,-0.757,153.93,62.866,-79.895,1
2.657913,0.388,0.636,-0.73,133.178,63.537,-79.772,1
2.665035,0.376,0.607,-0.752,122.009,65.429,-78.918,1
2.673505,0.373,0.584,-0.791,117.553,63.537,-78.979,1
2.681727,0.381,0.533,-0.764,118.957,63.049,-78.186,1
2.68854,0.412,0.476,-0.786,123.168,61.462,-77.026,1
2.697212,0.456,0.409,-0.742,131.469,60.18,-74.89,1
2.703841,0.509,0.36,-0.732,139.282,60.485,-71.716,1
2.712046,0.564,0.344,-0.716,144.226,60.119,-68.359,1
2.718749,0.595,0.328,-0.702,145.507,61.34,-64.575,1
2.726898,0.604,0.331,-0.729,139.526,62.133,-61.035,1
2.73352,0.581,0.337,-0.75,125.793,63.415,-57.983,1
2.740898,0.569,0.344,-0.78,109.558,64.88,-55.664,1
2.749401,0.569,0.356,-0.805,88.562,65.551,-53.71,1
2.756233,0.544,0.374,-0.827,69.641,66.04,-52.246,1
2.763235,0.539,0.382,-0.855,55.114,66.04,-51.513,1
2.770377,0.522,0.385,-0.873,46.569,65.368,-50.964,1
2.777408,0.52,0.383,-0.882,42.114,64.025,-50.659,1
2.785626,0.531,0.375,-0.886,44.067,61.95,-50.109,1
2.791944,0.553,0.359,-0.875,52.001,59.692,-49.316,1
2.798999,0.589,0.337,-0.873,64.025,57.312,-48.217,1
2.807478,0.643,0.329,-0.876,75.927,55.175,-46.752,1
2.814504,0.693,0.334,-0.886,88.439,53.527,-45.043,1
2.821328,0.703,0.345,-0.907,93.627,51.391,-42.907,1
2.829523,0.695,0.354,-0.934,90.698,50.231,-41.32,1
2.835952,0.692,0.368,-0.96,81.481,48.645,-39.916,1
2.844389,0.68,0.386,-0.971,73.608,47.241,-38.818,1
2.852243,0.672,0.4,-0.977,66.162,45.959,-37.597,1
2.858762,0.659,0.407,-0.979,62.561,43.762,-36.682,1
2.867037,0.662,0.405,-0.978,63.964,41.381,-35.949,1
2.873376,0.687,0.401,-0.973,69.091,39.001,-34.851,1
2.881911,0.711,0.407,-0.973,78.186,36.193,-34.24,1
2.888658,0.744,0.413,-0.962,90.698,33.386,-33.142,1
2.895188,0.773,0.413,-0.948,106.201,30.761,-31.982,1
2.903626,0.776,0.415,-0.935,118.774,28.747,-31.372,1
2.910228,0.793,0.408,-0.916,130.859,27.282,-30.212,1
2.91721,0.828,0.408,-0.905,136.962,25.878,-28.625,1
2.925478,0.861,0.409,-0.893,134.521,25.695,-27.16,1
2.932121,0.863,0.419,-0.905,122.07,25.39,-26.428,1
2.940541,0.853,0.419,-0.896,107.055,25.146,-25.634,1
2.947059,0.839,0.433,-0.885,88.745,24.353,-24.536,1
2.954867,0.85,0.457,-0.867,75.683,22.644,-23.986,1
2.96148,0.846,0.481,-0.845,70.8,20.812,-23.498,1
2.969115,0.836,0.502,-0.816,71.899,18.127,-23.254,1
2.976278,0.806,0.506,-0.786,77.026,14.831,-23.071,1
2.984496,0.766,0.503,-0.762,83.007,11.84,-23.315,1
2.991095,0.719,0.496,-0.729,87.341,8.911,-23.254,1
2.997658,0.69,0.482,-0.708,85.998,6.896,-23.376,1
3.005727,0.666,0.468,-0.689,79.223,5.798,-23.742,1
3.012768,0.647,0.463,-0.669,67.749,4.577,-23.925,1
3.019722,0.64,0.46,-0.64,55.969,4.028,-24.23,1
3.028561,0.633,0.458,-0.622,46.447,3.112,-24.23,1
3.035652,0.626,0.46,-0.594,40.466,2.38,-24.902,1
3.044021,0.618,0.456,-0.577,36.987,1.22,-24.963,1
3.050532,0.615,0.441,-0.551,35.095,0.366,-24.963,1
3.058477,0.621,0.433,-0.535,33.996,-0.854,-24.658,1
3.06513,0.638,0.428,-0.52,35.034,-2.136,-24.475,1
3.073235,0.646,0.422,-0.506,39.062,-3.723,-24.291,1
3.080316,0.645,0.412,-0.489,43.212,-4.577,-23.62,1
3.087321,0.65,0.4,-0.471,44.738,-5.371,-23.254,1
3.09557,0.644,0.384,-0.458,44.189,-5.615,-22.644,1
3.102258,0.642,0.371,-0.437,44.067,-5.981,-21.606,1
3.110196,0.638,0.351,-0.418,43.64,-5.798,-21.057,1
3.118247,0.633,0.342,-0.394,44.616,-5.493,-20.019,1
3.125195,0.692,0.311,-0.382,43.701,-5.493,-19.592,1
3.133713,0.694,0.291,-0.349,37.353,-4.516,-18.188,1
3.139988,0.672,0.274,-0.354,28.625,-3.295,-16.784,1
3.148273,0.718,0.27,-0.327,21.24,-3.479,-15.38,1
3.154937,0.739,0.27,-0.324,16.052,-1.708,-13.61,1
3.162948,0.769,0.289,-0.322,13.0,-2.136,-12.512,1
3.170796,0.792,0.276,-0.312,9.033,-0.854,-11.413,1
3.177364,0.866,0.265,-0.332,0.427,0.183,-10.253,1
3.186045,0.841,0.271,-0.332,-8.85,-0.793,-9.216,1
3.192595,0.799,0.272,-0.31,-19.531,0.671,-7.995,1
3.199547,0.786,0.281,-0.325,-31.921,0.793,-6.896,1
3.208222,0.795,0.291,-0.328,-45.776,1.037,-4.943,1
3.215501,0.865,0.275,-0.371,-64.27,1.525,-3.051,1
3.222135,0.939,0.256,-0.394,-93.139,3.173,-0.061,1
3.229052,1.02,0.232,-0.454,-124.572,5.554,2.868,1
3.236819,0.925,0.128,-0.393,-168.09,6.103,11.169,1
3.243427,0.936,0.15,-0.463,-202.575,17.15,15.441,1
3.251961,0.896,0.366,-0.489,-221.13,14.892,14.648,1
3.258503,0.896,0.51,-0.519,-205.566,15.441,10.009,1
3.265508,0.867,0.583,-0.541,-175.72,9.338,4.333,1
3.273801,0.829,0.573,-0.507,-121.276,6.103,-0.305,1
3.280675,0.8,0.553,-0.519,-62.499,2.38,-1.892,1
3.288516,0.817,0.547,-0.543,-5.798,-0.488,-3.112,1
3.296247,0.848,0.535,-0.575,39.428,-4.455,-4.516,1
3.303034,0.829,0.504,-0.573,66.223,-6.652,-6.164,1
3.310219,0.83,0.473,-0.572,74.157,-7.08,-7.751,1
3.318146,0.896,0.477,-0.558,71.655,-6.225,-9.277,1
3.326054,0.894,0.484,-0.543,66.955,-5.737,-10.498,1
3.334437,0.881,0.511,-0.5,66.04,-4.211,-11.901,1
3.342431,0.889,0.523,-0.49,67.626,-3.845,-13.305,1
3.349108,0.87,0.524,-0.454,70.922,-2.624,-14.221,1
3.357457,0.878,0.504,-0.436,68.664,-2.563,-13.977,1
3.365399,0.849,0.52,-0.427,65.124,-0.183,-14.526,1
3.372291,0.762,0.527,-0.407,54.687,1.77,-15.624,1
3.38062,0.745,0.494,-0.425,37.292,4.577,-15.869,1
3.388663,0.797,0.452,-0.435,7.873,6.469,-15.136,1
3.395439,0.859,0.441,-0.442,-24.414,10.375,-14.221,1
3.404008,0.885,0.466,-0.437,-51.452,12.634,-13.61,1
3.410879,0.892,0.501,-0.434,-68.115,14.038,-13.732,1
3.417804,0.887,0.52,-0.44,-72.387,14.099,-14.709,1
3.426176,0.866,0.534,-0.442,-65.063,12.451,-15.991,1
3.433201,0.843,0.536,-0.442,-49.987,10.314,-17.7,1
3.441244,0.809,0.52,-0.448,-34.301,8.666,-19.042,1
3.44926,0.788,0.503,-0.456,-16.784,6.53,-20.324,1
3.455853,0.787,0.469,-0.457,-3.479,4.943,-21.545,1
3.464121,0.771,0.446,-0.454,6.103,3.479,-23.193,1
3.472133,0.751,0.434,-0.453,10.253,2.502,-24.719,1
3.478798,0.734,0.409,-0.439,12.512,2.38,-26.733,1
3.487241,0.76,0.376,-0.433,12.329,1.892,-28.198,1
3.495477,0.833,0.346,-0.426,12.939,0.976,-29.296,1
3.501981,0.869,0.339,-0.413,17.089,0.0,-29.418,1
3.511383,0.909,0.313,-0.437,23.864,-1.831,-28.198,1
3.51935,0.932,0.28,-0.441,30.883,-4.15,-27.099,1
3.527509,0.922,0.256,-0.454,34.79,-6.103,-25.39,1
3.535483,0.933,0.234,-0.441,37.902,-7.385,-24.047,1
3.543607,0.96,0.212,-0.443,42.175,-8.239,-22.827,1
3.551653,0.971,0.182,-0.416,44.494,-8.789,-20.996,1
3.560031,1.013,0.195,-0.428,52.368,-7.019,-18.615,1
3.566563,1.003,0.196,-0.46,61.584,-10.986,-16.784,1
3.574971,0.945,0.208,-0.432,77.819,-10.375,-14.404,1
3.582117,0.923,0.253,-0.497,100.891,-13.427,-12.756,1
3.590431,0.897,0.289,-0.504,121.154,-17.272,-13.061,1
3.598381,0.908,0.307,-0.508,143.127,-19.165,-13.061,1
3.606718,0.915,0.314,-0.522,161.132,-23.01,-13.671,1
3.613241,0.909,0.318,-0.529,172.668,-24.169,-13.61,1
3.621409,0.92,0.308,-0.562,170.288,-25.878,-14.404,1
3.629766,0.881,0.306,-0.577,151.367,-25.512,-15.686,1
3.637985,0.883,0.31,-0.594,123.046,-24.536,-16.845,1
3.645818,0.837,0.31,-0.603,85.998,-23.132,-18.066,1
3.653805,0.819,0.318,-0.619,44.067,-21.423,-18.798,1
3.661867,0.817,0.334,-0.628,1.159,-19.409,-19.775,1
3.668741,0.821,0.361,-0.618,-40.771,-18.249,-20.446,1
3.677106,0.819,0.389,-0.604,-62.683,-18.432,-20.69,1
3.685599,0.812,0.4,-0.581,-76.11,-20.69,-20.874,1
3.694148,0.817,0.392,-0.563,-76.354,-22.583,-20.08,1
3.701116,0.82,0.448,-0.528,-58.044,-25.756,-19.653,1
3.708918,0.818,0.472,-0.5,-28.381,-29.968,-20.141,1
3.716792,0.804,0.5,-0.455,8.605,-32.775,-21.118,1
3.724876,0.813,0.506,-0.458,45.715,-36.499,-21.972,1
3.73171,0.805,0.47,-0.426,66.833,-38.879,-23.681,1
3.73963,0.82,0.43,-0.405,66.284,-38.635,-23.986,1
3.74661,0.825,0.419,-0.373,50.109,-37.353,-24.414,1
3.756707,0.819,0.41,-0.333,27.77,-35.095,-24.597,1
3.762922,0.827,0.449,-0.296,8.483,-32.531,-25.451,1
3.771022,0.811,0.481,-0.252,-3.356,-31.433,-26.55,1
3.777574,0.81,0.496,-0.227,-3.173,-31.005,-27.221,1
3.785648,0.839,0.501,-0.21,5.615,-31.433,-27.099,1
3.794276,0.888,0.527,-0.175,24.963,-31.799,-28.015,1
3.801215,0.895,0.507,-0.168,42.358,-32.897,-29.113,1
3.809156,0.897,0.474,-0.134,51.879,-32.226,-29.479,1
3.817547,0.936,0.437,-0.115,52.734,-30.822,-29.602,1
3.825466,0.976,0.408,-0.077,45.959,-29.052,-28.991,1
3.832397,1.005,0.427,-0.055,37.78,-25.512,-29.235,1
3.840336,1.014,0.45,-0.039,32.043,-23.62,-29.907,1
3.848789,0.988,0.459,-0.011,29.174,-20.385,-30.578,1
3.855524,0.988,0.477,-0.002,29.479,-18.127,-31.372,1
3.863636,1.008,0.505,0.006,34.423,-15.686,-32.958,1
3.870104,1.004,0.511,0.01,42.785,-14.465,-34.79,1
3.878789,0.996,0.496,0.019,49.194,-13.244,-36.01,1
3.885356,1.003,0.481,0.023,55.969,-11.779,-37.536,1
3.894351,1.012,0.456,0.026,61.279,-10.009,-39.123,1
3.900539,1.024,0.42,0.027,64.208,-8.056,-40.71,1
3.907914,1.046,0.383,0.032,64.514,-5.92,-41.809,1
3.915971,1.083,0.337,0.027,63.354,-3.723,-42.419,1
3.922817,1.1,0.305,0.028,60.729,-1.22,-42.846,1
3.930621,1.15,0.275,0.011,57.617,1.342,-43.212,1
3.937204,1.184,0.258,0.005,54.687,3.845,-43.334,1
3.944274,1.214,0.256,-0.008,54.992,5.432,-42.907,1
3.952569,1.242,0.25,-0.031,60.119,6.164,-42.419,1
3.959208,1.274,0.245,-0.051,63.415,5.981,-42.236,1
3.967616,1.258,0.245,-0.051,65.429,6.652,-42.175,1
3.974626,1.234,0.239,-0.077,64.88,6.164,-42.236,1
3.981575,1.183,0.234,-0.081,61.34,5.981,-42.48,1
3.989635,1.164,0.214,-0.11,53.283,6.774,-42.907,1
3.996441,1.138,0.208,-0.121,41.87,6.774,-43.395,1
4.004619,1.091,0.185,-0.141,25.329,8.239,-43.762,1
4.011538,1.081,0.181,-0.152,5.554,8.728,-44.006,1
4.019439,1.088,0.186,-0.159,-11.291,9.826,-44.311,1
4.026308,1.138,0.204,-0.186,-24.78,9.826,-44.616,1
4.034833,1.149,0.238,-0.202,-32.897,9.46,-44.982,1
4.04146,1.158,0.287,-0.237,-30.944,8.544,-45.104,1
4.049446,1.142,0.331,-0.265,-19.653,5.615,-45.776,1
4.057875,1.123,0.373,-0.296,-2.319,2.624,-46.874,1
4.065209,1.129,0.395,-0.326,15.686,-0.976,-47.302,1
4.073484,1.125,0.407,-0.362,29.113,-4.211,-47.546,1
4.080275,1.079,0.414,-0.393,33.264,-7.019,-48.278,1
4.088237,1.006,0.424,-0.412,27.648,-8.239,-49.194,1
4.096461,0.989,0.437,-0.433,17.7,-9.094,-50.048,1
4.104603,0.907,0.443,-0.441,4.943,-9.826,-51.513,1
4.112825,0.845,0.461,-0.458,-7.812,-10.07,-53.283,1
4.119167,0.787,0.468,-0.466,-17.578,-11.474,-55.114,1
4.127472,0.73,0.473,-0.463,-20.08,-12.451,-56.64,1
4.135882,0.71,0.473,-0.466,-14.892,-15.258,-58.654,1
4.142632,0.708,0.463,-0.463,-4.272,-17.395,-60.546,1
4.151227,0.712,0.428,-0.471,8.117,-19.775,-62.255,1
4.158177,0.704,0.389,-0.466,19.226,-22.277,-64.025,1
4.166464,0.674,0.34,-0.465,27.465,-24.597,-65.429,1
4.175596,0.635,0.271,-0.458,31.921,-26.916,-66.894,1
4.182303,0.6,0.204,-0.444,31.555,-28.991,-67.626,1
4.191161,0.57,0.125,-0.419,31.005,-30.639,-68.054,1
4.198941,0.553,0.056,-0.394,31.311,-33.02,-67.81,1
4.206283,0.531,-0.007,-0.351,34.973,-35.461,-66.467,1
4.214422,0.508,-0.047,-0.312,41.442,-37.963,-64.941,1
4.222956,0.5,-0.092,-0.274,50.781,-40.527,-62.744,1
4.230278,0.546,-0.154,-0.235,59.692,-41.625,-59.814,1
4.238506,0.608,-0.185,-0.215,66.406,-42.297,-55.664,1
4.24583,0.686,-0.213,-0.207,70.861,-42.541,-51.574,1
4.253969,0.722,-0.21,-0.192,76.171,-43.701,-46.447,1
4.262047,0.739,-0.2,-0.187,81.787,-44.006,-42.175,1
4.270553,0.759,-0.175,-0.191,86.059,-44.738,-38.452,1
4.277403,0.79,-0.162,-0.177,88.012,-44.616,-35.522,1
4.286056,0.866,-0.143,-0.188,88.256,-44.799,-33.264,1
4.292657,0.969,-0.123,-0.16,87.402,-45.288,-31.005,1
4.301189,1.067,-0.086,-0.151,86.914,-44.433,-29.479,1
4.308009,1.117,-0.047,-0.128,84.533,-45.104,-27.526,1
4.315042,1.162,0.009,-0.109,81.542,-44.616,-25.817,1
4.322987,1.153,0.049,-0.094,75.134,-45.288,-26.184,1
4.329892,1.153,0.088,-0.043,65.307,-44.189,-26.245,1
4.338023,1.207,0.156,-0.045,54.687,-42.175,-27.099,1
4.345988,1.264,0.249,-0.049,45.166,-41.87,-29.418,1
4.354413,1.281,0.319,-0.053,41.87,-41.87,-31.799,1
4.361346,1.302,0.411,-0.058,44.555,-42.175,-34.79,1
4.369783,1.301,0.426,-0.074,46.325,-42.907,-37.658,1
4.378227,1.367,0.559,-0.089,49.438,-41.564,-41.87,1
4.386141,1.341,0.602,-0.099,53.039,-43.457,-49.438,1
4.393093,1.287,0.598,-0.063,48.034,-40.71,-55.236,1
4.402804,1.251,0.642,-0.05,33.02,-37.78,-61.401,1
4.409262,1.189,0.692,-0.008,20.69,-35.644,-69.396,1
4.417672,1.149,0.716,0.054,21.362,-33.447,-76.416,1
4.42602,1.148,0.732,0.08,30.212,-32.47,-84.045,1
4.43236,1.135,0.724,0.115,46.081,-33.02,-91.613,1
4.439455,1.104,0.658,0.155,59.57,-32.287,-98.693,1
4.447923,1.101,0.568,0.187,61.462,-31.005,-105.346,1
4.45598,1.086,0.492,0.257,58.837,-28.076,-111.45,1
4.46251,1.086,0.443,0.313,65.002,-25.573,-118.041,1
4.470622,1.043,0.351,0.399,76.11,-23.742,-123.718,1
4.478882,1.051,0.271,0.485,91.491,-20.019,-129.15,1
4.487978,0.974,0.201,0.555,112.854,-16.418,-135.742,1
4.49493,0.896,0.085,0.639,130.554,-11.474,-140.93,1
4.50373,0.867,-0.011,0.699,145.385,-4.638,-145.751,1
4.511953,0.789,-0.142,0.757,152.221,3.173,-149.108,1
4.519445,0.738,-0.247,0.787,150.695,13.854,-151.428,1
4.527925,0.681,-0.354,0.808,141.967,23.986,-151.977,1
4.535427,0.673,-0.468,0.815,124.328,36.499,-151.306,1
4.542956,0.621,-0.559,0.816,103.21,47.729,-149.841,1
4.552609,0.536,-0.646,0.776,75.012,58.959,-148.254,1
4.559415,0.425,-0.736,0.73,31.738,70.983,-147.155,1
4.56845,0.364,-0.795,0.722,-0.976,79.284,-145.751,1
4.575534,0.229,-0.829,0.714,-22.644,88.195,-143.981,1
4.583355,0.046,-0.817,0.704,-29.541,94.36,-141.601,1
4.592182,0.037,-0.891,0.618,-29.907,101.501,-139.465,1
4.600005,-0.068,-0.983,0.568,-48.95,108.093,-136.291,1
4.608345,-0.119,-1.062,0.477,-77.026,116.882,-132.507,1
4.615313,-0.125,-1.098,0.392,-98.937,123.535,-127.441,1
4.624202,-0.127,-1.083,0.314,-103.393,128.54,-120.91,1
4.633442,-0.165,-1.145,0.221,-98.571,130.676,-115.234,1
4.6407,-0.251,-1.194,0.148,-88.928,134.033,-107.238,1
4.649613,-0.253,-1.296,0.054,-84.533,135.498,-100.28,1
4.657358,-0.3,-1.373,0.009,-82.031,139.282,-91.064,1
4.664058,-0.354,-1.461,-0.055,-87.402,140.808,-81.726,1
4.672662,-0.406,-1.566,-0.104,-87.829,144.531,-73.181,1
4.680524,-0.453,-1.61,-0.129,-86.425,146.606,-61.645,1
4.691136,-0.532,-1.706,-0.177,-79.101,148.315,-51.452,1
4.700352,-0.677,-1.837,-0.205,-88.562,152.404,-36.926,1
4.709076,-0.787,-1.917,-0.256,-103.271,155.456,-24.291,1
4.717495,-0.993,-1.973,-0.235,-105.041,157.348,-10.314,1
4.724469,-1.096,-2.034,-0.256,-82.153,160.278,5.065,1
4.734298,-1.115,-2.126,-0.238,-67.993,161.01,18.493,1
4.741262,-1.311,-2.222,-0.275,-64.697,165.222,35.4,1
4.751503,-1.375,-2.281,-0.239,-71.289,169.616,53.039,1
4.758488,-1.499,-2.356,-0.263,-82.641,175.903,71.289,1
4.767642,-1.643,-2.37,-0.228,-83.862,180.786,86.914,1
4.774634,-1.831,-2.453,-0.255,-71.594,185.852,107.482,1
4.783952,-1.934,-2.518,-0.246,-58.105,189.453,125.61,1
4.792986,-2.109,-2.603,-0.332,-35.583,193.054,149.902,1
4.80173,-2.454,-2.65,-0.367,-12.878,191.711,176.33,1
4.808739,-2.817,-2.633,-0.403,33.447,192.749,203.002,1
4.817739,-3.138,-2.729,-0.464,79.101,185.974,235.656,1
4.824622,-3.588,-2.773,-0.523,85.449,187.316,265.197,1
4.83538,-4.036,-2.811,-0.638,60.058,186.279,296.752,1
4.842805,-4.536,-2.737,-0.66,29.907,192.321,341.613,1
4.849854,-4.913,-2.708,-0.733,20.996,191.833,375.671,1
4.857603,-5.452,-2.711,-0.783,-2.868,193.969,411.254,1
4.866855,-5.927,-2.62,-0.852,-38.574,201.171,455.017,1
4.874797,-6.646,-2.5,-0.9,-52.795,203.369,492.858,1
4.885583,-7.352,-2.372,-0.958,-24.475,207.153,539.55,1
4.892819,-8.448,-2.294,-1.07,53.71,196.472,597.045,1
4.900442,-9.435,-2.288,-1.193,119.323,183.471,645.08,1
4.909451,-10.742,-2.284,-1.333,167.541,162.475,696.105,1
4.916482,-12.011,-2.219,-1.455,209.777,134.643,759.216,1
4.924032,-13.55,-2.135,-1.615,233.276,101.745,815.917,1
4.933095,-15.148,-1.968,-1.63,261.352,65.979,873.474,1
4.942277,-15.992,-1.628,-1.708,316.284,9.216,939.941,1
4.950006,-15.999,-1.291,-1.683,388.488,-63.537,1004.699,1
4.956984,-15.999,-0.919,-1.657,456.237,-141.357,1055.908,1
4.966676,-15.999,-0.47,-1.536,519.287,-232.421,1099.06,1
4.973458,-15.999,0.186,-1.257,564.086,-333.312,1132.019,1
4.982872,-15.999,0.811,-0.906,594.909,-458.74,1154.846,1
4.989839,-15.999,1.688,-0.378,625.915,-570.556,1156.616,1
4.997388,-15.999,2.284,0.076,665.71,-708.923,1136.047,1
5.006006,-15.999,2.755,0.627,715.209,-835.998,1099.426,1
5.015142,-15.999,3.197,1.45,827.148,-995.3,1031.799,1
5.022024,-15.999,3.394,2.23,990.112,-1146.118,943.847,1
5.028753,-15.999,3.918,3.35,1223.754,-1284.301,826.171,1
5.036959,-15.999,4.843,3.816,1572.326,-1413.268,624.633,1
5.045988,-15.999,4.782,3.883,1867.065,-1507.812,331.054,1
5.055289,-15.999,4.098,3.433,1864.196,-1510.742,-2.624,1
5.063787,-15.999,3.155,3.644,1440.429,-1377.746,-380.859,1
5.070578,-15.999,2.686,3.935,1119.628,-1213.44,-561.767,1
5.077517,-15.999,2.332,3.882,926.208,-1059.204,-682.311,1
5.08541,-15.999,1.782,3.227,813.537,-913.879,-764.648,1
5.094254,-15.999,1.248,2.41,642.639,-773.437,-824.951,1
5.103392,-15.999,1.148,2.283,503.845,-669.494,-850.83,1
5.109811,-15.999,1.163,1.988,442.565,-575.744,-865.051,1
5.118708,-15.999,1.094,1.935,450.195,-506.713,-871.398,1
5.127546,-15.999,0.762,1.749,453.552,-423.034,-869.995,1
5.135696,-15.999,0.459,1.726,430.053,-355.834,-859.252,1
5.144907,-15.97,0.089,1.711,381.896,-277.648,-836.608,1
5.152132,-14.752,-0.123,1.722,330.017,-217.59,-811.279,1
5.159231,-13.305,-0.255,1.652,294.799,-159.79,-777.404,1
5.168891,-12.21,-0.419,1.609,297.973,-117.553,-746.582,1
5.176259,-10.858,-0.606,1.461,296.386,-71.777,-710.876,1
5.183275,-9.877,-0.716,1.467,306.762,-33.996,-677.246,1
5.192548,-8.952,-0.968,1.228,299.133,6.103,-643.188,1
5.200811,-8.287,-1.12,1.127,263.122,52.734,-605.896,1
5.20868,-7.697,-1.2,0.893,210.571,87.036,-573.913,1
5.216192,-7.134,-1.207,0.734,160.217,115.905,-538.94,1
5.225349,-6.687,-1.204,0.596,144.531,133.239,-509.704,1
5.232465,-6.199,-1.232,0.474,147.155,148.559,-476.501,1
5.240473,-5.818,-1.314,0.331,150.329,158.935,-447.021,1
5.249236,-5.416,-1.4,0.222,134.826,168.273,-418.273,1
5.258024,-4.922,-1.507,0.108,106.75,177.246,-390.624,1
5.26583,-4.436,-1.514,0.053,78.002,182.617,-359.008,1
5.275175,-4.027,-1.569,-0.056,66.711,183.349,-328.43,1
5.281373,-3.647,-1.527,-0.034,71.35,181.152,-304.26,1
5.290216,-3.375,-1.565,-0.063,83.068,179.321,-277.038,1
5.299292,-3.103,-1.607,-0.048,75.683,178.344,-254.211,1
5.306504,-2.717,-1.621,-0.037,60.974,178.1,-228.881,1
5.315619,-2.456,-1.628,-0.021,43.395,177.795,-208.984,1
5.322919,-2.264,-1.578,-0.006,32.287,176.818,-186.279,1
5.330867,-1.956,-1.563,-0.001,48.034,173.217,-168.334,1
5.339905,-1.799,-1.629,-0.062,34.667,170.104,-147.827,1
5.347702,-1.686,-1.542,-0.065,15.991,169.006,-132.019,1
5.357284,-1.527,-1.467,-0.082,8.85,164.306,-114.929,1
5.365858,-1.422,-1.445,-0.093,13.732,158.203,-98.876,1
5.374005,-1.267,-1.443,-0.108,19.653,151.916,-83.618,1
5.380841,-1.126,-1.442,-0.136,19.531,146.789,-70.739,1
5.389343,-0.939,-1.407,-0.168,20.08,140.502,-56.396,1
5.398201,-0.739,-1.358,-0.205,25.085,134.399,-44.372,1
5.406741,-0.594,-1.311,-0.25,30.273,127.319,-32.714,1
5.415512,-0.388,-1.228,-0.274,37.597,119.445,-19.714,1
5.42457,-0.274,-1.152,-0.292,47.607,111.328,-8.178,1
5.433074,-0.145,-1.071,-0.295,54.077,103.576,2.38,1
5.441354,-0.052,-0.979,-0.296,60.302,96.557,11.23,1
5.449089,0.034,-0.893,-0.29,66.894,90.209,18.493,1
5.457809,0.12,-0.816,-0.285,75.866,83.984,24.169,1
5.466711,0.212,-0.756,-0.28,85.205,79.101,28.686,1
5.474234,0.262,-0.683,-0.275,92.346,73.852,32.165,1
5.481431,0.291,-0.634,-0.264,98.388,69.274,35.217,1
5.487949,0.319,-0.592,-0.257,100.341,65.246,37.719,1
5.496218,0.369,-0.56,-0.245,95.581,61.95,40.161,1
5.504322,0.408,-0.511,-0.244,86.73,59.204,41.87,1
5.510732,0.472,-0.421,-0.22,83.251,55.969,44.006,1
5.519034,0.498,-0.349,-0.206,88.562,51.757,45.41,1
5.525656,0.519,-0.272,-0.187,96.252,47.79,45.837,1
5.532779,0.533,-0.223,-0.185,98.449,44.738,45.41,1
5.54115,0.569,-0.182,-0.195,93.139,41.748,44.982,1
5.548575,0.611,-0.113,-0.196,85.998,39.001,43.701,1
5.55537,0.625,-0.037,-0.205,82.763,36.621,42.236,1
5.562062,0.637,0.02,-0.196,86.791,32.592,39.978,1
5.569103,0.625,0.072,-0.196,99.609,28.137,36.621,1
5.57676,0.645,0.094,-0.184,115.539,24.108,34.362,1
5.583865,0.725,0.08,-0.171,136.291,19.287,31.494,1
5.592216,0.815,0.048,-0.173,151.184,15.93,29.724,1
5.598573,0.856,0.034,-0.17,156.738,13.549,28.198,1
5.607341,0.843,0.033,-0.156,154.724,12.023,26.672,1
5.613937,0.845,0.032,-0.153,147.033,10.925,25.512,1
5.620613,0.904,0.036,-0.143,138.732,10.559,24.963,1
5.627528,0.957,0.041,-0.149,128.417,10.375,24.047,1
5.635983,1.018,0.083,-0.148,122.314,9.46,23.132,1
5.642764,1.044,0.124,-0.145,123.84,8.422,21.789,1
5.649807,1.045,0.17,-0.144,130.31,6.774,20.019,1
5.656658,1.048,0.18,-0.147,138.488,4.943,18.31,1
5.663614,1.024,0.188,-0.131,143.92,3.784,17.028,1
5.671925,1.07,0.192,-0.114,151.184,2.807,15.502,1
5.678584,1.072,0.19,-0.113,158.691,2.502,13.61,1
5.686914,1.083,0.186,-0.102,166.503,1.037,11.84,1
5.693958,1.08,0.131,-0.098,175.964,1.403,10.192,1
5.700333,1.12,0.089,-0.107,179.931,1.281,8.605,1
5.708206,1.153,0.046,-0.094,180.419,2.441,7.812,1
5.716708,1.198,0.028,-0.102,180.664,3.417,7.568,1
5.72338,1.244,0.031,-0.092,184.753,4.516,7.446,1
5.731229,1.251,0.04,-0.1,190.551,5.31,7.873,1
5.739016,1.21,0.049,-0.117,193.298,6.53,8.056,1
5.747003,1.256,0.063,-0.122,192.687,7.812,8.605,1
5.753127,1.244,0.089,-0.144,193.176,9.521,8.789,1
5.760232,1.244,0.101,-0.154,191.894,9.765,8.666,1
5.768973,1.254,0.112,-0.157,190.429,12.145,8.483,1
5.77538,1.273,0.119,-0.17,188.659,14.038,8.728,1
5.783616,1.32,0.121,-0.179,188.842,15.991,9.155,1
5.790303,1.373,0.135,-0.206,193.664,17.15,9.826,1
5.798102,1.453,0.149,-0.235,208.618,16.479,11.047,1
5.804682,1.497,0.194,-0.27,241.638,15.93,11.962,1
5.811676,1.575,0.202,-0.289,272.827,11.657,13.427,1
5.818559,1.605,0.256,-0.302,301.818,11.779,14.587,1
5.826198,1.619,0.312,-0.381,331.054,8.117,15.258,1
5.834396,1.56,0.349,-0.373,351.013,7.507,15.624,1
5.841124,1.488,0.388,-0.421,353.576,8.728,15.686,1
5.849243,1.446,0.433,-0.45,335.51,9.094,13.977,1
5.856161,1.384,0.465,-0.442,312.622,12.39,12.695,1
5.86274,1.333,0.491,-0.471,274.292,15.747,10.559,1
5.869832,1.24,0.538,-0.47,231.567,19.165,7.629,1
5.877561,1.159,0.574,-0.469,200.988,21.789,5.31,1
5.885774,1.127,0.601,-0.454,178.955,22.949,2.136,1
5.892599,1.128,0.645,-0.434,176.269,22.766,-0.244,1
5.899477,1.101,0.695,-0.444,185.119,22.46,-2.807,1
5.906569,1.072,0.711,-0.463,195.251,19.958,-5.493,1
5.914313,1.041,0.715,-0.461,202.941,18.493,-7.202,1
5.922622,1.024,0.724,-0.47,210.937,16.784,-9.277,1
5.929051,0.995,0.722,-0.458,216.064,15.563,-11.474,1
5.937074,0.969,0.731,-0.445,217.895,15.624,-13.671,1
5.943984,0.92,0.731,-0.449,218.688,15.502,-16.479,1
5.952346,0.904,0.713,-0.434,216.247,16.174,-18.737,1
5.959048,0.861,0.698,-0.432,210.51,17.639,-20.935,1
5.967439,0.857,0.68,-0.446,199.768,18.432,-23.132,1
5.97382,0.833,0.663,-0.451,186.218,19.897,-25.207,1
5.982096,0.792,0.645,-0.458,172.729,20.019,-27.038,1
5.989281,0.76,0.632,-0.453,164.245,20.324,-28.442,1
5.995721,0.744,0.603,-0.446,157.836,19.714,-29.846,1
6.004445,0.721,0.583,-0.431,153.808,19.836,-30.822,1
6.011633,0.722,0.566,-0.419,150.024,19.958,-31.738,1
6.018926,0.701,0.559,-0.416,146.972,20.202,-32.409,1
6.026067,0.669,0.565,-0.399,145.446,20.141,-32.897,1
6.033023,0.645,0.543,-0.393,145.996,20.507,-33.508,1
6.03993,0.631,0.56,-0.375,148.864,20.385,-34.545,1
6.047548,0.604,0.541,-0.364,155.639,20.385,-35.278,1
6.055538,0.615,0.517,-0.37,160.156,20.324,-35.888,1
6.062219,0.648,0.473,-0.364,160.583,20.263,-36.254,1
6.070443,0.655,0.43,-0.354,157.775,20.629,-36.315,1
6.077384,0.671,0.392,-0.35,154.785,21.118,-36.376,1
6.085783,0.69,0.354,-0.335,151.55,21.667,-35.583,1
6.094191,0.707,0.317,-0.335,146.484,22.705,-35.156,1
6.10081,0.709,0.282,-0.333,137.512,23.315,-33.935,1
6.109147,0.693,0.253,-0.327,129.089,24.658,-32.592,1
6.116132,0.686,0.239,-0.334,120.422,25.085,-31.677,1
6.123062,0.681,0.235,-0.31,116.76,25.268,-30.09,1
6.131344,0.692,0.222,-0.319,117.431,26.062,-28.686,1
6.138559,0.705,0.221,-0.325,119.323,25.39,-27.343,1
6.145077,0.73,0.208,-0.313,123.413,25.817,-25.939,1
6.153108,0.75,0.2,-0.314,130.371,26.062,-25.085,1
6.160906,0.771,0.178,-0.308,136.84,26.306,-23.559,1
6.167974,0.801,0.16,-0.299,141.784,27.465,-21.789,1
6.175613,0.821,0.14,-0.302,143.92,29.479,-19.897,1
6.182177,0.833,0.12,-0.295,142.272,31.005,-18.554,1
6.19151,0.808,0.109,-0.312,132.446,33.996,-17.028,1
6.197952,0.778,0.1,-0.318,113.342,38.085,-14.953,1
6.206463,0.765,0.095,-0.321,93.933,41.625,-13.793,1
6.213981,0.742,0.106,-0.334,75.134,45.471,-12.512,1
6.220534,0.728,0.113,-0.348,57.8,48.034,-11.657,1
6.229464,0.745,0.112,-0.343,43.457,49.743,-10.864,1
6.235727,0.75,0.118,-0.356,36.01,51.391,-9.643,1
6.244226,0.772,0.116,-0.349,34.484,51.818,-8.483,1
6.251249,0.794,0.116,-0.334,39.184,51.757,-7.202,1
6.258171,0.826,0.119,-0.334,47.973,51.513,-5.859,1
6.265962,0.829,0.137,-0.349,63.964,50.109,-3.356,1
6.27445,0.831,0.149,-0.369,77.026,48.889,-1.464,1
6.281255,0.83,0.182,-0.371,94.177,47.668,0.732,1
6.288705,0.839,0.21,-0.374,106.811,45.532,2.624,1
6.295902,0.863,0.239,-0.414,115.905,44.738,4.211,1
6.304022,0.877,0.264,-0.415,125.183,43.151,5.859,1
6.311963,0.87,0.282,-0.412,132.019,41.015,6.958,1
6.318742,0.866,0.279,-0.368,135.437,38.024,8.239,1
6.3267,0.832,0.273,-0.4,138.183,37.536,9.826,1
6.333839,0.871,0.264,-0.379,138.244,36.437,11.413,1
6.342183,0.867,0.27,-0.4,135.803,35.766,13.0,1
6.350724,0.869,0.274,-0.409,129.577,36.621,14.526,1
6.357474,0.873,0.29,-0.427,117.614,37.109,16.357,1
6.364431,0.866,0.314,-0.437,108.093,38.269,17.15,1
6.372689,0.863,0.351,-0.427,103.759,38.513,18.188,1
6.379317,0.853,0.381,-0.43,105.834,38.879,18.493,1
6.38735,0.837,0.401,-0.426,113.403,38.391,19.042,1
6.396231,0.824,0.411,-0.417,122.985,37.963,19.47,1
6.402326,0.822,0.423,-0.433,130.798,37.78,20.019,1
6.411117,0.812,0.433,-0.439,133.789,37.536,20.446,1
6.4193,0.813,0.435,-0.452,129.394,38.208,20.69,1
6.425818,0.799,0.441,-0.463,118.164,39.611,21.24,1
6.432895,0.81,0.46,-0.466,103.82,40.832,21.057,1
6.440821,0.815,0.453,-0.438,89.66,40.588,20.812,1
6.448853,0.792,0.461,-0.464,81.054,42.724,20.996,1
6.457156,0.803,0.469,-0.474,76.477,43.09,21.179,1
6.46423,0.793,0.488,-0.467,74.035,43.823,21.423,1
6.47113,0.809,0.495,-0.46,72.998,42.114,21.667,1
6.479482,0.792,0.501,-0.481,71.411,42.724,22.033,1
6.486438,0.747,0.516,-0.501,72.021,42.663,22.399,1
6.494414,0.758,0.527,-0.513,70.007,42.602,22.277,1
6.503121,0.738,0.555,-0.519,71.35,41.809,22.216,1
6.50954,0.766,0.572,-0.532,75.561,40.039,22.216,1
6.51848,0.752,0.598,-0.527,81.909,39.184,22.033,1
6.524781,0.772,0.604,-0.534,86.791,37.353,22.094,1
6.532992,0.778,0.6,-0.545,88.439,36.132,21.728,1
6.540436,0.775,0.593,-0.543,86.364,35.339,21.789,1
6.547449,0.773,0.603,-0.543,81.42,34.24,21.545,1
6.555788,0.81,0.603,-0.546,73.059,35.766,21.24,1
6.562344,0.762,0.604,-0.528,67.26,34.851,20.568,1
6.570847,0.781,0.595,-0.551,58.166,35.095,19.836,1
6.579215,0.764,0.596,-0.554,48.156,34.24,19.409,1
6.585618,0.75,0.593,-0.539,42.114,34.973,18.798,1
6.592363,0.75,0.608,-0.556,39.367,33.325,18.31,1
6.600345,0.763,0.62,-0.546,41.687,32.104,18.127,1
6.606929,0.788,0.64,-0.559,46.874,31.005,18.005,1
6.614739,0.799,0.66,-0.555,56.701,28.137,17.7,1
6.621234,0.81,0.666,-0.547,67.565,26.489,17.639,1
6.629587,0.805,0.665,-0.559,74.829,24.841,17.028,1
6.636444,0.826,0.659,-0.534,76.354,23.742,16.784,1
6.643027,0.819,0.653,-0.541,73.364,22.644,16.113,1
6.651615,0.81,0.665,-0.534,65.917,23.193,15.808,1
6.658904,0.812,0.67,-0.534,56.701,23.071,15.38,1
6.665136,0.805,0.693,-0.52,49.804,23.01,14.221,1
6.671995,0.797,0.71,-0.525,42.602,22.766,13.427,1
6.678796,0.798,0.729,-0.513,37.475,22.155,12.512,1
6.686611,0.805,0.753,-0.506,35.644,21.789,11.596,1
6.693597,0.818,0.772,-0.499,34.851,20.751,9.887,1
6.701891,0.84,0.796,-0.493,37.17,20.202,8.605,1
6.708513,0.864,0.817,-0.492,42.114,18.615,7.08,1
6.715022,0.887,0.832,-0.483,47.485,17.883,5.493,1
6.721953,0.889,0.843,-0.483,52.429,16.601,4.272,1
6.729091,0.881,0.86,-0.484,54.321,16.113,2.624,1
6.737346,0.875,0.867,-0.479,55.114,15.197,0.915,1
6.744114,0.876,0.882,-0.477,52.856,14.77,-0.976,1
6.75082,0.876,0.894,-0.476,49.316,14.526,-2.746,1
6.758641,0.883,0.911,-0.474,43.823,14.404,-4.821,1
6.765491,0.874,0.923,-0.455,38.879,13.977,-7.507,1
6.772422,0.86,0.942,-0.445,36.437,13.854,-9.582,1
6.779493,0.859,0.965,-0.445,36.315,13.427,-11.718,1
6.787341,0.849,0.978,-0.432,37.963,12.695,-14.16,1
6.795335,0.835,0.984,-0.431,41.503,11.596,-16.784,1
6.803299,0.848,0.998,-0.421,45.959,10.681,-19.47,1
6.810016,0.844,0.986,-0.417,50.842,9.826,-22.216,1
6.816948,0.84,0.975,-0.411,53.71,8.972,-24.536,1
6.824024,0.861,0.971,-0.391,55.419,8.605,-26.672,1
6.831081,0.87,0.964,-0.37,55.236,8.605,-29.296,1
6.838864,0.85,0.9,-0.375,46.081,8.911,-31.372,1
6.84571,0.899,0.982,-0.33,37.78,9.704,-34.057,1
6.854586,0.863,0.889,-0.342,32.104,9.399,-35.034,1
6.861183,0.848,0.951,-0.323,34.606,10.437,-38.574,1
6.868224,0.816,0.941,-0.327,38.696,9.826,-41.015,1
6.875126,0.8,0.927,-0.313,42.175,10.131,-43.395,1
6.882722,0.806,0.904,-0.316,43.212,9.826,-45.593,1
6.889725,0.8,0.882,-0.301,45.227,10.07,-47.607,1
6.898166,0.803,0.846,-0.301,47.18,10.131,-49.682,1
6.904289,0.804,0.818,-0.294,48.522,10.253,-51.696,1
6.911237,0.831,0.786,-0.291,50.415,10.437,-52.978,1
6.919625,0.847,0.769,-0.299,52.429,10.375,-54.504,1
6.926719,0.852,0.739,-0.304,51.391,10.559,-55.908,1
6.933774,0.862,0.712,-0.307,46.447,11.291,-57.067,1
6.940398,0.862,0.695,-0.316,35.522,12.268,-58.227,1
6.948774,0.857,0.674,-0.32,22.094,13.488,-59.265,1
6.955288,0.831,0.664,-0.327,11.535,13.916,-60.424,1
6.962151,0.832,0.651,-0.335,6.103,14.465,-61.523,1
6.969004,0.822,0.637,-0.351,4.577,13.671,-62.072,1
6.977573,0.812,0.621,-0.359,5.676,12.939,-63.293,1
6.983998,0.817,0.601,-0.38,7.202,12.145,-64.208,1
6.990898,0.841,0.583,-0.391,9.887,10.925,-64.88,1
6.99923,0.862,0.572,-0.392,13.854,9.582,-65.185,1
7.006131,0.916,0.566,-0.399,15.441,8.666,-65.856,1
7.012736,0.942,0.561,-0.382,14.404,7.446,-66.284,1
7.020669,0.969,0.571,-0.379,13.305,6.896,-66.528,1
7.027282,1.014,0.575,-0.371,12.084,5.859,-67.382,1
7.035389,1.051,0.573,-0.359,10.498,5.065,-68.298,1
7.041928,1.066,0.576,-0.352,9.155,3.906,-68.847,1
7.048469,1.083,0.572,-0.347,7.629,3.173,-70.007,1
7.056105,1.113,0.57,-0.338,3.967,2.746,-70.739,1
7.064589,1.149,0.573,-0.338,0.427,1.77,-71.289,1
7.071618,1.175,0.603,-0.339,0.366,1.342,-71.655,1
7.078278,1.205,0.649,-0.345,3.845,0.061,-72.021,1
7.084948,1.209,0.696,-0.365,7.751,-0.793,-72.998,1
7.093036,1.166,0.724,-0.391,8.3,-1.708,-73.608,1
7.099645,1.172,0.736,-0.41,-2.99,-2.38,-73.73,1
7.108141,1.229,0.841,-0.419,-13.793,-1.281,-74.89,1
7.115137,1.233,0.839,-0.438,-22.094,-5.432,-77.209,1
7.122186,1.153,0.845,-0.431,-21.545,-5.31,-80.139,1
7.131286,1.17,0.818,-0.479,-23.376,-7.934,-82.824,1
7.13793,1.169,0.841,-0.45,-23.559,-8.483,-86.12,1
7.145508,1.171,0.853,-0.51,-23.071,-9.155,-89.782,1
7.154216,1.179,0.886,-0.523,-27.343,-11.718,-92.59,1
7.161265,1.164,0.871,-0.549,-30.334,-12.451,-95.092,1
7.168092,1.147,0.9,-0.573,-30.883,-15.014,-98.754,1
7.175929,1.118,0.925,-0.583,-23.864,-17.761,-102.233,1
7.182927,1.057,0.952,-0.602,-5.126,-21.789,-106.75,1
7.189518,1.029,0.99,-0.575,13.183,-25.939,-110.473,1
7.196586,0.976,0.983,-0.591,38.818,-29.785,-115.112,1
7.204771,0.938,0.992,-0.581,69.213,-34.484,-120.178,1
7.211705,0.919,0.909,-0.583,93.2,-37.536,-124.755,1
7.220411,0.894,0.832,-0.59,98.632,-38.085,-128.723,1
7.227259,0.849,0.748,-0.586,87.829,-37.963,-132.263,1
7.233582,0.808,0.689,-0.569,64.636,-37.17,-135.986,1
7.240622,0.842,0.626,-0.537,36.315,-35.827,-139.16,1
7.247897,0.854,0.556,-0.518,11.047,-36.01,-141.235,1
7.255776,0.891,0.499,-0.482,-2.99,-37.292,-142.211,1
7.263789,0.931,0.45,-0.468,-6.347,-39.123,-142.578,1
7.270773,0.937,0.402,-0.462,-2.319,-41.687,-143.066,1
7.277808,0.925,0.35,-0.459,7.019,-44.677,-143.127,1
7.285965,0.904,0.297,-0.465,15.014,-47.546,-143.066,1
7.292884,0.902,0.25,-0.471,19.775,-49.926,-143.31,1
7.301203,0.875,0.223,-0.466,24.963,-52.185,-143.798,1
7.308277,0.826,0.19,-0.459,34.362,-54.626,-144.348,1
7.314666,0.779,0.167,-0.438,43.945,-57.006,-144.592,1
7.322947,0.758,0.142,-0.426,57.128,-59.448,-144.958,1
7.33012,0.69,0.111,-0.393,70.739,-62.255,-145.507,1
7.337014,0.61,0.056,-0.37,79.589,-63.232,-145.324,1
7.344011,0.565,0.024,-0.336,82.58,-63.659,-144.592,1
7.35273,0.555,0.011,-0.314,83.251,-62.866,-143.676,1
7.359432,0.53,0.015,-0.308,83.312,-62.499,-142.883,1
7.36642,0.454,0.025,-0.294,85.327,-61.645,-142.456,1
7.374503,0.398,0.034,-0.286,89.599,-61.523,-142.333,1
7.381528,0.328,0.053,-0.272,97.351,-60.974,-142.761,1
7.388382,0.278,0.058,-0.271,108.581,-61.157,-143.432,1
7.396661,0.253,0.032,-0.259,120.727,-61.645,-144.47,1
7.403783,0.223,-0.006,-0.235,128.845,-61.157,-144.836,1
7.410756,0.223,-0.035,-0.211,139.16,-61.279,-144.653,1
7.418522,0.228,-0.067,-0.176,151.916,-60.668,-144.348,1
7.426299,0.209,-0.085,-0.14,165.649,-59.143,-143.188,1
7.433296,0.226,-0.118,-0.166,171.874,-56.152,-141.967,1
7.441264,0.237,-0.171,-0.195,162.353,-52.917,-140.747,1
7.44785,0.289,-0.222,-0.214,138.549,-48.034,-139.038,1
7.455571,0.331,-0.255,-0.226,107.971,-44.067,-137.512,1
7.464343,0.356,-0.266,-0.204,81.787,-40.222,-135.314,1
7.470907,0.317,-0.271,-0.196,60.424,-37.597,-132.873,1
7.479143,0.365,-0.273,-0.165,46.386,-35.766,-130.798,1
7.485777,0.398,-0.266,-0.161,45.593,-34.729,-128.356,1
7.492863,0.404,-0.266,-0.137,51.574,-35.278,-126.647,1
7.500642,0.386,-0.282,-0.127,59.02,-34.545,-124.694,1
7.508205,0.368,-0.29,-0.11,62.988,-34.606,-122.985,1
7.516489,0.398,-0.304,-0.09,65.063,-32.348,-121.276,1
7.523573,0.451,-0.332,-0.104,64.331,-29.846,-120.361,1
7.530254,0.505,-0.356,-0.104,61.706,-26.855,-119.506,1
7.539087,0.504,-0.389,-0.113,55.297,-24.658,-118.591,1
7.545615,0.538,-0.418,-0.091,46.386,-22.705,-117.797,1
7.553525,0.582,-0.437,-0.066,40.1,-19.775,-116.638,1
7.560541,0.628,-0.445,-0.063,36.499,-18.188,-115.539,1
7.567588,0.659,-0.446,-0.059,32.897,-16.54,-114.013,1
7.574519,0.673,-0.457,-0.043,29.541,-15.075,-112.67,1
7.582811,0.563,-0.458,0.0,10.864,-14.953,-111.633,1
7.589497,0.67,-0.434,0.067,-7.019,-9.216,-110.046,1
7.59778,0.656,-0.389,0.085,-5.981,-5.859,-109.68,1
7.604714,0.595,-0.353,0.112,-0.854,-5.126,-110.29,1
7.6117,0.526,-0.346,0.131,6.591,-2.014,-111.328,1
7.620582,0.503,-0.343,0.142,11.779,0.244,-112.976,1
7.627396,0.469,-0.331,0.179,20.019,3.906,-115.112,1
7.636065,0.472,-0.355,0.169,28.991,7.263,-117.431,1
7.64387,0.438,-0.358,0.189,48.339,11.84,-120.483,1
7.651892,0.433,-0.399,0.161,56.579,14.282,-122.68,1
7.659627,0.467,-0.451,0.16,57.861,18.554,-124.938,1
7.666059,0.462,-0.497,0.144,48.095,24.536,-127.136,1
7.674722,0.44,-0.52,0.153,34.423,28.869,-128.601,1
7.681693,0.42,-0.527,0.149,32.531,34.912,-129.577,1
7.68844,0.398,-0.561,0.144,33.264,38.208,-131.286,1
7.696454,0.304,-0.61,0.155,30.029,43.762,-132.263,1
7.703494,0.285,-0.655,0.133,21.301,48.461,-133.117,1
7.711014,0.232,-0.685,0.13,13.854,52.917,-133.422,1
7.717599,0.186,-0.688,0.124,5.615,57.556,-133.728,1
7.726315,0.032,-0.726,0.133,-9.338,62.072,-133.178,1
7.73255,0.007,-0.768,0.116,-25.878,67.871,-133.361,1
7.741479,-0.047,-0.775,0.159,-40.771,71.166,-132.751,1
7.748239,-0.073,-0.809,0.148,-46.081,76.171,-132.08,1
7.756261,-0.138,-0.861,0.156,-50.72,78.491,-131.164,1
7.763119,-0.223,-0.932,0.149,-57.128,84.045,-130.004,1
7.77213,-0.32,-0.999,0.131,-66.162,86.181,-128.784,1
7.779198,-0.365,-1.093,0.149,-71.35,89.721,-126.831,1
7.786019,-0.408,-1.193,0.133,-72.448,91.857,-124.206,1
7.792944,-0.489,-1.29,0.13,-71.35,93.933,-121.032,1
7.801511,-0.589,-1.394,0.105,-71.166,96.13,-116.577,1
7.807929,-0.699,-1.504,0.097,-71.96,97.717,-111.694,1
7.816432,-0.77,-1.615,0.085,-74.157,98.693,-105.834,1
7.823243,-0.884,-1.726,0.067,-72.937,98.876,-99.609,1
7.83189,-0.966,-1.856,0.058,-78.857,100.036,-91.613,1
7.838155,-1.077,-1.957,0.068,-78.979,100.28,-84.289,1
7.846736,-1.128,-2.074,0.094,-72.204,99.365,-74.34,1
7.853311,-1.178,-2.173,0.137,-53.588,98.449,-62.255,1
7.861608,-1.172,-2.322,0.186,-26.245,96.984,-48.522,1
7.868645,-1.216,-2.554,0.255,-6.225,97.656,-32.47,1
7.877334,-1.233,-2.711,0.326,-5.432,99.731,-14.282,1
7.88413,-1.245,-2.851,0.4,1.708,104.187,8.605,1
7.891021,-1.334,-2.939,0.459,5.065,107.788,26.55,1
7.899917,-1.426,-3.051,0.487,6.286,114.074,49.072,1
7.90691,-1.56,-3.088,0.517,-1.098,122.192,72.509,1
7.913642,-1.745,-3.091,0.548,-4.211,130.065,96.496,1
7.920658,-1.932,-3.107,0.581,-2.624,137.756,121.032,1
7.928599,-2.104,-3.144,0.619,-8.544,147.644,146.423,1
7.935438,-2.291,-3.101,0.668,-10.253,156.982,172.058,1
7.942603,-2.522,-3.034,0.656,3.845,164.245,194.091,1
7.950505,-2.751,-2.997,0.666,27.038,172.241,222.045,1
7.957449,-3.041,-2.958,0.679,51.391,179.992,251.22,1
7.965369,-3.357,-2.911,0.66,59.936,187.377,276.123,1
7.971975,-3.686,-2.813,0.614,60.424,197.143,307.189,1
7.980406,-4.083,-2.668,0.603,65.307,206.298,338.561,1
7.987442,-4.537,-2.511,0.515,76.965,215.82,371.032,1
7.994327,-5.031,-2.361,0.437,90.026,224.609,403.442,1
8.001176,-5.63,-2.21,0.327,93.872,233.52,436.096,1
8.00959,-6.104,-2.11,0.227,100.28,240.6,465.332,1
8.017956,-6.772,-1.984,0.143,100.097,248.657,500.427,1
8.024486,-7.639,-1.901,0.004,96.13,256.53,544.128,1
8.032824,-8.547,-1.796,-0.082,63.903,268.005,581.42,1
8.040815,-9.479,-1.729,-0.188,26.428,282.775,620.056,1
8.049087,-10.668,-1.565,-0.275,-31.372,298.522,657.714,1
8.056037,-12.136,-1.447,-0.424,-83.068,325.256,702.453,1
8.065994,-13.421,-1.379,-0.572,-120.178,350.28,741.394,1
8.072679,-15.165,-1.186,-0.694,-123.962,377.685,786.743,1
8.080718,-15.999,-0.977,-0.797,-70.556,392.822,829.101,1
8.090266,-15.999,-0.712,-0.862,40.344,396.789,877.807,1
8.09733,-15.999,-0.494,-1.133,213.012,373.474,945.129,1
8.105659,-15.999,-0.381,-1.336,329.162,331.237,1011.657,1
8.112542,-15.999,0.053,-1.556,414.062,274.047,1083.068,1
8.121297,-15.999,0.581,-1.548,500.427,194.58,1152.587,1
8.128325,-15.999,1.054,-1.549,578.918,101.196,1217.468,1
8.137021,-15.999,1.816,-1.352,644.287,-32.897,1283.02,1
8.144002,-15.999,2.434,-1.059,698.791,-161.132,1324.462,1
8.152921,-15.999,3.118,-0.828,737.609,-298.584,1349.609,1
8.159866,-15.999,3.714,-0.304,780.395,-459.411,1355.59,1
8.168222,-15.999,4.131,0.51,868.225,-626.77,1342.285,1
8.175203,-15.999,4.289,1.427,1004.211,-846.557,1289.611,1
8.183463,-15.999,3.601,2.832,1082.641,-1045.349,1222.29,1
8.190143,-15.999,4.448,4.879,1278.503,-1194.336,1104.553,1
8.198579,-15.999,5.086,5.499,1505.92,-1346.435,900.573,1
8.205488,-15.999,4.754,5.209,1603.149,-1461.059,653.93,1
8.213829,-15.999,4.255,4.911,1527.526,-1527.465,390.38,1
8.222028,-15.999,4.005,5.267,1413.94,-1521.057,132.446,1
8.23038,-15.999,3.822,5.007,1268.371,-1454.65,-99.06,1
8.236948,-15.999,3.253,5.108,1203.247,-1336.669,-327.941,1
8.245144,-15.999,2.069,4.157,1152.404,-1195.251,-493.53,1
8.25353,-15.999,1.404,3.371,959.35,-1063.598,-622.07,1
8.261871,-15.999,1.011,3.255,720.764,-922.424,-703.308,1
8.268409,-15.999,0.778,2.671,507.995,-795.837,-755.248,1
8.276739,-15.999,0.71,2.663,422.302,-724.121,-774.23,1
8.283338,-15.999,0.477,2.451,338.623,-626.77,-783.813,1
8.290605,-15.999,0.318,2.401,279.418,-571.838,-783.264,1
8.298873,-15.999,0.159,2.354,226.501,-503.723,-773.925,1
8.307399,-15.617,0.1,2.261,194.396,-450.256,-759.826,1
8.314209,-14.148,0.138,2.229,187.561,-397.644,-739.868,1
8.321196,-13.033,0.003,2.082,230.102,-356.323,-719.604,1
8.32988,-11.946,-0.168,2.097,286.193,-310.852,-694.885,1
8.337048,-10.719,-0.401,1.879,318.42,-259.948,-667.968,1
8.345546,-9.681,-0.658,1.718,299.316,-202.88,-635.986,1
8.353627,-8.645,-0.882,1.565,238.281,-153.747,-606.018,1
8.36137,-7.732,-0.951,1.428,169.555,-116.21,-576.11,1
8.368546,-6.878,-0.944,1.343,129.76,-83.557,-546.264,1
8.377185,-6.251,-0.916,1.224,124.938,-58.105,-517.883,1
8.384466,-5.69,-0.957,1.101,139.587,-32.958,-486.633,1
8.392359,-5.172,-1.014,0.989,151.123,-12.634,-461.303,1
8.40029,-4.63,-1.1,0.871,156.127,7.934,-436.523,1
8.409011,-4.264,-1.14,0.781,149.536,28.259,-411.987,1
8.415258,-4.049,-1.136,0.709,130.126,50.109,-383.666,1
8.423946,-3.897,-1.087,0.639,108.581,66.406,-359.802,1
8.430648,-3.704,-1.048,0.579,93.139,77.27,-340.881,1
8.438905,-3.438,-1.057,0.519,76.965,87.707,-319.274,1
8.445593,-3.162,-1.103,0.468,51.574,97.29,-295.227,1
8.453799,-2.888,-1.147,0.45,30.944,104.003,-275.817,1
8.46067,-2.589,-1.17,0.448,20.568,109.497,-257.141,1
8.468928,-2.353,-1.212,0.421,12.756,113.525,-239.624,1
8.475822,-2.17,-1.239,0.416,1.159,116.088,-225.769,1
8.483907,-2.006,-1.251,0.409,-8.789,119.873,-209.96,1
8.490244,-1.883,-1.271,0.429,-18.249,121.765,-194.885,1
8.4981,-1.782,-1.288,0.457,-27.526,125.793,-179.809,1
8.506532,-1.685,-1.325,0.462,-43.334,127.502,-166.259,1
8.514656,-1.575,-1.299,0.483,-55.236,130.92,-152.954,1
8.522538,-1.5,-1.286,0.478,-63.049,131.53,-138.183,1
8.530778,-1.409,-1.285,0.494,-65.795,132.629,-126.342,1
8.537678,-1.309,-1.304,0.484,-68.603,133.117,-115.051,1
8.546245,-1.188,-1.331,0.504,-69.763,133.728,-103.698,1
8.554481,-1.097,-1.349,0.494,-71.655,134.765,-91.125,1
8.56258,-0.988,-1.351,0.489,-70.739,135.314,-80.322,1
8.569125,-0.872,-1.354,0.478,-68.298,135.131,-69.641,1
8.577451,-0.799,-1.37,0.464,-66.833,134.765,-59.57,1
8.585993,-0.718,-1.343,0.46,-67.26,134.46,-47.729,1
8.59255,-0.66,-1.315,0.44,-68.115,134.033,-37.719,1
8.600752,-0.611,-1.283,0.432,-71.533,133.3,-28.442,1
8.609243,-0.6,-1.226,0.431,-69.58,131.958,-19.47,1
8.617216,-0.574,-1.165,0.443,-58.776,128.845,-10.009,1
8.623756,-0.579,-1.131,0.446,-50.415,127.502,-2.075,1
8.631554,-0.535,-1.106,0.446,-48.095,126.22,5.371,1
8.638587,-0.447,-1.062,0.44,-47.973,125.671,12.695,1
8.64675,-0.384,-1.0,0.426,-44.921,124.389,19.104,1
8.655215,-0.295,-0.944,0.416,-40.954,122.863,25.329,1
8.662143,-0.188,-0.885,0.394,-37.78,121.459,31.677,1
8.670969,-0.094,-0.81,0.382,-31.738,119.201,37.658,1
8.677968,0.004,-0.708,0.364,-19.653,116.21,44.677,1
8.686411,0.049,-0.607,0.355,-5.615,112.548,49.865,1
8.693541,0.078,-0.513,0.344,10.62,109.619,54.077,1
8.700234,0.1,-0.454,0.326,23.01,106.75,57.617,1
8.707098,0.148,-0.398,0.303,33.325,104.309,61.279,1
8.715258,0.203,-0.359,0.281,36.865,101.562,64.392,1
8.72188,0.254,-0.329,0.26,33.264,100.219,66.955,1
8.728812,0.333,-0.289,0.236,26.733,99.365,68.908,1
8.736957,0.379,-0.248,0.221,20.507,98.022,70.739,1
8.744973,0.431,-0.206,0.202,18.615,95.947,72.387,1
8.751537,0.489,-0.181,0.187,20.507,93.2,73.852,1
8.758599,0.546,-0.165,0.163,25.085,89.965,75.317,1
8.76715,0.603,-0.155,0.15,29.846,86.914,76.538,1
8.773786,0.669,-0.148,0.139,36.621,83.374,78.369,1
8.782008,0.722,-0.136,0.137,44.128,79.772,80.627,1
8.788835,0.798,-0.09,0.134,55.725,76.171,83.557,1
8.795407,0.88,-0.042,0.123,70.434,72.082,85.632,1
8.803837,0.932,-0.022,0.117,81.359,68.908,87.341,1
8.810511,0.96,0.004,0.109,88.5,65.734,89.172,1
8.816924,1.008,0.024,0.105,90.27,63.598,90.698,1
8.825217,1.043,0.06,0.105,87.951,62.072,92.529,1
8.8319,1.077,0.099,0.104,82.214,60.852,94.177,1
8.838807,1.109,0.151,0.093,72.509,60.363,95.275,1
8.845779,1.145,0.224,0.097,67.504,59.57,96.862,1
8.852682,1.181,0.279,0.088,66.711,57.739,97.412,1
8.859721,1.226,0.36,0.087,74.096,55.847,97.167,1
8.866627,1.256,0.455,0.081,88.439,53.649,97.106,1
8.873766,1.268,0.502,0.07,109.13,49.926,96.435,1
8.881658,1.289,0.577,0.071,130.554,46.508,94.848,1
8.888503,1.318,0.639,0.05,148.193,43.701,93.627,1
8.894986,1.322,0.722,0.033,166.625,39.489,91.918,1
8.90369,1.355,0.776,0.025,179.382,36.743,90.332,1
8.90912,1.355,0.833,0.025,186.279,33.996,88.989,1
8.917152,1.389,0.882,0.017,181.823,33.386,87.219,1
8.925305,1.41,0.959,0.0,168.762,33.325,84.899,1
8.931971,1.418,1.037,-0.013,153.991,32.836,81.848,1
8.93988,1.415,1.117,-0.021,148.193,32.775,78.918,1
8.946898,1.427,1.16,-0.03,145.629,33.325,74.951,1
8.953878,1.413,1.218,-0.037,147.46,32.531,70.678,1
8.961677,1.411,1.28,-0.046,153.991,32.409,65.856,1
8.9687,1.37,1.339,-0.036,162.17,31.372,61.096,1
8.976902,1.358,1.379,-0.036,173.156,31.005,55.664,1
8.985584,1.318,1.416,-0.038,181.945,30.639,50.598,1
8.99369,1.311,1.426,-0.038,188.72,30.883,45.227,1
9.000304,1.268,1.424,-0.052,188.293,31.311,39.978,1
9.006851,1.229,1.412,-0.07,189.208,32.409,34.24,1
9.015076,1.223,1.384,-0.092,189.514,33.447,29.113,1
9.022119,1.243,1.341,-0.127,186.096,34.301,24.23,1
9.030436,1.242,1.305,-0.153,181.823,34.912,20.263,1
9.037478,1.233,1.287,-0.158,176.879,35.644,15.319,1
9.044323,1.206,1.259,-0.158,174.987,36.56,10.864,1
9.052863,1.17,1.233,-0.16,175.17,36.804,7.446,1
9.061799,1.169,1.171,-0.188,174.499,38.452,3.356,1
9.068953,1.154,1.123,-0.213,173.339,39.367,-0.061,1
9.077176,1.142,1.085,-0.238,173.828,40.161,-3.051,1
9.083889,1.142,1.047,-0.25,176.269,39.733,-6.53,1
9.091024,1.132,1.026,-0.246,178.588,39.916,-8.361,1
9.098399,1.135,1.006,-0.252,183.044,40.222,-10.803,1
9.106336,1.105,0.99,-0.235,187.438,39.794,-13.122,1
9.113274,1.015,1.013,-0.229,197.387,39.978,-15.563,1
9.121239,1.068,0.946,-0.243,200.744,39.794,-17.211,1
9.128005,0.985,0.913,-0.244,196.899,41.015,-20.019,1
9.136996,0.95,0.865,-0.243,182.373,42.846,-22.583,1
9.143332,0.92,0.833,-0.262,159.667,45.654,-25.085,1
9.151482,0.903,0.808,-0.275,148.254,46.081,-27.221,1
9.158223,0.885,0.775,-0.283,150.39,45.349,-28.564,1
9.166228,0.874,0.734,-0.296,159.912,42.846,-29.296,1
9.173535,0.879,0.69,-0.295,171.447,41.198,-29.479,1
9.182335,0.877,0.674,-0.305,185.241,38.208,-29.602,1
9.18918,0.909,0.617,-0.307,198.73,35.583,-28.808,1
9.195723,0.951,0.591,-0.312,199.951,34.362,-27.77,1
9.203994,0.928,0.602,-0.313,200.744,32.836,-26.55,1
9.212009,0.979,0.591,-0.319,195.068,31.249,-25.573,1
9.218445,0.905,0.606,-0.299,190.246,29.663,-24.23,1
9.226856,0.927,0.628,-0.302,185.729,29.296,-23.925,1
9.233902,0.909,0.634,-0.284,178.71,27.221,-23.681,1
9.242671,0.886,0.648,-0.269,172.607,26.306,-23.132,1
9.248848,0.83,0.687,-0.265,175.109,24.353,-22.888,1
9.257267,0.895,0.673,-0.248,178.039,21.484,-22.705,1
9.263746,0.852,0.679,-0.238,179.87,20.019,-22.705,1
9.271998,0.838,0.679,-0.23,181.335,18.554,-23.071,1
9.279893,0.813,0.683,-0.195,184.265,16.662,-23.193,1
9.288149,0.841,0.677,-0.204,188.11,16.418,-23.437,1
9.296567,0.823,0.686,-0.197,185.607,15.014,-24.108,1
9.303126,0.807,0.699,-0.188,183.166,15.075,-24.169,1
9.310194,0.834,0.697,-0.202,180.114,14.953,-24.536,1
9.316806,0.847,0.691,-0.196,174.621,15.136,-25.085,1
9.3255,0.861,0.691,-0.194,168.579,15.502,-25.268,1
9.332657,0.917,0.688,-0.215,162.292,15.869,-25.268,1
9.339368,0.936,0.708,-0.213,156.127,15.502,-25.451,1
9.347199,0.947,0.71,-0.205,149.169,15.747,-25.451,1
9.354195,0.953,0.712,-0.205,139.099,16.418,-25.634,1
9.36086,0.969,0.712,-0.218,126.831,16.723,-25.817,1
9.367764,0.971,0.71,-0.218,114.501,17.7,-26.611,1
9.376533,0.962,0.708,-0.226,105.59,18.31,-27.282,1
9.382072,0.948,0.696,-0.23,97.9,18.798,-27.954,1
9.390278,0.945,0.676,-0.241,91.918,18.859,-28.686,1
9.396792,0.95,0.646,-0.251,86.73,19.287,-29.052,1
9.405031,0.952,0.621,-0.273,82.092,19.531,-29.052,1
9.411572,0.947,0.605,-0.29,76.049,19.531,-29.663,1
9.419603,0.942,0.589,-0.312,70.19,19.287,-29.602,1
9.426397,0.94,0.581,-0.331,65.734,18.676,-29.846,1
9.433381,0.933,0.57,-0.341,62.927,18.066,-30.151,1
9.441718,0.916,0.555,-0.349,61.706,17.578,-30.456,1
9.448384,0.906,0.536,-0.354,61.157,16.723,-30.944,1
9.455413,0.879,0.524,-0.35,62.805,16.235,-31.799,1
9.462562,0.867,0.502,-0.36,65.307,14.77,-32.226,1
9.471094,0.839,0.477,-0.351,69.152,13.916,-32.897,1
9.477748,0.857,0.427,-0.368,76.965,12.39,-33.935,1
9.484761,0.852,0.398,-0.345,83.74,10.742,-34.362,1
9.492679,0.882,0.339,-0.357,90.148,10.681,-34.362,1
9.499676,0.87,0.299,-0.353,91.918,10.559,-33.935,1
9.506744,0.852,0.254,-0.348,90.576,10.986,-33.691,1
9.514893,0.9,0.219,-0.312,89.477,10.375,-33.264,1
9.521598,0.846,0.172,-0.368,84.289,10.314,-32.226,1
9.528542,0.949,0.11,-0.334,76.843,12.329,-30.029,1
9.53571,1.004,0.093,-0.376,71.533,12.084,-27.954,1
9.543478,1.04,0.091,-0.338,65.917,11.718,-24.902,1
9.550356,1.028,0.079,-0.332,60.546,10.437,-21.423,1
9.558775,1.097,0.073,-0.3,59.082,11.108,-18.066,1
9.565808,1.073,0.105,-0.311,61.462,10.131,-15.014,1
9.572228,1.08,0.096,-0.276,63.476,10.131,-12.756,1
9.580511,1.058,0.112,-0.277,63.781,9.216,-10.498,1
9.587251,1.006,0.146,-0.281,64.514,9.46,-8.178,1
9.594193,0.97,0.171,-0.287,63.72,8.789,-6.835,1
9.601315,0.939,0.199,-0.294,63.11,8.544,-6.103,1
9.609927,0.911,0.216,-0.311,61.523,8.178,-5.737,1
9.616609,0.891,0.224,-0.32,57.006,7.812,-5.31,1
9.624854,0.899,0.227,-0.334,51.635,8.361,-5.615,1
9.631421,0.893,0.241,-0.363,46.264,8.239,-5.676,1
9.63816,0.878,0.244,-0.377,40.649,8.056,-5.92,1
9.645135,0.873,0.247,-0.388,36.315,7.385,-6.103,1
9.653513,0.884,0.249,-0.394,33.264,6.53,-6.408,1
9.660137,0.908,0.25,-0.402,32.775,5.249,-5.92,1
9.66889,0.92,0.254,-0.401,33.325,3.723,-5.554,1
9.675915,0.932,0.253,-0.397,34.118,2.075,-5.249,1
9.682576,0.951,0.247,-0.386,33.935,0.61,-4.394,1
9.689656,0.98,0.243,-0.376,31.555,-0.488,-3.417,1
9.696513,1.005,0.24,-0.361,26.428,-1.342,-2.441,1
9.704814,1.018,0.235,-0.354,19.287,-2.075,-1.525,1
9.711137,1.038,0.232,-0.346,8.3,-2.136,-0.305,1
9.719505,1.058,0.23,-0.337,-3.601,-2.319,0.61,1
9.726134,1.075,0.24,-0.338,-11.413,-2.746,1.77,1
9.73485,1.081,0.258,-0.331,-11.535,-4.394,2.624,1
9.741682,1.078,0.275,-0.318,-6.164,-5.981,3.173,1
9.748654,1.071,0.277,-0.298,5.92,-8.361,3.723,1
9.755821,1.062,0.284,-0.289,21.179,-10.986,4.028,1
9.762268,1.051,0.281,-0.267,36.621,-13.0,3.906,1
9.771054,1.03,0.259,-0.24,47.485,-14.526,3.479,1
9.778041,0.995,0.244,-0.227,59.875,-16.296,3.723,1
9.785101,1.012,0.228,-0.213,69.641,-18.493,3.662,1
9.791346,0.975,0.208,-0.19,74.462,-18.798,2.868,1
9.800089,0.951,0.188,-0.188,69.946,-19.348,2.258,1
9.807201,0.915,0.193,-0.171,64.575,-18.798,1.77,1
9.813803,0.894,0.214,-0.176,62.377,-19.836,1.525,1
9.82076,0.913,0.22,-0.149,64.147,-20.629,0.061,1
9.82894,0.918,0.216,-0.131,67.016,-21.667,-0.671,1
9.835911,0.93,0.218,-0.127,70.373,-22.277,-1.953,1
9.842584,0.925,0.213,-0.112,71.655,-23.071,-3.112,1
9.850398,0.897,0.211,-0.095,70.556,-24.169,-4.211,1
9.857376,0.859,0.209,-0.077,66.345,-24.169,-5.798,1
9.865304,0.859,0.214,-0.064,61.34,-23.742,-6.652,1
9.872144,0.867,0.229,-0.067,55.725,-23.498,-7.934,1
9.879235,0.88,0.231,-0.059,48.4,-23.376,-9.826,1
9.887652,0.871,0.234,-0.049,40.771,-23.559,-11.413,1
9.894702,0.849,0.229,-0.024,32.714,-23.254,-12.023,1
9.901498,0.766,0.15,-0.021,18.249,-22.888,-10.864,1
9.908495,0.898,0.217,0.02,6.591,-22.216,-12.084,1
9.917267,0.958,0.249,0.027,-1.77,-20.812,-13.671,1
9.923811,0.967,0.291,0.052,-5.737,-21.179,-15.38,1
9.930915,0.939,0.319,0.07,-2.624,-20.751,-16.723,1
9.937978,0.922,0.347,0.067,3.906,-21.85,-18.188,1
9.945863,0.935,0.362,0.07,10.986,-22.216,-19.042,1
9.952739,0.954,0.362,0.055,16.967,-23.376,-19.714,1
9.960891,0.978,0.375,0.061,19.836,-25.085,-20.507,1
9.967922,1.003,0.383,0.076,20.446,-25.939,-21.301,1
9.974471,1.021,0.39,0.097,21.301,-26.428,-22.216,1
9.983237,1.022,0.384,0.111,22.094,-26.428,-23.803,1
9.989921,0.993,0.376,0.133,21.057,-25.939,-25.207,1
9.996919,0.964,0.371,0.147,20.202,-24.963,-26.916,1
