timestamp_s,ax,ay,az,gx,gy,gz,label
0.004269,0.65,0.836,-0.214,27.893,14.526,-0.976,1
0.011723,0.651,0.845,-0.215,31.311,14.282,-1.525,1
0.020834,0.652,0.849,-0.219,34.118,13.977,-2.075,1
0.027924,0.652,0.849,-0.214,35.583,13.854,-2.685,1
0.035682,0.65,0.846,-0.213,35.827,13.732,-3.112,1
0.042025,0.649,0.854,-0.213,34.484,13.916,-3.601,1
0.050118,0.653,0.859,-0.211,32.836,14.343,-4.15,1
0.05811,0.649,0.861,-0.208,30.029,14.465,-4.577,1
0.065627,0.642,0.87,-0.21,27.221,14.892,-5.249,1
0.072561,0.638,0.871,-0.202,25.329,15.319,-5.981,1
0.080985,0.639,0.877,-0.207,24.536,15.38,-6.774,1
0.089321,0.64,0.879,-0.207,24.597,14.953,-7.446,1
0.097801,0.638,0.88,-0.199,26.55,14.953,-8.117,1
0.104557,0.634,0.875,-0.201,28.564,15.014,-8.789,1
0.112318,0.628,0.879,-0.196,29.663,14.709,-9.46,1
0.120856,0.627,0.873,-0.198,29.968,14.831,-10.07,1
0.127903,0.621,0.869,-0.198,29.113,15.014,-10.681,1
0.138266,0.618,0.867,-0.203,27.465,15.258,-11.352,1
0.145175,0.618,0.857,-0.206,23.681,15.502,-11.535,1
0.154749,0.616,0.864,-0.212,19.653,15.93,-12.39,1
0.161547,0.622,0.858,-0.211,18.554,15.686,-12.878,1
0.170222,0.624,0.859,-0.21,20.08,15.563,-13.549,1
0.178713,0.627,0.846,-0.211,23.132,15.075,-14.221,1
0.188908,0.628,0.84,-0.219,24.78,14.953,-14.648,1
0.196168,0.625,0.823,-0.221,23.681,14.709,-15.014,1
0.204702,0.626,0.815,-0.224,20.751,15.014,-15.197,1
0.21186,0.62,0.811,-0.224,18.798,14.953,-15.502,1
0.220166,0.616,0.805,-0.226,17.761,14.709,-15.686,1
0.227287,0.622,0.799,-0.221,18.554,14.648,-15.747,1
0.234715,0.625,0.796,-0.226,19.409,14.343,-15.93,1
0.242253,0.626,0.786,-0.223,19.348,13.916,-16.052,1
0.250204,0.637,0.778,-0.224,18.798,14.038,-16.174,1
0.258625,0.64,0.768,-0.225,18.249,13.793,-16.113,1
0.26814,0.643,0.757,-0.228,17.272,13.61,-16.113,1
0.274858,0.636,0.753,-0.226,15.136,13.549,-15.624,1
0.283864,0.629,0.745,-0.219,11.901,13.854,-15.258,1
0.291258,0.624,0.747,-0.217,9.704,13.916,-14.831,1
0.300141,0.617,0.745,-0.207,8.666,13.916,-14.709,1
0.307688,0.62,0.739,-0.203,8.361,13.977,-14.648,1
0.315123,0.627,0.731,-0.214,7.751,13.916,-14.282,1
0.325047,0.631,0.728,-0.211,6.958,13.671,-14.038,1
0.332365,0.634,0.729,-0.206,6.042,13.671,-13.61,1
0.339226,0.639,0.725,-0.212,4.882,13.183,-13.549,1
0.348113,0.64,0.733,-0.209,4.15,13.305,-13.244,1
0.355783,0.644,0.735,-0.208,5.065,12.39,-12.939,1
0.363086,0.652,0.74,-0.208,6.042,12.084,-12.939,1
0.371853,0.657,0.744,-0.202,6.53,11.779,-12.939,1
0.379692,0.66,0.752,-0.194,6.774,11.352,-12.817,1
0.387305,0.673,0.755,-0.192,7.812,11.352,-12.695,1
0.396227,0.687,0.759,-0.181,9.277,11.474,-12.573,1
0.403486,0.694,0.764,-0.174,9.826,11.535,-12.573,1
0.412079,0.699,0.76,-0.166,9.948,11.84,-12.695,1
0.418353,0.703,0.756,-0.167,10.375,12.023,-12.695,1
0.425883,0.705,0.755,-0.155,10.925,12.207,-12.512,1
0.43649,0.698,0.746,-0.155,10.62,12.451,-12.512,1
0.443624,0.693,0.743,-0.156,8.911,12.817,-12.695,1
0.451202,0.693,0.743,-0.152,6.53,13.305,-12.634,1
0.459905,0.68,0.745,-0.149,3.967,13.427,-12.512,1
0.46747,0.676,0.754,-0.143,2.868,13.854,-12.817,1
0.474478,0.673,0.762,-0.134,3.601,13.977,-13.244,1
0.482594,0.674,0.767,-0.132,5.859,13.732,-13.793,1
0.490764,0.67,0.774,-0.131,9.399,13.61,-14.099,1
0.498045,0.676,0.774,-0.125,14.892,13.122,-14.526,1
0.507614,0.686,0.771,-0.116,19.226,13.366,-15.136,1
0.514452,0.687,0.768,-0.107,21.789,13.488,-15.563,1
0.521582,0.689,0.764,-0.109,22.583,13.916,-16.113,1
0.529733,0.69,0.766,-0.104,21.606,14.648,-16.479,1
0.53823,0.691,0.767,-0.104,20.263,15.258,-17.028,1
0.544851,0.686,0.759,-0.104,16.357,16.479,-17.272,1
0.553477,0.687,0.757,-0.105,12.451,17.15,-17.7,1
0.561314,0.689,0.756,-0.108,10.559,17.761,-18.188,1
0.568007,0.686,0.753,-0.107,9.765,18.127,-18.554,1
0.575985,0.687,0.749,-0.106,9.643,18.493,-19.104,1
0.584971,0.687,0.745,-0.118,10.681,18.859,-19.47,1
0.594505,0.685,0.743,-0.121,13.061,18.554,-19.897,1
0.601197,0.685,0.737,-0.125,17.395,17.944,-20.446,1
0.609338,0.679,0.734,-0.128,21.423,17.456,-20.874,1
0.617295,0.676,0.73,-0.129,25.634,16.906,-20.874,1
0.625125,0.678,0.729,-0.133,28.869,16.601,-21.24,1
0.632289,0.671,0.718,-0.135,29.846,16.479,-21.667,1
0.638352,0.671,0.715,-0.141,29.785,16.54,-21.484,1
0.646968,0.67,0.711,-0.135,29.968,16.723,-21.789,1
0.654298,0.674,0.711,-0.134,31.188,16.845,-21.545,1
0.661493,0.673,0.711,-0.136,31.066,17.395,-21.85,1
0.66961,0.683,0.708,-0.137,30.029,17.944,-21.667,1
0.67747,0.692,0.708,-0.14,28.137,18.859,-21.545,1
0.685501,0.709,0.709,-0.14,25.573,19.836,-21.179,1
0.693868,0.724,0.713,-0.142,22.277,20.996,-21.179,1
0.702047,0.748,0.719,-0.143,19.287,21.85,-21.118,1
0.708407,0.777,0.723,-0.147,16.601,23.315,-20.812,1
0.716825,0.818,0.735,-0.142,15.441,24.108,-20.507,1
0.725085,0.854,0.749,-0.151,16.235,25.329,-20.385,1
0.73231,0.899,0.765,-0.154,17.578,25.817,-20.69,1
0.739233,0.943,0.791,-0.146,19.409,26.916,-20.446,1
0.746919,0.974,0.813,-0.147,19.104,27.832,-20.385,1
0.755436,1.013,0.853,-0.134,16.357,29.235,-20.629,1
0.762988,1.056,0.895,-0.125,11.901,31.005,-21.362,1
0.7703,1.104,0.951,-0.106,7.934,32.836,-22.46,1
0.777829,1.137,1.02,-0.098,6.469,34.484,-24.047,1
0.785511,1.168,1.106,-0.083,7.69,35.827,-26.611,1
0.792835,1.188,1.169,-0.072,13.549,36.682,-29.357,1
0.801286,1.187,1.237,-0.053,23.01,37.536,-32.165,1
0.809618,1.183,1.307,-0.038,33.935,38.391,-36.804,1
0.816871,1.236,1.354,-0.015,43.334,38.696,-41.076,1
0.825821,1.167,1.386,-0.006,48.645,40.649,-44.677,1
0.834187,1.151,1.426,0.021,51.452,41.381,-49.865,1
0.842298,1.143,1.452,0.036,49.255,44.921,-54.321,1
0.84874,1.123,1.478,0.04,42.236,46.325,-59.265,1
0.858177,1.09,1.515,0.062,35.705,49.804,-64.636,1
0.86375,1.051,1.546,0.041,30.7,51.452,-70.19,1
0.872627,1.016,1.57,0.043,30.029,53.161,-76.293,1
0.880493,1.031,1.557,0.008,37.292,53.527,-83.129,1
0.887978,1.06,1.522,-0.002,51.757,53.283,-89.05,1
0.896529,1.054,1.463,-0.02,70.068,52.856,-94.238,1
0.903361,1.014,1.396,-0.03,81.42,53.466,-98.937,1
0.911012,0.954,1.313,-0.049,81.054,55.541,-102.722,1
0.919187,0.893,1.252,-0.051,70.251,58.776,-107.238,1
0.928192,0.859,1.188,-0.062,57.739,62.438,-110.839,1
0.934913,0.835,1.141,-0.076,47.119,64.819,-114.013,1
0.9438,0.8,1.101,-0.076,42.785,66.955,-117.004,1
0.950459,0.745,1.03,-0.091,42.541,68.847,-119.934,1
0.959639,0.687,0.964,-0.097,42.785,70.434,-121.643,1
0.966433,0.619,0.882,-0.11,41.015,72.082,-123.229,1
0.974211,0.567,0.817,-0.123,38.391,73.73,-124.633,1
0.98269,0.517,0.749,-0.128,35.949,75.561,-125.671,1
0.989954,0.468,0.693,-0.125,35.888,76.843,-125.976,1
0.997427,0.418,0.647,-0.124,36.315,78.43,-126.342,1
1.005597,0.352,0.592,-0.125,35.034,80.322,-126.708,1
1.012504,0.302,0.539,-0.134,31.616,81.909,-127.197,1
1.02183,0.313,0.479,-0.144,26.367,83.374,-126.953,1
1.028209,0.338,0.427,-0.145,21.667,84.777,-126.77,1
1.035983,0.333,0.382,-0.155,18.249,85.937,-125.488,1
1.043235,0.31,0.322,-0.171,13.488,86.425,-124.267,1
1.051384,0.297,0.254,-0.186,5.126,86.914,-122.436,1
1.058025,0.339,0.192,-0.201,-6.164,87.585,-120.056,1
1.066495,0.372,0.144,-0.202,-18.676,88.073,-117.736,1
1.076208,0.342,0.1,-0.226,-31.372,88.317,-114.318,1
1.08236,0.335,0.077,-0.233,-36.499,87.585,-111.511,1
1.090569,0.347,0.051,-0.24,-33.203,86.181,-108.825,1
1.097713,0.358,0.016,-0.253,-24.841,84.106,-105.651,1
1.106462,0.371,-0.024,-0.276,-13.671,82.58,-101.684,1
1.113804,0.383,-0.064,-0.299,-6.652,80.444,-98.693,1
1.121619,0.37,-0.11,-0.313,2.197,79.284,-95.031,1
1.128735,0.347,-0.166,-0.34,9.826,77.941,-90.881,1
1.137138,0.33,-0.207,-0.352,18.066,77.575,-86.181,1
1.145682,0.354,-0.278,-0.387,20.996,77.514,-80.993,1
1.152332,0.31,-0.341,-0.411,13.488,78.674,-75.622,1
1.160935,0.249,-0.379,-0.439,-5.249,81.237,-70.251,1
1.168747,0.22,-0.404,-0.462,-32.348,83.862,-64.331,1
1.175807,0.184,-0.41,-0.469,-48.767,85.205,-60.058,1
1.184448,0.128,-0.4,-0.48,-53.588,85.815,-55.297,1
1.193131,0.078,-0.401,-0.498,-47.668,84.899,-50.109,1
1.19934,0.017,-0.417,-0.517,-35.156,83.435,-45.532,1
1.208154,-0.017,-0.45,-0.546,-21.362,81.42,-40.832,1
1.216111,-0.039,-0.484,-0.572,-7.141,78.796,-36.071,1
1.222958,-0.076,-0.532,-0.608,7.629,76.354,-31.188,1
1.230257,-0.097,-0.612,-0.651,14.709,73.73,-25.268,1
1.238332,-0.079,-0.679,-0.692,11.596,72.204,-19.409,1
1.246727,-0.12,-0.758,-0.74,-4.211,70.373,-11.779,1
1.255033,-0.156,-0.805,-0.772,-20.141,68.237,-5.249,1
1.262135,-0.166,-0.855,-0.785,-30.761,65.002,1.525,1
1.270312,-0.19,-0.913,-0.806,-32.287,60.913,8.117,1
1.278491,-0.208,-0.958,-0.837,-28.442,54.504,16.601,1
1.287059,-0.246,-1.014,-0.862,-20.812,48.156,23.925,1
1.294208,-0.265,-1.053,-0.911,-8.911,40.893,31.799,1
1.302469,-0.309,-1.103,-0.953,7.934,31.555,39.916,1
1.309187,-0.304,-1.159,-1.001,28.93,21.179,50.903,1
1.3176,-0.33,-1.207,-1.044,42.663,11.657,61.035,1
1.32567,-0.405,-1.241,-1.077,52.124,2.99,71.899,1
1.334028,-0.497,-1.286,-1.127,51.574,-5.004,83.19,1
1.342,-0.551,-1.349,-1.182,33.02,-12.817,97.595,1
1.351227,-0.581,-1.384,-1.219,1.159,-17.639,110.412,1
1.358281,-0.677,-1.379,-1.234,-43.457,-21.362,125.976,1
1.367405,-0.791,-1.33,-1.219,-76.171,-24.536,139.282,1
1.376039,-0.916,-1.244,-1.181,-94.726,-28.808,154.907,1
1.383168,-1.095,-1.126,-1.151,-85.998,-35.278,168.273,1
1.391668,-1.234,-1.048,-1.139,-52.429,-45.104,183.349,1
1.400136,-1.382,-1.018,-1.145,-13.732,-57.8,198.852,1
1.40967,-1.555,-1.002,-1.158,8.728,-67.749,212.341,1
1.417653,-1.699,-1.0,-1.187,17.333,-78.308,228.881,1
1.424579,-1.87,-0.991,-1.202,11.169,-86.242,244.14,1
1.433319,-2.035,-0.977,-1.221,-10.864,-93.505,263.549,1
1.440342,-2.217,-0.921,-1.222,-42.358,-97.229,281.494,1
1.449273,-2.452,-0.816,-1.214,-81.665,-100.463,303.1,1
1.456372,-2.713,-0.665,-1.176,-102.05,-103.271,321.167,1
1.464832,-2.979,-0.498,-1.143,-98.937,-108.642,339.172,1
1.474348,-3.297,-0.331,-1.1,-70.495,-118.408,359.191,1
1.481363,-3.621,-0.19,-1.061,-31.127,-132.263,378.478,1
1.490814,-3.931,-0.09,-1.035,1.342,-145.812,394.775,1
1.49766,-4.245,-0.015,-1.022,26.184,-160.034,411.254,1
1.506073,-4.538,0.056,-1.013,39.55,-174.804,427.368,1
1.512991,-4.921,0.172,-0.978,41.442,-189.086,443.542,1
1.521691,-5.309,0.283,-0.938,33.508,-204.65,461.791,1
1.529559,-5.732,0.403,-0.883,22.216,-217.285,477.294,1
1.53735,-6.235,0.562,-0.832,11.901,-229.492,492.675,1
1.545137,-6.655,0.72,-0.775,9.948,-245.239,510.314,1
1.553496,-7.017,0.869,-0.719,22.46,-261.23,523.742,1
1.561805,-7.365,1.023,-0.666,48.156,-281.372,535.888,1
1.56874,-7.791,1.187,-0.582,87.28,-305.603,545.776,1
1.57712,-8.172,1.329,-0.506,147.155,-341.308,553.649,1
1.586786,-8.596,1.467,-0.392,211.059,-382.751,556.335,1
1.595295,-8.957,1.58,-0.289,260.803,-422.058,554.016,1
1.601892,-9.391,1.692,-0.135,310.363,-472.167,545.532,1
1.609137,-9.807,1.77,0.035,347.29,-516.296,533.691,1
1.617377,-10.335,1.893,0.203,377.38,-560.119,518.005,1
1.626423,-10.875,2.014,0.437,399.291,-603.515,498.352,1
1.633062,-11.529,2.192,0.712,424.194,-650.451,470.458,1
1.64157,-12.066,2.332,0.907,451.721,-691.284,440.978,1
1.649283,-12.488,2.444,1.155,487.426,-729.614,405.578,1
1.657346,-12.701,2.466,1.302,529.052,-767.394,363.769,1
1.666148,-12.914,2.454,1.439,585.754,-808.044,305.48,1
1.673135,-13.204,2.405,1.505,633.972,-839.111,247.497,1
1.680598,-13.382,2.375,1.525,683.227,-869.262,171.752,1
1.689051,-13.39,2.337,1.527,716.735,-883.911,112.731,1
1.697395,-13.375,2.235,1.556,757.629,-897.094,24.291,1
1.705357,-13.427,2.046,1.5,788.757,-894.165,-54.504,1
1.712606,-13.439,1.903,1.409,798.278,-882.995,-147.155,1
1.720959,-13.317,1.838,1.409,795.288,-856.872,-222.9,1
1.730944,-13.062,1.792,1.36,769.165,-821.227,-306.274,1
1.73988,-12.849,1.621,1.271,752.441,-777.465,-369.506,1
1.74684,-12.57,1.45,1.076,729.675,-728.454,-434.631,1
1.755302,-12.293,1.369,1.057,712.036,-676.513,-482.849,1
1.762615,-11.864,1.265,0.945,693.054,-616.149,-531.005,1
1.77097,-11.441,1.086,0.804,674.499,-557.983,-563.049,1
1.779847,-11.141,0.953,0.716,631.958,-493.835,-591.918,1
1.788152,-10.864,0.826,0.715,573.059,-435.913,-606.445,1
1.795967,-10.238,0.659,0.602,484.802,-376.037,-614.929,1
1.804647,-9.694,0.55,0.603,399.291,-324.035,-614.99,1
1.812358,-9.172,0.429,0.597,345.397,-287.536,-609.619,1
1.820887,-8.653,0.369,0.624,296.264,-250.915,-598.266,1
1.82942,-8.228,0.296,0.635,279.724,-222.29,-588.439,1
1.838774,-7.827,0.213,0.649,279.357,-193.664,-575.866,1
1.846721,-7.307,0.047,0.631,289.917,-164.428,-562.133,1
1.854287,-6.862,-0.111,0.617,293.518,-140.991,-549.499,1
1.862804,-6.52,-0.265,0.597,289.855,-112.243,-533.447,1
1.871642,-6.136,-0.43,0.577,280.883,-85.754,-515.808,1
1.878627,-5.747,-0.578,0.563,273.803,-63.903,-499.816,1
1.886995,-5.328,-0.746,0.515,262.268,-43.701,-482.666,1
1.895888,-4.812,-0.911,0.494,253.601,-22.277,-460.327,1
1.903051,-4.4,-1.057,0.443,250.061,-6.286,-440.124,1
1.911679,-3.927,-1.22,0.377,244.812,8.605,-419.25,1
1.920546,-3.526,-1.334,0.32,235.717,22.521,-393.92,1
1.927625,-3.172,-1.445,0.272,227.05,33.325,-371.032,1
1.935659,-2.931,-1.539,0.238,210.144,44.311,-344.116,1
1.945005,-2.72,-1.62,0.216,184.997,53.771,-321.289,1
1.953258,-2.466,-1.66,0.203,155.883,61.767,-295.349,1
1.959981,-2.244,-1.677,0.198,139.953,67.749,-273.925,1
1.969183,-2.092,-1.665,0.188,132.141,71.166,-249.389,1
1.976374,-1.939,-1.643,0.194,132.08,74.096,-229.125,1
1.984494,-1.784,-1.639,0.175,129.516,76.538,-209.777,1
1.99317,-1.636,-1.634,0.166,116.271,80.2,-187.927,1
2.001939,-1.477,-1.607,0.164,95.642,83.251,-166.931,1
2.009079,-1.349,-1.557,0.173,78.43,85.815,-150.329,1
2.017622,-1.24,-1.5,0.183,64.331,87.707,-134.765,1
2.026749,-1.109,-1.45,0.213,52.001,89.538,-117.919,1
2.0347,-1.0,-1.406,0.231,40.1,90.576,-104.248,1
2.042456,-0.899,-1.343,0.266,23.681,92.651,-89.599,1
2.051006,-0.805,-1.306,0.291,4.943,93.933,-77.941,1
2.058749,-0.691,-1.247,0.339,-24.047,96.435,-64.88,1
2.067323,-0.63,-1.15,0.403,-50.048,98.144,-55.053,1
2.075241,-0.591,-1.061,0.478,-74.34,100.769,-44.921,1
2.083358,-0.549,-0.972,0.524,-85.021,102.355,-37.536,1
2.092534,-0.49,-0.866,0.59,-84.106,103.271,-31.005,1
2.101618,-0.446,-0.795,0.632,-68.908,103.637,-24.23,1
2.109999,-0.375,-0.747,0.666,-44.433,103.881,-17.883,1
2.119043,-0.308,-0.732,0.663,-26.489,105.102,-11.657,1
2.12792,-0.233,-0.723,0.666,-22.644,107.604,-5.798,1
2.136285,-0.135,-0.709,0.652,-33.63,110.961,0.183,1
2.143372,-0.068,-0.679,0.645,-52.612,115.173,5.554,1
2.152432,-0.006,-0.606,0.629,-66.955,117.858,9.46,1
2.159349,0.03,-0.54,0.623,-72.937,119.873,13.122,1
2.167112,0.063,-0.473,0.601,-68.176,120.361,15.991,1
2.176697,0.101,-0.418,0.573,-56.518,119.995,18.371,1
2.184417,0.138,-0.375,0.525,-43.762,118.957,21.179,1
2.193273,0.192,-0.348,0.468,-36.926,117.614,23.437,1
2.199721,0.239,-0.322,0.421,-42.053,115.539,25.512,1
2.208256,0.235,-0.288,0.406,-54.504,115.112,26.794,1
2.214973,0.215,-0.241,0.402,-68.481,113.83,27.404,1
2.223752,0.233,-0.202,0.411,-75.012,113.037,28.198,1
2.231186,0.278,-0.17,0.407,-73.547,110.839,28.747,1
2.240605,0.319,-0.132,0.41,-67.871,108.886,29.357,1
2.248466,0.376,-0.109,0.395,-61.584,106.384,29.602,1
2.255579,0.419,-0.088,0.385,-56.274,103.942,29.968,1
2.263141,0.455,-0.065,0.361,-52.429,102.05,30.273,1
2.270872,0.494,-0.046,0.341,-50.598,98.632,30.822,1
2.278495,0.515,-0.014,0.324,-48.522,96.069,30.761,1
2.286834,0.541,0.013,0.316,-45.654,92.895,30.883,1
2.295933,0.575,0.038,0.306,-40.161,89.782,30.822,1
2.303004,0.606,0.056,0.281,-35.095,86.547,30.578,1
2.309879,0.656,0.076,0.252,-28.747,83.068,30.273,1
2.317872,0.681,0.081,0.232,-22.094,78.857,30.029,1
2.325052,0.713,0.08,0.216,-15.014,74.951,29.846,1
2.33359,0.756,0.074,0.192,-11.169,70.922,30.029,1
2.342008,0.803,0.081,0.179,-11.718,67.138,30.395,1
2.349383,0.822,0.091,0.169,-14.953,64.697,30.517,1
2.355319,0.823,0.104,0.162,-19.531,62.011,30.761,1
2.363846,0.829,0.133,0.155,-23.254,59.448,30.456,1
2.371398,0.828,0.156,0.154,-22.888,55.541,30.639,1
2.381109,0.822,0.166,0.15,-18.92,52.246,30.517,1
2.389431,0.827,0.166,0.148,-14.343,48.889,30.7,1
2.396747,0.837,0.17,0.141,-10.559,45.288,30.517,1
2.404262,0.845,0.164,0.137,-8.605,41.992,30.578,1
2.411095,0.853,0.17,0.14,-7.69,39.611,30.456,1
2.420278,0.838,0.182,0.14,-8.178,37.231,30.456,1
2.427768,0.818,0.197,0.148,-8.483,34.118,30.517,1
2.435884,0.804,0.212,0.154,-8.117,32.531,30.334,1
2.44498,0.791,0.219,0.155,-6.958,30.029,30.273,1
2.452075,0.792,0.228,0.16,-5.249,28.015,29.968,1
2.459741,0.813,0.222,0.16,-3.723,26.184,29.785,1
2.468598,0.826,0.217,0.16,-4.089,24.536,29.785,1
2.47628,0.834,0.213,0.168,-7.873,22.949,29.907,1
2.485007,0.837,0.214,0.174,-11.84,22.033,29.968,1
2.492584,0.849,0.214,0.177,-15.502,21.179,30.151,1
2.501724,0.845,0.223,0.19,-20.263,20.507,30.09,1
2.5104,0.838,0.233,0.192,-22.216,19.653,30.029,1
2.517604,0.861,0.238,0.195,-21.972,18.676,30.456,1
2.526307,0.854,0.251,0.211,-18.005,17.028,30.334,1
2.534879,0.859,0.272,0.214,-14.221,16.418,30.822,1
2.543416,0.862,0.272,0.221,-11.535,15.014,30.944,1
2.550226,0.856,0.281,0.219,-9.826,14.221,30.944,1
2.558961,0.841,0.296,0.221,-8.972,12.878,31.311,1
2.565559,0.835,0.308,0.227,-8.117,12.573,31.494,1
2.574512,0.836,0.315,0.225,-8.117,11.596,31.616,1
2.58229,0.828,0.32,0.227,-9.643,11.291,31.433,1
2.588902,0.819,0.317,0.229,-14.282,11.23,31.127,1
2.597546,0.821,0.301,0.23,-23.864,11.352,31.066,1
2.604168,0.807,0.313,0.234,-34.545,12.329,31.188,1
2.612382,0.824,0.315,0.257,-45.532,13.305,31.433,1
2.619524,0.843,0.332,0.256,-53.344,14.465,31.188,1
2.628347,0.854,0.356,0.268,-57.495,15.563,31.249,1
2.635215,0.85,0.379,0.274,-58.41,16.723,31.066,1
2.643061,0.839,0.402,0.264,-56.335,17.15,30.456,1
2.653093,0.829,0.414,0.262,-53.649,16.906,30.273,1
2.660008,0.819,0.418,0.25,-51.818,17.15,29.846,1
2.670817,0.823,0.423,0.252,-53.955,17.272,29.541,1
2.677703,0.817,0.411,0.249,-61.096,17.639,29.174,1
2.686368,0.816,0.408,0.25,-72.937,18.798,28.686,1
2.695079,0.825,0.403,0.257,-83.557,20.019,28.686,1
2.702621,0.827,0.407,0.265,-92.773,21.423,28.503,1
2.711134,0.838,0.412,0.269,-95.336,22.521,28.869,1
2.720084,0.842,0.416,0.279,-94.177,23.132,28.747,1
2.726827,0.836,0.418,0.276,-90.148,23.864,29.174,1
2.735188,0.822,0.44,0.288,-85.815,24.23,29.235,1
2.742659,0.817,0.457,0.3,-81.176,24.841,29.113,1
2.751697,0.756,0.439,0.303,-81.298,27.099,29.785,1
2.759049,0.771,0.365,0.2,-107.788,27.221,32.47,1
2.767972,0.831,0.431,0.367,-125.732,29.907,30.944,1
2.775479,0.738,0.45,0.289,-127.624,33.935,31.188,1
2.782638,0.679,0.516,0.378,-110.656,33.447,30.456,1
2.789897,0.678,0.529,0.34,-76.416,34.973,29.968,1
2.798157,0.666,0.547,0.355,-39.184,31.494,28.869,1
2.805084,0.678,0.522,0.358,3.173,31.982,28.686,1
2.813426,0.67,0.48,0.315,35.095,27.526,28.503,1
2.820244,0.693,0.429,0.342,62.255,27.893,29.296,1
2.829712,0.709,0.366,0.289,78.247,24.658,30.212,1
2.837925,0.716,0.32,0.298,91.003,24.963,31.799,1
2.845686,0.707,0.268,0.27,98.144,24.23,34.362,1
2.853885,0.677,0.217,0.261,90.942,26.55,38.208,1
2.862362,0.67,0.18,0.251,55.725,30.944,42.114,1
2.869518,0.668,0.165,0.244,9.399,37.17,45.043,1
2.878315,0.666,0.202,0.256,-43.029,43.762,47.668,1
2.885928,0.65,0.262,0.27,-67.443,48.583,49.194,1
2.894006,0.621,0.318,0.276,-70.556,51.452,50.109,1
2.902101,0.606,0.357,0.271,-54.016,52.795,50.964,1
2.909907,0.585,0.372,0.257,-32.531,52.246,51.513,1
2.919059,0.557,0.369,0.241,-10.314,51.635,51.757,1
2.926622,0.542,0.345,0.22,9.216,50.598,53.039,1
2.933853,0.54,0.326,0.214,18.066,50.842,54.321,1
2.942166,0.541,0.307,0.21,18.127,51.33,56.64,1
2.948976,0.542,0.294,0.206,13.244,53.039,58.532,1
2.956201,0.55,0.288,0.207,6.652,55.053,60.668,1
2.96372,0.553,0.288,0.197,-1.403,57.495,62.927,1
2.9721,0.545,0.292,0.195,-9.765,59.753,65.185,1
2.980844,0.532,0.293,0.192,-21.545,63.598,67.687,1
2.989083,0.529,0.311,0.185,-30.151,66.04,69.641,1
2.996159,0.505,0.334,0.178,-32.958,68.115,71.777,1
3.004453,0.466,0.367,0.174,-28.015,69.335,73.547,1
3.014865,0.418,0.387,0.173,-17.456,69.396,74.707,1
3.021471,0.404,0.398,0.162,-1.22,68.908,76.66,1
3.028929,0.377,0.388,0.166,19.226,67.443,79.711,1
3.036111,0.365,0.373,0.161,32.104,67.26,83.068,1
3.04488,0.32,0.346,0.151,34.912,67.382,86.242,1
3.054079,0.282,0.321,0.147,25.756,69.03,90.454,1
3.061105,0.273,0.313,0.147,10.131,71.228,94.177,1
3.068565,0.282,0.346,0.152,-3.234,73.242,96.679,1
3.077531,0.28,0.376,0.169,-5.187,74.462,99.487,1
3.084366,0.228,0.423,0.192,3.967,75.256,101.989,1
3.091955,0.18,0.437,0.193,20.263,74.89,104.797,1
3.100771,0.155,0.447,0.207,33.386,75.073,107.727,1
3.107791,0.144,0.452,0.207,40.527,75.012,110.778,1
3.114909,0.107,0.449,0.212,40.1,76.049,113.647,1
3.122091,0.035,0.45,0.219,32.836,77.27,116.271,1
3.129817,0.011,0.448,0.229,13.244,79.956,119.384,1
3.138249,0.087,0.479,0.258,-0.366,82.885,122.07,1
3.14584,0.103,0.533,0.298,-0.366,85.876,124.633,1
3.154885,0.031,0.602,0.315,7.812,88.928,126.77,1
3.162496,-0.024,0.653,0.326,22.827,91.125,129.577,1
3.170232,-0.054,0.714,0.331,36.682,93.261,131.713,1
3.178047,-0.111,0.74,0.316,40.771,94.848,133.117,1
3.185737,-0.185,0.764,0.306,36.499,97.9,134.46,1
3.193931,-0.249,0.791,0.295,23.803,101.318,135.803,1
3.201411,-0.254,0.825,0.296,11.84,104.614,136.779,1
3.211919,-0.215,0.854,0.301,3.662,108.276,137.329,1
3.217919,-0.196,0.891,0.305,3.417,111.633,138.122,1
3.226971,-0.236,0.93,0.297,6.042,115.722,139.16,1
3.233847,-0.301,0.965,0.274,6.103,119.445,139.465,1
3.241494,-0.368,1.014,0.26,3.662,122.924,139.709,1
3.248932,-0.433,1.054,0.229,0.915,126.403,139.16,1
3.25637,-0.49,1.096,0.208,-0.488,128.723,138.183,1
3.265357,-0.549,1.125,0.184,0.549,130.798,136.962,1
3.273525,-0.565,1.154,0.167,6.103,131.042,135.864,1
3.281726,-0.493,1.186,0.187,20.629,130.432,134.643,1
3.289289,-0.469,1.202,0.205,35.4,131.958,134.521,1
3.297307,-0.506,1.209,0.195,39.611,134.338,134.399,1
3.304455,-0.542,1.233,0.194,25.024,140.197,134.399,1
3.312204,-0.629,1.254,0.164,-0.61,146.484,133.728,1
3.321342,-0.678,1.294,0.155,-34.912,153.991,131.408,1
3.328922,-0.728,1.368,0.136,-66.345,161.437,127.197,1
3.339123,-0.763,1.436,0.114,-73.852,166.32,122.802,1
3.346677,-0.796,1.481,0.086,-61.157,168.09,117.309,1
3.354015,-0.784,1.487,0.076,-34.912,167.114,112.304,1
3.365313,-0.705,1.483,0.076,-9.155,164.916,109.191,1
3.371034,-0.659,1.467,0.099,22.766,165.832,106.811,1
3.378664,-0.701,1.451,0.097,28.381,168.029,105.895,1
3.387099,-0.77,1.446,0.09,16.113,173.522,104.919,1
3.396192,-0.827,1.457,0.067,-15.258,181.274,102.539,1
3.403803,-0.873,1.475,0.049,-48.156,189.453,99.243,1
3.411422,-0.882,1.506,0.015,-64.88,194.58,94.848,1
3.420497,-0.895,1.528,-0.007,-65.185,197.082,90.393,1
3.428266,-0.919,1.528,-0.042,-53.466,198.12,85.266,1
3.438309,-0.93,1.498,-0.058,-40.161,196.96,81.359,1
3.44512,-0.866,1.479,-0.047,-22.583,196.044,77.758,1
3.453932,-0.871,1.467,-0.031,-8.789,196.228,75.561,1
3.461872,-0.937,1.447,-0.028,-2.014,197.814,73.913,1
3.469912,-0.975,1.436,-0.032,-7.019,201.232,72.082,1
3.477669,-1.009,1.436,-0.033,-18.432,205.139,69.458,1
3.486072,-1.05,1.443,-0.033,-28.198,208.374,66.772,1
3.49404,-1.078,1.444,-0.02,-34.912,211.425,62.866,1
3.503419,-1.099,1.436,-0.014,-35.644,213.439,59.204,1
3.511005,-1.133,1.416,-0.019,-36.132,215.209,55.541,1
3.519298,-1.135,1.38,-0.007,-38.269,216.613,51.635,1
3.528438,-1.135,1.357,0.025,-37.536,218.749,48.4,1
3.5361,-1.152,1.344,0.039,-34.667,220.886,46.203,1
3.543629,-1.208,1.333,0.061,-34.484,224.243,44.25,1
3.552634,-1.263,1.325,0.06,-44.677,229.98,41.503,1
3.559378,-1.313,1.327,0.059,-62.866,235.351,38.513,1
3.568502,-1.359,1.339,0.056,-84.472,241.577,33.752,1
3.575898,-1.381,1.347,0.051,-96.008,245.666,28.93,1
3.584271,-1.389,1.35,0.046,-98.327,248.718,23.193,1
3.591594,-1.415,1.342,0.036,-94.238,250.305,17.456,1
3.600099,-1.431,1.327,0.023,-83.19,250.915,11.474,1
3.606905,-1.438,1.3,0.02,-70.19,250.427,6.774,1
3.614117,-1.438,1.271,0.02,-56.091,249.328,3.051,1
3.621813,-1.43,1.232,0.018,-45.593,248.168,-0.305,1
3.630333,-1.427,1.195,0.035,-40.1,247.314,-2.746,1
3.637807,-1.438,1.165,0.047,-41.259,247.497,-5.004,1
3.646441,-1.455,1.154,0.076,-47.973,248.413,-6.713,1
3.653605,-1.474,1.145,0.09,-57.861,250.61,-8.422,1
3.662534,-1.491,1.138,0.103,-68.847,252.38,-10.864,1
3.670117,-1.51,1.143,0.112,-78.247,254.638,-13.977,1
3.677859,-1.51,1.148,0.117,-82.092,255.676,-17.15,1
3.685358,-1.518,1.148,0.118,-84.045,256.896,-20.385,1
3.695836,-1.544,1.156,0.12,-88.012,257.568,-23.742,1
3.703975,-1.566,1.172,0.125,-91.979,258.056,-28.137,1
3.711704,-1.563,1.181,0.135,-90.942,257.69,-32.592,1
3.720447,-1.563,1.179,0.14,-89.66,257.385,-35.827,1
3.729367,-1.569,1.179,0.142,-91.186,257.385,-39.916,1
3.736928,-1.564,1.183,0.144,-92.773,257.324,-43.395,1
3.745589,-1.558,1.191,0.145,-94.238,256.896,-47.546,1
3.753705,-1.553,1.192,0.143,-97.473,256.835,-51.33,1
3.76211,-1.554,1.206,0.138,-103.149,256.286,-56.274,1
3.769093,-1.544,1.213,0.136,-107.91,255.737,-60.241,1
3.778239,-1.529,1.225,0.135,-112.487,254.516,-65.795,1
3.787494,-1.518,1.241,0.13,-113.647,252.807,-70.129,1
3.794475,-1.482,1.248,0.127,-110.595,250.366,-74.951,1
3.802828,-1.472,1.255,0.127,-105.102,247.741,-78.613,1
3.810163,-1.451,1.267,0.127,-100.463,244.873,-82.214,1
3.820367,-1.42,1.274,0.13,-98.327,242.004,-85.815,1
3.82924,-1.394,1.29,0.135,-98.815,239.013,-89.477,1
3.837993,-1.384,1.314,0.135,-100.83,236.206,-93.078,1
3.84629,-1.369,1.342,0.138,-104.736,233.459,-96.923,1
3.85404,-1.354,1.371,0.135,-111.083,231.323,-101.196,1
3.862548,-1.362,1.413,0.134,-118.957,229.37,-105.468,1
3.870237,-1.352,1.455,0.13,-124.145,226.257,-111.145,1
3.879941,-1.341,1.497,0.125,-121.337,221.801,-116.882,1
3.888839,-1.32,1.529,0.116,-111.633,216.674,-122.741,1
3.897502,-1.299,1.55,0.11,-100.524,212.036,-127.624,1
3.904602,-1.275,1.564,0.108,-85.754,206.42,-132.507,1
3.912753,-1.246,1.564,0.101,-72.265,201.477,-136.779,1
3.920769,-1.211,1.558,0.103,-64.88,197.631,-140.014,1
3.929605,-1.187,1.551,0.098,-61.889,194.213,-143.92,1
3.936805,-1.174,1.557,0.095,-64.025,191.833,-147.033,1
3.945029,-1.167,1.564,0.094,-68.298,189.575,-150.207,1
3.953292,-1.148,1.56,0.081,-74.279,187.133,-154.602,1
3.961882,-1.115,1.557,0.071,-78.918,184.57,-158.142,1
3.969889,-1.083,1.554,0.059,-79.528,180.908,-161.926,1
3.979457,-1.065,1.555,0.049,-76.293,177.246,-164.794,1
3.988188,-1.047,1.55,0.035,-70.861,172.607,-168.701,1
3.994866,-1.036,1.553,0.032,-66.04,169.006,-171.813,1
4.003426,-1.049,1.546,0.022,-59.082,165.588,-174.316,1
4.012643,-1.025,1.537,0.003,-49.804,161.071,-177.49,1
4.019459,-1.021,1.515,-0.019,-41.198,157.409,-180.053,1
4.02868,-0.999,1.499,-0.045,-37.353,153.198,-183.044,1
4.035848,-0.973,1.457,-0.086,-38.146,150.085,-185.18,1
4.045153,-0.938,1.429,-0.117,-46.936,145.874,-187.927,1
4.054124,-0.918,1.411,-0.134,-53.161,142.517,-190.002,1
4.061623,-0.923,1.4,-0.156,-50.537,136.779,-192.687,1
4.071487,-0.91,1.346,-0.191,-45.532,132.507,-194.091,1
4.078875,-0.847,1.289,-0.24,-42.48,126.647,-195.251,1
4.088926,-0.822,1.255,-0.271,-35.461,121.215,-195.861,1
4.097508,-0.798,1.215,-0.302,-16.906,112.548,-196.289,1
4.10792,-0.727,1.173,-0.332,7.263,105.163,-195.678,1
4.114865,-0.691,1.137,-0.348,30.517,98.022,-194.335,1
4.122674,-0.667,1.09,-0.358,45.043,92.712,-192.626,1
4.130088,-0.666,1.058,-0.372,47.241,88.928,-191.284,1
4.138955,-0.67,1.024,-0.364,43.579,86.73,-189.758,1
4.145989,-0.675,0.975,-0.368,34.912,85.083,-188.354,1
4.154412,-0.654,0.939,-0.367,22.338,83.251,-186.523,1
4.162587,-0.626,0.916,-0.367,15.258,81.359,-184.936,1
4.170168,-0.605,0.888,-0.367,16.479,78.491,-182.8,1
4.178854,-0.563,0.862,-0.375,24.536,75.073,-181.03,1
4.186111,-0.508,0.829,-0.369,36.56,71.716,-178.527,1
4.194089,-0.455,0.781,-0.381,47.729,68.786,-176.452,1
4.202357,-0.398,0.749,-0.385,52.856,66.284,-173.4,1
4.211391,-0.345,0.721,-0.395,47.912,64.758,-170.593,1
4.220529,-0.298,0.71,-0.39,38.879,63.415,-167.358,1
4.227867,-0.25,0.713,-0.379,27.16,62.133,-163.818,1
4.237762,-0.211,0.724,-0.373,20.751,60.852,-161.132,1
4.244973,-0.187,0.75,-0.373,18.676,58.593,-158.63,1
4.253727,-0.162,0.778,-0.366,24.108,55.419,-156.433,1
4.262231,-0.141,0.794,-0.361,33.203,52.49,-154.174,1
4.269676,-0.112,0.789,-0.349,40.344,50.476,-153.015,1
4.277237,-0.073,0.782,-0.344,45.959,48.522,-151.306,1
4.285526,-0.036,0.777,-0.336,46.569,47.424,-149.902,1
4.293386,0.002,0.77,-0.317,45.043,46.936,-148.864,1
4.301349,0.044,0.763,-0.294,42.48,46.569,-147.644,1
4.309549,0.084,0.755,-0.281,40.832,46.874,-146.789,1
4.31604,0.128,0.734,-0.275,39.855,46.691,-145.446,1
4.324376,0.176,0.714,-0.264,39.672,46.936,-144.226,1
4.331701,0.245,0.69,-0.264,41.198,46.874,-142.578,1
4.338986,0.288,0.674,-0.254,43.579,46.569,-140.441,1
4.347993,0.328,0.662,-0.249,45.288,46.447,-138.732,1
4.3554,0.35,0.654,-0.234,48.461,46.142,-136.901,1
4.363847,0.38,0.641,-0.228,51.208,46.569,-135.559,1
4.371529,0.413,0.618,-0.221,51.574,46.936,-133.422,1
4.379195,0.445,0.612,-0.208,48.828,47.851,-132.141,1
4.388866,0.468,0.604,-0.197,44.86,48.828,-130.31,1
4.396568,0.49,0.596,-0.18,39.855,50.292,-128.967,1
4.405017,0.495,0.594,-0.162,36.743,51.208,-127.258,1
4.412663,0.498,0.604,-0.147,39.611,51.757,-126.464,1
4.420758,0.52,0.6,-0.143,50.842,51.574,-125.183,1
4.428364,0.551,0.6,-0.145,64.697,50.903,-124.084,1
4.437052,0.574,0.605,-0.158,80.81,50.476,-122.375,1
4.444273,0.59,0.606,-0.181,96.435,48.645,-120.788,1
4.452734,0.601,0.598,-0.182,105.346,48.217,-119.262,1
4.462207,0.619,0.589,-0.192,110.107,47.424,-118.164,1
4.469459,0.622,0.57,-0.194,112.915,47.851,-116.821,1
4.478485,0.63,0.545,-0.208,112.609,47.851,-116.027,1
4.486616,0.646,0.518,-0.211,113.037,48.278,-114.196,1
4.494071,0.661,0.48,-0.239,114.562,47.912,-112.731,1
4.500854,0.659,0.431,-0.265,115.844,47.851,-111.145,1
4.51057,0.667,0.387,-0.283,113.403,47.546,-108.337,1
4.517553,0.646,0.359,-0.287,110.29,47.668,-105.224,1
4.525318,0.601,0.353,-0.289,104.736,48.339,-102.905,1
4.534649,0.541,0.36,-0.297,95.886,49.377,-100.769,1
4.543123,0.459,0.375,-0.297,83.129,51.025,-99.243,1
4.55065,0.386,0.387,-0.291,71.96,52.307,-98.327,1
4.55882,0.344,0.395,-0.299,62.316,53.894,-97.961,1
4.565712,0.298,0.392,-0.305,56.884,54.809,-97.778,1
4.573022,0.26,0.364,-0.328,54.443,56.762,-97.717,1
4.581986,0.294,0.306,-0.366,45.898,57.189,-97.595,1
4.589001,0.325,0.266,-0.379,34.912,58.654,-96.862,1
4.596889,0.334,0.239,-0.391,31.921,58.593,-96.679,1
4.604352,0.334,0.215,-0.397,35.461,58.654,-95.886,1
4.615441,0.348,0.196,-0.415,40.283,58.227,-95.031,1
4.623644,0.296,0.169,-0.437,42.663,59.02,-93.505,1
4.630825,0.244,0.126,-0.471,31.188,60.058,-92.773,1
4.638318,0.258,0.094,-0.503,15.441,61.34,-91.613,1
4.645881,0.325,0.081,-0.512,4.699,60.424,-90.515,1
4.653778,0.36,0.076,-0.519,5.31,60.058,-89.233,1
4.663263,0.39,0.058,-0.529,10.803,57.678,-88.256,1
4.669871,0.42,0.026,-0.526,16.784,56.762,-86.425,1
4.677119,0.463,0.013,-0.547,16.113,55.114,-85.021,1
4.685491,0.472,-0.003,-0.559,11.047,54.87,-83.923,1
4.693252,0.478,-0.016,-0.57,2.868,53.894,-82.641,1
4.703668,0.487,-0.022,-0.565,-3.845,52.673,-81.604,1
4.710509,0.498,-0.034,-0.566,-9.46,51.269,-80.322,1
4.719091,0.537,-0.056,-0.548,-14.648,50.231,-78.918,1
4.728181,0.557,-0.067,-0.536,-21.423,49.316,-77.209,1
4.735023,0.549,-0.077,-0.518,-27.221,48.217,-76.11,1
4.744462,0.561,-0.08,-0.51,-28.808,47.729,-74.584,1
4.751713,0.59,-0.088,-0.52,-24.902,45.532,-73.242,1
4.760709,0.631,-0.105,-0.507,-15.808,43.457,-71.838,1
4.76892,0.645,-0.126,-0.511,-9.033,41.442,-70.19,1
4.775809,0.649,-0.141,-0.491,-5.31,40.039,-68.542,1
4.784584,0.663,-0.159,-0.467,-2.014,38.879,-66.833,1
4.791947,0.667,-0.189,-0.442,-3.967,38.635,-65.246,1
4.801057,0.681,-0.234,-0.399,-17.517,40.405,-62.805,1
4.808776,0.659,-0.259,-0.352,-38.696,43.64,-60.913,1
4.817459,0.661,-0.285,-0.307,-70.861,48.767,-58.227,1
4.82642,0.696,-0.284,-0.255,-99.975,54.382,-56.518,1
4.834235,0.698,-0.255,-0.236,-114.99,58.654,-55.236,1
4.842258,0.663,-0.224,-0.236,-104.553,58.898,-54.809,1
4.849416,0.613,-0.228,-0.227,-77.88,59.387,-54.016,1
4.858119,0.634,-0.286,-0.267,-49.316,59.143,-52.978,1
4.864438,0.691,-0.357,-0.279,-27.038,59.387,-51.269,1
4.873218,0.749,-0.44,-0.32,-16.723,61.401,-48.583,1
4.881157,0.788,-0.531,-0.364,-25.939,63.537,-45.471,1
4.890417,0.798,-0.612,-0.401,-63.781,71.044,-40.771,1
4.896089,0.755,-0.647,-0.434,-120.178,77.27,-37.17,1
4.904592,0.713,-0.628,-0.426,-177.49,85.266,-34.24,1
4.914349,0.673,-0.526,-0.438,-211.242,89.294,-32.531,1
4.921904,0.614,-0.449,-0.422,-187.927,88.439,-31.066,1
4.930897,0.613,-0.435,-0.455,-150.573,85.144,-29.968,1
4.939962,0.62,-0.474,-0.473,-108.459,81.298,-28.32,1
4.946736,0.646,-0.528,-0.534,-79.833,78.979,-25.573,1
4.956345,0.659,-0.58,-0.569,-78.613,78.857,-23.01,1
4.965601,0.661,-0.616,-0.629,-101.928,81.054,-20.019,1
4.973878,0.636,-0.595,-0.664,-142.089,84.411,-17.272,1
4.982666,0.595,-0.51,-0.694,-174.865,85.388,-16.052,1
4.990177,0.559,-0.413,-0.69,-178.161,83.374,-15.441,1
4.998889,0.552,-0.313,-0.693,-154.724,78.125,-15.869,1
5.007845,0.512,-0.264,-0.702,-109.863,70.312,-16.845,1
5.015545,0.462,-0.257,-0.738,-57.922,60.791,-17.944,1
5.024285,0.465,-0.297,-0.76,-20.751,53.71,-18.493,1
5.031435,0.421,-0.347,-0.781,9.887,45.166,-19.042,1
5.040223,0.375,-0.405,-0.777,28.32,40.344,-18.432,1
5.048784,0.394,-0.457,-0.814,35.705,35.644,-18.066,1
5.056709,0.341,-0.52,-0.806,31.127,30.517,-17.578,1
5.065352,0.3,-0.559,-0.814,29.235,26.184,-16.357,1
5.073402,0.235,-0.608,-0.775,36.499,20.996,-14.709,1
5.082063,0.226,-0.706,-0.778,48.156,15.686,-13.0,1
5.089573,0.191,-0.812,-0.754,56.213,12.695,-9.948,1
5.097696,0.173,-0.918,-0.776,62.866,10.009,-6.225,1
5.106506,0.08,-1.047,-0.755,73.73,7.446,0.244,1
5.114583,0.018,-1.16,-0.806,76.538,5.676,7.08,1
5.122666,0.039,-1.269,-0.819,76.11,4.211,14.526,1
5.130469,0.035,-1.399,-0.872,72.326,4.089,25.024,1
5.139852,0.018,-1.511,-0.912,61.035,3.967,35.217,1
5.147273,-0.005,-1.607,-0.976,32.897,5.493,48.522,1
5.157092,-0.092,-1.671,-1.018,-0.915,6.53,62.438,1
5.164224,-0.151,-1.704,-1.053,-36.376,8.85,77.514,1
5.172571,-0.292,-1.68,-1.066,-68.908,9.765,90.209,1
5.180952,-0.466,-1.605,-1.05,-99.853,11.718,104.858,1
5.190248,-0.622,-1.509,-1.028,-112.67,11.535,116.638,1
5.197693,-0.777,-1.421,-1.023,-102.478,10.07,127.807,1
5.204378,-0.862,-1.416,-1.042,-75.073,3.967,141.418,1
5.213676,-0.926,-1.459,-1.074,-57.678,0.427,153.808,1
5.221353,-0.999,-1.509,-1.129,-55.847,-5.187,169.738,1
5.229291,-1.085,-1.51,-1.136,-59.509,-8.056,184.082,1
5.237776,-1.203,-1.486,-1.164,-63.11,-12.268,199.096,1
5.245796,-1.318,-1.43,-1.149,-61.767,-17.211,217.163,1
5.254249,-1.49,-1.343,-1.135,-59.204,-23.193,235.229,1
5.261838,-1.696,-1.25,-1.096,-64.208,-26.55,250.427,1
5.271334,-1.891,-1.139,-1.063,-77.453,-29.052,265.869,1
5.280065,-2.117,-1.0,-1.008,-83.312,-32.592,286.499,1
5.287766,-2.332,-0.919,-1.0,-75.256,-36.193,302.551,1
5.297317,-2.479,-0.904,-0.999,-75.012,-40.344,322.509,1
5.305195,-2.716,-0.846,-1.0,-83.679,-44.738,344.238,1
5.314535,-2.995,-0.74,-0.964,-84.106,-49.011,366.699,1
5.322003,-3.265,-0.622,-0.931,-78.247,-53.649,386.962,1
5.331634,-3.7,-0.46,-0.874,-70.129,-58.898,410.461,1
5.339407,-4.14,-0.342,-0.843,-78.43,-62.133,434.692,1
5.348728,-4.537,-0.223,-0.813,-110.107,-61.95,459.838,1
5.356481,-5.041,-0.056,-0.781,-143.859,-60.058,485.534,1
5.365589,-5.514,0.062,-0.753,-161.132,-57.8,508.056,1
5.371854,-6.023,0.195,-0.736,-162.536,-56.152,531.555,1
5.380289,-6.586,0.293,-0.76,-150.817,-57.128,559.997,1
5.389684,-6.972,0.401,-0.762,-125.061,-62.744,584.533,1
5.39727,-7.593,0.519,-0.774,-71.777,-75.378,617.797,1
5.406973,-8.186,0.614,-0.791,-28.625,-90.576,642.883,1
5.412778,-8.798,0.72,-0.816,14.526,-110.778,667.358,1
5.421864,-9.419,0.843,-0.816,57.739,-136.474,690.856,1
5.429422,-10.071,0.96,-0.802,100.524,-166.32,713.195,1
5.437092,-10.812,1.1,-0.779,141.479,-201.904,733.825,1
5.445089,-11.589,1.255,-0.721,186.401,-242.309,752.807,1
5.453011,-12.548,1.436,-0.611,250.244,-297.18,772.644,1
5.460822,-13.415,1.566,-0.487,309.631,-349.609,786.682,1
5.46788,-14.345,1.68,-0.349,371.826,-408.081,796.874,1
5.476997,-15.512,1.814,-0.096,441.101,-472.717,802.185,1
5.486113,-15.995,1.97,0.185,556.396,-569.397,797.424,1
5.494208,-15.999,2.047,0.453,646.789,-650.207,780.273,1
5.501126,-15.999,2.126,0.789,722.595,-733.642,749.511,1
5.508885,-15.999,2.175,1.209,781.188,-829.406,693.298,1
5.51837,-15.999,2.215,1.578,803.405,-900.573,631.53,1
5.525848,-15.999,2.271,1.827,798.767,-962.829,558.288,1
5.533197,-15.999,2.395,2.041,775.695,-1015.319,465.332,1
5.541987,-15.999,2.58,2.152,748.718,-1045.043,377.746,1
5.549272,-15.999,2.831,2.385,713.012,-1061.218,273.864,1
5.55756,-15.999,2.925,2.423,708.496,-1065.063,182.312,1
5.56599,-15.999,2.888,2.507,722.412,-1056.03,88.5,1
5.573081,-15.999,2.975,2.468,742.797,-1038.513,-5.065,1
5.581967,-15.999,2.974,2.438,807.434,-1003.662,-120.605,1
5.590836,-15.999,2.711,2.208,871.765,-962.646,-220.458,1
5.596715,-15.999,2.376,2.006,923.4,-911.56,-317.565,1
5.605649,-15.999,2.08,1.74,936.706,-844.482,-407.165,1
5.613108,-15.999,1.805,1.491,905.395,-772.338,-483.886,1
5.624011,-15.756,1.47,1.274,839.294,-676.879,-553.1,1
5.630388,-14.696,1.137,0.992,737.731,-586.181,-601.867,1
5.638498,-13.784,0.967,1.02,615.661,-499.511,-631.774,1
5.646044,-13.053,0.771,0.909,510.07,-431.335,-643.737,1
5.655854,-12.375,0.625,0.909,389.526,-367.126,-646.24,1
5.664267,-11.547,0.464,0.933,278.93,-308.471,-638.916,1
5.673696,-10.808,0.365,0.974,197.875,-273.986,-628.356,1
5.681135,-9.851,0.265,1.074,148.925,-238.342,-612.976,1
5.688511,-8.981,0.167,1.127,161.01,-214.599,-596.557,1
5.697524,-8.26,0.031,1.11,213.012,-191.833,-581.42,1
5.706713,-7.529,-0.143,1.015,284.24,-167.236,-563.903,1
5.714753,-6.955,-0.369,0.919,335.205,-140.014,-546.813,1
5.722797,-6.464,-0.567,0.828,357.604,-106.628,-525.207,1
5.729758,-5.989,-0.747,0.751,349.304,-76.354,-504.028,1
5.738848,-5.424,-0.892,0.681,322.387,-44.799,-478.393,1
5.747448,-4.895,-1.014,0.628,291.809,-16.296,-451.171,1
5.754975,-4.452,-1.106,0.579,264.343,4.333,-428.039,1
5.763499,-4.03,-1.18,0.531,238.281,22.033,-404.113,1
5.772108,-3.731,-1.212,0.509,211.547,39.184,-376.159,1
5.780218,-3.457,-1.24,0.481,194.152,52.307,-352.966,1
5.787134,-3.189,-1.258,0.465,181.396,63.354,-330.749,1
5.795269,-2.969,-1.269,0.464,172.729,76.049,-305.48,1
5.803412,-2.786,-1.325,0.427,160.705,87.036,-284.606,1
5.811972,-2.53,-1.374,0.403,135.375,99.304,-260.62,1
5.818446,-2.322,-1.381,0.354,111.389,108.032,-241.088,1
5.829133,-2.157,-1.376,0.325,88.439,114.807,-222.656,1
5.836886,-1.977,-1.339,0.285,70.312,120.117,-202.27,1
5.844098,-1.858,-1.295,0.252,60.974,122.436,-186.157,1
5.853394,-1.751,-1.234,0.216,57.434,124.023,-168.273,1
5.862671,-1.641,-1.175,0.168,58.471,123.413,-154.479,1
5.871683,-1.513,-1.105,0.119,68.42,120.91,-137.146,1
5.877526,-1.368,-1.043,0.063,79.895,117.187,-125.61,1
5.887843,-1.244,-0.985,0.013,95.397,111.389,-112.976,1
5.893809,-1.134,-0.924,-0.02,115.356,104.797,-103.454,1
5.903919,-1.03,-0.944,-0.054,131.469,99.304,-93.322,1
5.911823,-0.83,-0.973,-0.111,116.699,95.642,-80.932,1
5.919226,-0.721,-0.959,-0.119,92.407,92.651,-72.814,1
5.927712,-0.66,-0.9,-0.125,72.387,89.904,-65.612,1
5.937786,-0.537,-0.833,-0.107,60.913,85.632,-58.776,1
5.944133,-0.464,-0.791,-0.102,67.199,80.139,-52.307,1
5.953078,-0.381,-0.758,-0.089,76.843,75.073,-47.18,1
5.962327,-0.329,-0.73,-0.088,87.097,70.068,-41.931,1
5.969915,-0.27,-0.714,-0.085,91.552,65.795,-37.902,1
5.978757,-0.189,-0.715,-0.076,91.918,62.377,-33.386,1
5.987331,-0.118,-0.735,-0.07,81.848,60.424,-28.564,1
5.995096,-0.042,-0.736,-0.064,62.744,59.509,-24.108,1
6.004679,0.014,-0.732,-0.042,46.203,58.776,-20.629,1
6.013594,0.106,-0.72,-0.022,30.822,58.166,-16.479,1
6.021428,0.153,-0.707,0.0,21.606,57.189,-12.695,1
6.030297,0.193,-0.678,0.012,17.272,55.603,-9.094,1
6.038131,0.232,-0.65,0.016,17.639,54.016,-6.103,1
6.047038,0.238,-0.624,0.034,17.456,51.574,-2.807,1
6.05427,0.256,-0.594,0.044,15.319,49.743,-0.976,1
6.062482,0.254,-0.584,0.062,8.789,48.095,1.464,1
6.071241,0.256,-0.572,0.081,-0.183,46.752,3.112,1
6.07838,0.284,-0.566,0.091,-10.803,46.691,4.394,1
6.087245,0.319,-0.556,0.103,-21.789,46.203,5.676,1
6.096169,0.371,-0.538,0.127,-27.282,45.349,6.652,1
6.104112,0.416,-0.527,0.138,-23.681,43.945,7.568,1
6.110873,0.456,-0.535,0.152,-11.718,41.87,8.972,1
6.120068,0.498,-0.556,0.161,-0.671,40.161,10.62,1
6.127589,0.527,-0.58,0.153,4.089,39.489,12.878,1
6.135574,0.561,-0.596,0.149,-2.38,39.367,15.563,1
6.142467,0.59,-0.596,0.139,-13.916,39.794,18.005,1
6.151126,0.627,-0.585,0.141,-26.489,40.527,20.507,1
6.158658,0.672,-0.562,0.135,-39.855,41.748,23.437,1
6.166053,0.678,-0.526,0.135,-49.011,41.809,25.634,1
6.17501,0.695,-0.494,0.134,-52.978,42.053,27.526,1
6.182029,0.7,-0.458,0.136,-51.269,40.954,29.113,1
6.18925,0.7,-0.437,0.134,-44.311,40.344,30.578,1
6.196896,0.698,-0.419,0.129,-35.705,38.635,31.982,1
6.20615,0.692,-0.404,0.126,-27.77,37.536,33.386,1
6.214157,0.689,-0.394,0.127,-17.456,35.4,34.912,1
6.22176,0.702,-0.401,0.123,-8.483,34.24,36.56,1
6.230687,0.713,-0.407,0.11,-8.239,33.508,38.024,1
6.237165,0.719,-0.399,0.1,-13.854,33.325,39.489,1
6.24475,0.715,-0.381,0.092,-21.911,32.897,40.954,1
6.253118,0.729,-0.363,0.087,-27.709,32.653,42.114,1
6.261541,0.745,-0.345,0.079,-32.836,32.348,43.334,1
6.268455,0.758,-0.32,0.072,-40.283,31.555,44.677,1
6.276733,0.769,-0.287,0.065,-45.715,31.066,45.715,1
6.284298,0.773,-0.259,0.059,-48.522,29.968,46.569,1
6.29207,0.776,-0.221,0.057,-48.95,28.564,47.302,1
6.300197,0.778,-0.181,0.043,-47.607,26.611,47.546,1
6.309441,0.781,-0.136,0.039,-45.776,23.803,48.217,1
6.316777,0.751,-0.074,0.032,-43.395,20.812,47.912,1
6.324386,0.734,-0.021,0.029,-37.109,17.211,47.729,1
6.333355,0.715,0.028,0.028,-25.329,13.0,47.363,1
6.341757,0.733,0.078,0.026,-6.469,7.141,45.532,1
6.3486,0.713,0.113,0.035,11.84,1.953,44.067,1
6.356839,0.687,0.141,0.043,30.761,-3.54,43.029,1
6.364362,0.699,0.144,0.058,45.41,-7.995,42.297,1
6.372013,0.721,0.143,0.056,47.851,-11.413,41.076,1
6.379681,0.716,0.144,0.069,36.865,-13.977,39.978,1
6.387377,0.715,0.157,0.083,23.254,-15.747,39.367,1
6.39483,0.709,0.17,0.106,12.756,-16.784,38.269,1
6.403409,0.712,0.182,0.118,2.868,-17.272,37.048,1
6.411217,0.712,0.191,0.139,-2.99,-18.432,35.827,1
6.420568,0.744,0.192,0.15,-3.662,-19.348,34.851,1
6.429567,0.799,0.187,0.163,-0.061,-21.362,33.63,1
6.438483,0.828,0.185,0.185,6.164,-22.949,32.287,1
6.445801,0.827,0.172,0.209,13.549,-24.902,31.494,1
6.453471,0.821,0.163,0.231,21.057,-25.878,30.944,1
6.461625,0.812,0.135,0.249,27.343,-26.367,30.639,1
6.469905,0.832,0.095,0.254,27.465,-25.695,30.761,1
6.476785,0.848,0.069,0.26,21.789,-25.39,31.066,1
6.484787,0.856,0.049,0.265,14.587,-24.658,31.494,1
6.492912,0.869,0.037,0.266,8.605,-23.986,32.165,1
6.499423,0.875,0.024,0.269,5.126,-23.681,32.958,1
6.508394,0.868,0.016,0.274,4.211,-23.437,33.752,1
6.51437,0.859,0.005,0.279,4.089,-23.62,35.156,1
6.521886,0.843,-0.011,0.294,3.723,-23.437,36.682,1
6.529733,0.844,-0.021,0.301,2.38,-23.071,38.452,1
6.537205,0.818,-0.036,0.316,0.122,-22.399,39.916,1
6.546026,0.795,-0.04,0.32,-2.624,-21.301,41.931,1
6.554017,0.77,-0.035,0.324,-3.601,-20.629,43.823,1
6.561426,0.72,-0.041,0.325,-3.112,-19.47,45.959,1
6.569912,0.684,-0.044,0.33,-2.563,-19.042,47.729,1
6.577243,0.663,-0.055,0.328,-2.563,-18.188,49.682,1
6.586084,0.651,-0.067,0.321,-3.845,-17.578,52.307,1
6.593865,0.648,-0.075,0.322,-7.446,-16.601,55.175,1
6.602943,0.642,-0.077,0.327,-12.145,-15.869,57.739,1
6.611447,0.619,-0.064,0.34,-18.066,-14.465,60.729,1
6.620098,0.596,-0.052,0.358,-21.179,-13.427,63.842,1
6.628576,0.573,-0.039,0.378,-22.399,-11.962,66.711,1
6.637561,0.543,-0.022,0.392,-22.644,-10.742,69.274,1
6.644862,0.513,-0.012,0.405,-21.789,-9.155,72.143,1
6.655674,0.487,-0.006,0.412,-21.301,-7.751,74.89,1
6.66267,0.486,0.004,0.416,-22.155,-5.676,78.186,1
6.670026,0.5,0.01,0.416,-26.428,-3.784,80.749,1
6.678904,0.531,0.023,0.419,-35.095,-1.464,83.19,1
6.68695,0.551,0.051,0.427,-49.194,1.525,86.059,1
6.695898,0.536,0.136,0.439,-64.941,5.554,88.867,1
6.702112,0.489,0.218,0.452,-78.552,8.483,89.965,1
6.709748,0.42,0.313,0.467,-87.463,12.268,90.576,1
6.717166,0.395,0.402,0.475,-87.707,14.16,90.27,1
6.726061,0.315,0.459,0.48,-86.486,16.174,90.148,1
6.734383,0.343,0.507,0.474,-88.989,17.333,89.294,1
6.741681,0.395,0.538,0.498,-95.642,19.042,88.745,1
6.748843,0.404,0.6,0.534,-105.163,20.812,87.707,1
6.757492,0.438,0.666,0.582,-107.421,22.766,86.364,1
6.764164,0.489,0.73,0.637,-92.712,24.597,84.533,1
6.773175,0.532,0.773,0.663,-66.65,24.963,83.374,1
6.781016,0.515,0.773,0.678,-39.001,25.207,82.092,1
6.789063,0.447,0.742,0.67,-21.911,26.428,81.542,1
6.796194,0.454,0.7,0.666,-22.155,28.564,81.787,1
6.803489,0.475,0.67,0.661,-32.287,31.921,82.397,1
6.811183,0.487,0.664,0.665,-42.175,36.315,83.74,1
6.818568,0.499,0.664,0.654,-39.489,39.245,84.899,1
6.825671,0.52,0.645,0.636,-25.207,41.137,86.12,1
6.833831,0.58,0.601,0.596,-6.652,41.442,87.951,1
6.842652,0.63,0.535,0.566,5.92,42.114,90.27,1
6.849688,0.655,0.461,0.54,8.85,43.273,92.956,1
6.858136,0.652,0.417,0.523,6.408,45.471,96.313,1
6.865015,0.657,0.365,0.503,2.685,47.607,99.914,1
6.873229,0.633,0.324,0.496,0.427,49.621,103.759,1
6.880413,0.625,0.294,0.484,1.098,52.307,108.703,1
6.889638,0.557,0.293,0.484,3.173,54.504,113.647,1
6.896604,0.447,0.293,0.457,2.868,57.006,118.286,1
6.904994,0.411,0.304,0.449,4.211,58.959,122.558,1
6.912247,0.426,0.3,0.423,10.375,60.852,126.831,1
6.918922,0.439,0.3,0.417,18.92,62.133,131.286,1
6.926199,0.433,0.296,0.395,28.747,64.025,135.925,1
6.935106,0.415,0.299,0.369,36.437,65.124,140.686,1
6.943376,0.408,0.302,0.346,41.442,66.955,145.996,1
6.951094,0.387,0.316,0.292,42.541,69.152,151.916,1
6.957928,0.326,0.342,0.253,37.353,71.044,156.86,1
6.966422,0.218,0.375,0.22,27.343,73.669,161.376,1
6.973994,0.097,0.41,0.171,13.0,76.232,166.137,1
6.982182,0.036,0.46,0.15,0.061,78.186,170.104,1
6.989706,-0.023,0.52,0.139,-9.155,80.139,173.278,1
6.997274,-0.067,0.574,0.13,-10.253,80.688,175.842,1
7.006421,-0.066,0.616,0.132,-1.892,81.42,178.833,1
7.014142,-0.04,0.669,0.129,13.305,80.749,181.945,1
7.021885,-0.067,0.698,0.118,24.047,81.054,185.546,1
7.030015,-0.124,0.729,0.099,27.954,81.542,188.537,1
7.037685,-0.209,0.76,0.083,26.367,82.214,192.138,1
7.045896,-0.284,0.793,0.075,20.751,83.557,194.824,1
7.052855,-0.378,0.835,0.058,10.62,85.266,197.448,1
7.062174,-0.475,0.881,0.038,-3.356,87.158,199.096,1
7.070094,-0.604,0.944,0.021,-21.179,89.111,200.195,1
7.078484,-0.665,0.999,0.025,-31.738,90.332,200.439,1
7.085103,-0.642,1.035,0.039,-31.249,91.247,200.866,1
7.094239,-0.584,1.028,0.057,-22.216,91.43,201.171,1
7.101667,-0.534,1.004,0.071,-7.08,91.735,202.392,1
7.109603,-0.542,0.969,0.072,-4.638,93.322,203.735,1
7.118639,-0.586,0.943,0.075,-19.531,97.167,205.322,1
7.127478,-0.655,0.935,0.074,-49.194,103.027,206.359,1
7.136211,-0.743,0.957,0.083,-86.853,110.656,206.787,1
7.1443,-0.853,1.003,0.096,-121.154,118.774,205.932,1
7.152496,-0.946,1.082,0.109,-154.296,127.441,203.796,1
7.161587,-1.049,1.184,0.148,-164.367,134.704,199.523,1
7.170598,-1.142,1.242,0.176,-150.329,139.831,195.495,1
7.178172,-1.168,1.258,0.209,-122.68,142.517,191.589,1
7.187217,-1.115,1.223,0.235,-96.618,144.653,189.331,1
7.194961,-1.04,1.168,0.251,-77.209,146.85,188.232,1
7.202864,-1.013,1.141,0.276,-74.34,151.245,187.622,1
7.211918,-0.985,1.113,0.296,-76.171,155.639,187.438,1
7.220079,-0.999,1.093,0.322,-78.002,160.278,187.255,1
7.227883,-1.021,1.092,0.335,-80.139,166.259,187.622,1
7.236388,-1.112,1.11,0.33,-83.312,173.034,187.011,1
7.245671,-1.224,1.124,0.322,-87.402,178.222,186.096,1
7.251782,-1.299,1.148,0.328,-89.599,183.959,184.814,1
7.260804,-1.369,1.198,0.303,-85.083,190.185,182.739,1
7.26883,-1.44,1.276,0.297,-76.416,195.251,180.053,1
7.275768,-1.538,1.337,0.282,-67.871,199.707,177.429,1
7.283826,-1.524,1.314,0.273,-62.011,203.186,174.987,1
7.291493,-1.608,1.315,0.26,-54.382,208.618,173.217,1
7.300037,-1.614,1.358,0.254,-52.429,212.89,171.203,1
7.307813,-1.657,1.44,0.225,-57.373,219.604,167.968,1
7.315578,-1.727,1.531,0.214,-65.795,224.853,163.513,1
7.324123,-1.847,1.626,0.192,-78.125,231.689,158.386,1
7.33059,-1.879,1.67,0.161,-93.505,237.365,152.038,1
7.33864,-1.967,1.76,0.156,-98.449,243.896,144.531,1
7.347339,-1.98,1.818,0.139,-98.205,247.741,136.047,1
7.357241,-1.983,1.828,0.144,-91.43,253.295,126.647,1
7.364189,-2.013,1.856,0.134,-88.317,257.446,118.469,1
7.37262,-2.053,1.865,0.111,-96.252,264.099,108.52,1
7.381267,-2.098,1.874,0.09,-110.839,270.751,97.717,1
7.388412,-2.142,1.869,0.062,-124.999,277.465,87.463,1
7.397525,-2.156,1.852,0.014,-142.639,283.63,74.707,1
7.406306,-2.161,1.822,-0.005,-154.113,288.33,63.964,1
7.415037,-2.171,1.764,-0.043,-159.545,290.893,52.673,1
7.423289,-2.151,1.681,-0.055,-155.212,292.663,38.757,1
7.430857,-2.134,1.6,-0.076,-150.512,292.846,27.648,1
7.440058,-2.134,1.538,-0.074,-149.047,293.09,18.737,1
7.447734,-2.136,1.471,-0.076,-148.315,293.334,10.375,1
7.456975,-2.103,1.388,-0.071,-140.502,292.236,-0.061,1
7.464688,-2.072,1.324,-0.065,-129.577,290.405,-6.469,1
7.47222,-2.071,1.25,-0.058,-117.919,288.33,-13.183,1
7.481786,-2.062,1.187,-0.059,-114.013,286.682,-18.371,1
7.489766,-2.055,1.118,-0.064,-119.934,286.315,-23.132,1
7.499064,-2.027,1.053,-0.082,-149.597,286.376,-29.968,1
7.508039,-1.976,0.998,-0.076,-184.204,287.536,-36.132,1
7.514649,-1.931,0.965,-0.082,-228.759,288.33,-44.921,1
7.523984,-1.915,0.939,-0.06,-263.854,288.085,-53.466,1
7.531725,-1.903,0.929,-0.041,-296.02,286.254,-64.27,1
7.540552,-1.873,0.937,-0.004,-309.936,282.165,-75.195,1
7.547755,-1.845,0.947,0.018,-303.222,276.184,-83.923,1
7.555048,-1.817,0.968,0.052,-279.602,269.042,-91.308,1
7.563851,-1.779,0.967,0.065,-237.792,258.728,-98.876,1
7.571693,-1.755,0.961,0.079,-198.547,249.572,-103.027,1
7.581345,-1.725,0.94,0.088,-155.334,239.929,-106.323,1
7.588571,-1.675,0.919,0.106,-124.45,231.567,-108.215,1
7.597281,-1.627,0.908,0.124,-112.548,227.05,-108.337,1
7.605355,-1.599,0.9,0.125,-114.99,223.999,-109.069,1
7.612219,-1.563,0.916,0.139,-129.577,221.069,-110.107,1
7.620066,-1.526,0.951,0.148,-141.967,219.116,-111.083,1
7.62851,-1.507,1.0,0.166,-158.691,216.43,-113.281,1
7.637612,-1.512,1.079,0.183,-168.518,213.806,-116.088,1
7.645082,-1.514,1.167,0.207,-173.034,209.472,-120.117,1
7.653896,-1.515,1.257,0.23,-163.818,204.711,-124.999,1
7.662491,-1.515,1.352,0.259,-139.16,198.12,-130.126,1
7.672361,-1.522,1.416,0.27,-111.633,192.749,-134.46,1
7.681673,-1.514,1.468,0.28,-78.247,186.035,-139.282,1
7.68968,-1.496,1.492,0.283,-61.218,182.8,-142.944,1
7.698684,-1.472,1.495,0.275,-55.297,179.748,-147.338,1
7.706831,-1.446,1.512,0.278,-60.485,178.344,-150.573,1
7.715379,-1.424,1.54,0.281,-72.631,177.185,-155.151,1
7.723428,-1.412,1.562,0.289,-81.97,175.476,-158.935,1
7.732287,-1.395,1.59,0.298,-86.425,173.4,-163.757,1
7.739888,-1.375,1.62,0.307,-82.397,170.288,-168.212,1
7.748502,-1.349,1.642,0.312,-70.556,166.748,-172.119,1
7.75679,-1.329,1.653,0.306,-52.124,162.963,-176.086,1
7.764532,-1.321,1.655,0.294,-35.583,159.484,-179.992,1
7.772803,-1.319,1.648,0.282,-26.977,157.043,-182.922,1
7.780094,-1.305,1.65,0.263,-22.338,154.846,-185.607,1
7.789147,-1.291,1.65,0.249,-16.174,152.771,-189.331,1
7.796411,-1.288,1.639,0.225,-11.901,151.062,-191.65,1
7.805007,-1.267,1.618,0.197,-7.934,149.169,-195.007,1
7.812349,-1.255,1.599,0.163,-6.774,146.911,-198.242,1
7.821619,-1.253,1.576,0.138,-8.056,144.958,-201.11,1
7.828355,-1.209,1.544,0.112,-7.69,142.822,-203.796,1
7.837268,-1.165,1.508,0.082,-4.882,139.648,-206.054,1
7.844339,-1.125,1.478,0.042,-2.685,136.169,-207.946,1
7.852759,-1.077,1.433,-0.001,-1.098,132.507,-209.35,1
7.86097,-1.018,1.402,-0.037,1.892,127.441,-209.96,1
7.868887,-0.954,1.37,-0.062,4.76,123.291,-210.205,1
7.878254,-0.916,1.338,-0.102,2.502,119.689,-210.205,1
7.886355,-0.904,1.306,-0.124,-13.427,116.271,-210.815,1
7.895449,-0.875,1.277,-0.144,-34.545,113.22,-211.853,1
7.903914,-0.835,1.248,-0.171,-49.011,109.069,-212.524,1
7.911233,-0.803,1.228,-0.193,-53.649,104.187,-212.951,1
7.920109,-0.729,1.183,-0.218,-50.476,97.167,-214.111,1
7.927277,-0.667,1.127,-0.262,-37.658,90.515,-214.233,1
7.936868,-0.69,1.093,-0.29,-24.658,83.801,-213.928,1
7.945775,-0.705,1.051,-0.298,-11.352,77.453,-212.646,1
7.953338,-0.682,1.007,-0.324,-4.272,72.57,-211.914,1
7.962179,-0.686,0.957,-0.329,-2.258,69.396,-211.12,1
7.970385,-0.675,0.913,-0.339,-3.967,65.917,-210.327,1
7.978302,-0.641,0.865,-0.352,-12.573,64.086,-209.594,1
7.98676,-0.641,0.811,-0.39,-27.77,61.95,-209.167,1
7.995248,-0.641,0.753,-0.414,-52.429,59.509,-208.557,1
8.004202,-0.609,0.714,-0.42,-75.439,57.006,-208.251,1
8.013591,-0.604,0.655,-0.443,-101.196,53.405,-208.129,1
8.02155,-0.581,0.556,-0.459,-126.586,50.292,-208.251,1
8.030984,-0.593,0.507,-0.457,-155.7,46.691,-207.031,1
8.038425,-0.586,0.456,-0.444,-179.687,42.724,-205.749,1
8.047829,-0.593,0.396,-0.441,-193.481,36.865,-203.43,1
8.056029,-0.395,0.363,-0.441,-190.063,28.32,-201.171,1
8.06542,-0.212,0.328,-0.422,-159.301,20.263,-198.913,1
8.071714,-0.183,0.322,-0.415,-115.905,11.291,-196.838,1
8.080907,-0.19,0.291,-0.406,-55.297,2.685,-193.481,1
8.087526,-0.115,0.262,-0.397,25.085,-5.676,-188.659,1
8.096512,0.008,0.217,-0.403,93.078,-11.474,-184.875,1
8.104296,0.107,0.163,-0.411,151.367,-14.099,-180.419,1
8.111289,0.139,0.101,-0.446,190.673,-15.197,-175.353,1
8.119686,0.154,0.038,-0.473,209.35,-14.038,-169.738,1
8.127417,0.208,0.013,-0.485,208.618,-10.437,-162.109,1
8.136771,0.304,-0.008,-0.498,191.65,-6.774,-155.883,1
8.144285,0.388,-0.014,-0.51,156.86,-1.464,-148.62,1
8.152791,0.408,0.002,-0.514,119.812,2.38,-143.127,1
8.160268,0.418,0.041,-0.5,85.51,5.065,-137.573,1
8.167384,0.478,0.123,-0.49,64.331,6.774,-132.751,1
8.176262,0.489,0.192,-0.451,58.471,6.103,-128.356,1
8.184869,0.502,0.253,-0.444,67.199,5.31,-125.488,1
8.191802,0.479,0.298,-0.406,85.632,2.99,-122.558,1
8.200211,0.494,0.308,-0.387,102.6,2.502,-120.117,1
8.207892,0.515,0.316,-0.352,115.844,1.586,-118.286,1
8.216259,0.524,0.3,-0.303,125.244,3.662,-116.577,1
8.224656,0.519,0.281,-0.265,127.319,5.371,-115.173,1
8.231228,0.512,0.251,-0.217,124.328,9.887,-113.342,1
8.240282,0.528,0.232,-0.186,112.304,14.526,-112.06,1
8.246785,0.524,0.211,-0.151,85.632,22.155,-110.412,1
8.255756,0.525,0.211,-0.128,54.992,28.808,-109.497,1
8.262998,0.523,0.218,-0.097,25.39,34.484,-108.703,1
8.271929,0.505,0.233,-0.066,2.136,40.527,-108.459,1
8.279417,0.507,0.248,-0.041,-14.282,45.227,-108.276,1
8.289094,0.539,0.252,-0.015,-17.944,49.316,-108.276,1
8.296802,0.563,0.247,-0.007,-13.916,52.001,-108.703,1
8.305294,0.538,0.223,0.0,-12.573,54.809,-109.191,1
8.313437,0.502,0.197,0.008,-15.441,58.593,-109.436,1
8.322617,0.479,0.187,-0.001,-24.047,62.561,-109.802,1
8.329621,0.47,0.2,0.013,-35.949,67.443,-110.778,1
8.338849,0.45,0.172,0.0,-48.034,70.922,-111.877,1
8.346434,0.425,0.166,0.0,-59.997,75.378,-113.525,1
8.353252,0.404,0.155,0.008,-66.772,78.552,-115.173,1
8.361764,0.384,0.145,0.007,-67.016,81.542,-116.638,1
8.371227,0.392,0.118,0.01,-64.086,84.289,-118.53,1
8.37982,0.41,0.079,-0.005,-59.936,86.853,-119.75,1
8.387489,0.411,0.032,-0.038,-56.762,88.928,-120.544,1
8.39511,0.431,-0.003,-0.061,-56.396,90.576,-120.849,1
8.403862,0.487,-0.048,-0.074,-56.518,91.186,-120.849,1
8.414626,0.53,-0.097,-0.086,-57.678,93.505,-120.3,1
8.423787,0.493,-0.169,-0.127,-71.105,95.52,-119.75,1
8.430912,0.461,-0.21,-0.141,-94.543,98.144,-118.957,1
8.439987,0.407,-0.242,-0.167,-117.126,100.341,-118.164,1
8.447929,0.382,-0.277,-0.178,-129.943,100.219,-117.431,1
8.456728,0.34,-0.297,-0.181,-124.877,98.754,-117.126,1
8.463887,0.313,-0.342,-0.192,-105.59,94.726,-116.394,1
8.473301,0.369,-0.408,-0.178,-79.467,92.407,-115.539,1
8.480895,0.443,-0.535,-0.195,-55.236,91.857,-112.67,1
8.488833,0.446,-0.676,-0.25,-63.415,93.811,-109.13,1
8.497668,0.399,-0.761,-0.277,-97.595,97.106,-105.59,1
8.506553,0.362,-0.773,-0.281,-146.667,100.463,-101.928,1
8.514302,0.374,-0.742,-0.274,-168.212,101.318,-100.158,1
8.521781,0.338,-0.743,-0.265,-169.433,100.097,-97.595,1
8.530156,0.342,-0.764,-0.277,-156.494,96.618,-95.092,1
8.537851,0.365,-0.812,-0.27,-131.469,92.956,-92.59,1
8.546564,0.393,-0.881,-0.285,-100.402,88.073,-88.134,1
8.553456,0.375,-0.962,-0.289,-79.65,85.388,-83.862,1
8.562843,0.385,-1.048,-0.302,-70.251,83.496,-78.491,1
8.572055,0.366,-1.137,-0.303,-74.218,83.496,-71.716,1
8.578485,0.398,-1.198,-0.302,-88.012,84.167,-64.941,1
8.586775,0.372,-1.22,-0.292,-106.811,86.12,-59.082,1
8.59629,0.291,-1.194,-0.295,-132.629,87.463,-52.612,1
8.60328,0.193,-1.127,-0.273,-140.991,86.547,-47.79,1
8.610922,0.101,-1.073,-0.252,-129.028,83.801,-42.602,1
8.619823,0.038,-1.062,-0.248,-108.947,79.406,-37.902,1
8.630082,-0.044,-1.078,-0.236,-83.679,74.829,-32.348,1
8.637836,-0.099,-1.114,-0.253,-59.02,69.213,-26.062,1
8.64845,-0.147,-1.174,-0.241,-38.696,64.453,-19.165,1
8.655437,-0.173,-1.235,-0.248,-24.841,59.631,-11.169,1
8.663712,-0.24,-1.278,-0.226,-15.563,56.579,-2.929,1
8.673035,-0.291,-1.331,-0.223,-13.732,53.466,6.042,1
8.682391,-0.341,-1.357,-0.207,-15.441,51.513,13.977,1
8.689675,-0.38,-1.369,-0.196,-12.329,48.156,23.925,1
8.69665,-0.422,-1.368,-0.18,0.427,44.494,32.653,1
8.705713,-0.488,-1.375,-0.171,27.893,38.635,42.297,1
8.713084,-0.527,-1.419,-0.144,68.542,33.386,54.748,1
8.721984,-0.548,-1.49,-0.173,96.374,28.625,68.481,1
8.730045,-0.605,-1.5,-0.174,115.722,25.573,81.054,1
8.737591,-0.688,-1.56,-0.209,131.53,22.155,96.191,1
8.745323,-0.72,-1.638,-0.239,120.849,21.667,109.863,1
8.75412,-0.759,-1.684,-0.256,92.712,23.193,124.45,1
8.764871,-0.817,-1.666,-0.25,59.265,26.855,141.845,1
8.772388,-0.952,-1.571,-0.25,37.597,30.334,158.935,1
8.781038,-1.053,-1.495,-0.25,29.418,32.775,173.339,1
8.788107,-1.251,-1.349,-0.262,34.362,34.362,189.697,1
8.797215,-1.411,-1.245,-0.28,51.025,34.667,205.871,1
8.805973,-1.584,-1.121,-0.304,77.209,32.836,221.923,1
8.813695,-1.847,-1.074,-0.327,108.825,29.541,238.22,1
8.821557,-1.891,-1.163,-0.399,102.844,29.541,253.906,1
8.829599,-2.033,-1.173,-0.455,69.274,31.188,270.324,1
8.839788,-2.256,-1.081,-0.477,28.625,34.973,289.428,1
8.847107,-2.552,-0.946,-0.489,12.084,37.475,308.837,1
8.856037,-2.961,-0.822,-0.538,3.234,38.818,325.073,1
8.86276,-3.295,-0.77,-0.554,-12.451,41.442,341.918,1
8.872288,-3.574,-0.714,-0.596,-41.015,45.776,363.464,1
8.881406,-3.935,-0.6,-0.603,-57.983,49.255,382.812,1
8.888154,-4.273,-0.499,-0.615,-57.373,52.307,407.409,1
8.896391,-4.756,-0.412,-0.65,-36.926,51.33,433.837,1
8.904529,-5.189,-0.399,-0.692,-16.784,49.377,458.801,1
8.91352,-5.604,-0.462,-0.764,-12.817,47.241,485.595,1
8.922637,-5.969,-0.482,-0.816,-35.217,47.18,520.874,1
8.931347,-6.662,-0.394,-0.851,-58.898,47.485,557.983,1
8.940235,-7.298,-0.29,-0.867,-58.654,47.546,597.473,1
8.947027,-8.097,-0.161,-0.884,-33.081,43.457,639.343,1
8.956507,-8.937,-0.007,-0.886,19.836,32.47,683.532,1
8.965197,-9.906,0.161,-0.894,100.341,11.84,729.125,1
8.973234,-10.844,0.299,-0.913,179.321,-15.136,768.92,1
8.981931,-11.964,0.465,-0.922,267.578,-59.143,815.307,1
8.991192,-12.98,0.623,-0.925,324.707,-104.003,853.393,1
8.997158,-14.356,0.868,-0.912,365.966,-163.146,894.409,1
9.007104,-15.62,1.154,-0.877,398.559,-222.167,925.17,1
9.013737,-15.995,1.567,-0.71,469.97,-300.903,953.979,1
9.02175,-15.999,1.945,-0.527,561.95,-382.995,970.336,1
9.031245,-15.999,2.202,-0.249,693.115,-497.314,973.449,1
9.038988,-15.999,2.431,0.107,820.19,-610.107,958.373,1
9.04812,-15.999,2.51,0.544,967.895,-760.009,913.452,1
9.055352,-15.999,2.558,1.059,1090.881,-912.109,830.505,1
9.064383,-15.999,2.554,1.489,1159.729,-1035.461,727.172,1
9.071525,-15.999,2.684,1.856,1195.434,-1135.925,596.679,1
9.079064,-15.999,2.888,1.933,1194.641,-1216.43,418.09,1
9.086981,-15.999,3.099,2.058,1175.293,-1246.154,254.943,1
9.095254,-15.999,3.032,2.113,1135.07,-1242.37,87.768,1
9.102763,-15.999,3.027,2.036,1084.106,-1202.758,-72.753,1
9.110754,-15.999,3.05,1.837,1010.742,-1138.305,-243.347,1
9.119377,-15.999,2.973,1.677,963.378,-1059.448,-373.107,1
9.128982,-15.999,2.595,1.399,887.573,-958.373,-499.572,1
9.135696,-15.999,2.203,1.104,785.583,-862.426,-580.078,1
9.144789,-15.999,2.066,1.263,640.93,-759.765,-644.653,1
9.152849,-15.999,1.584,1.16,500.244,-650.695,-681.213,1
9.160891,-15.999,1.322,1.065,351.013,-583.679,-696.227,1
9.169141,-15.886,1.236,1.186,209.533,-511.901,-697.021,1
9.177849,-14.935,1.24,1.175,154.113,-474.426,-690.978,1
9.186066,-14.221,1.088,1.238,151.916,-430.908,-678.405,1
9.195847,-13.002,0.756,1.21,119.689,-385.803,-662.719,1
9.203255,-11.754,0.495,1.157,63.049,-356.079,-646.362,1
9.211849,-10.482,0.334,1.218,27.282,-329.223,-623.107,1
9.220753,-9.553,0.259,1.287,48.767,-312.744,-602.966,1
9.227884,-8.62,0.128,1.336,125.183,-291.076,-580.566,1
9.236673,-7.816,-0.058,1.295,212.341,-266.357,-559.387,1
9.245648,-7.096,-0.267,1.174,282.043,-236.45,-539.184,1
9.254238,-6.539,-0.499,1.097,312.5,-207.458,-521.484,1
9.261273,-6.033,-0.721,0.988,291.442,-166.748,-499.511,1
9.269807,-5.557,-0.902,0.921,227.783,-135.986,-479.186,1
9.278435,-4.996,-0.989,0.905,150.146,-105.041,-453.369,1
9.28766,-4.532,-0.999,0.946,111.145,-83.251,-427.001,1
9.295637,-4.083,-1.01,0.946,111.083,-65.124,-401.184,1
9.3044,-3.676,-1.041,0.941,122.314,-52.062,-380.31,1
9.312768,-3.357,-1.096,0.909,138.854,-36.804,-356.079,1
9.320071,-3.06,-1.135,0.869,147.705,-23.62,-335.754,1
9.329722,-2.764,-1.172,0.808,146.606,-8.605,-312.316,1
9.337264,-2.5,-1.186,0.773,138.061,5.737,-289.062,1
9.345532,-2.294,-1.196,0.742,129.76,17.089,-269.47,1
9.354134,-2.054,-1.203,0.708,116.638,28.198,-250.122,1
9.36186,-1.904,-1.184,0.659,99.182,38.757,-229.125,1
9.370301,-1.791,-1.144,0.643,89.233,46.02,-212.158,1
9.379492,-1.696,-1.074,0.607,87.646,53.283,-193.42,1
9.386161,-1.64,-1.023,0.584,91.613,58.349,-176.025,1
9.395356,-1.576,-0.989,0.551,93.994,62.622,-162.658,1
9.404197,-1.498,-0.948,0.518,90.454,67.199,-148.193,1
9.411244,-1.429,-0.911,0.487,82.824,70.983,-136.84,1
9.420158,-1.34,-0.851,0.474,77.209,74.34,-124.267,1
9.427174,-1.265,-0.807,0.457,77.27,76.599,-114.624,1
9.43643,-1.19,-0.756,0.432,80.017,77.88,-105.59,1
9.444058,-1.124,-0.709,0.403,87.463,79.162,-93.994,1
9.453016,-1.08,-0.672,0.375,93.688,79.956,-85.632,1
9.460267,-1.022,-0.644,0.344,97.656,80.444,-77.88,1
9.469308,-0.989,-0.624,0.311,97.717,80.688,-69.335,1
9.478069,-0.949,-0.613,0.297,92.712,81.665,-62.561,1
9.485082,-0.916,-0.607,0.27,80.261,83.007,-55.175,1
9.493888,-0.859,-0.605,0.248,64.331,84.533,-49.926,1
9.501807,-0.787,-0.603,0.224,48.706,85.327,-45.043,1
9.508733,-0.697,-0.587,0.214,37.902,85.266,-41.564,1
9.517328,-0.626,-0.59,0.207,30.395,84.96,-37.353,1
9.525225,-0.535,-0.598,0.197,26.062,83.862,-34.362,1
9.53417,-0.463,-0.615,0.188,20.629,83.557,-31.127,1
9.542139,-0.389,-0.628,0.176,17.7,82.336,-28.32,1
9.548883,-0.287,-0.659,0.172,18.127,80.505,-24.597,1
9.557429,-0.181,-0.695,0.17,21.057,78.613,-21.423,1
9.565201,-0.083,-0.726,0.171,24.719,76.843,-17.333,1
9.572912,0.006,-0.756,0.167,28.137,75.195,-12.817,1
9.580624,0.097,-0.793,0.175,32.592,73.181,-7.873,1
9.589985,0.183,-0.828,0.169,35.705,71.716,-2.685,1
9.598329,0.249,-0.851,0.157,32.897,70.739,3.479,1
9.607028,0.285,-0.832,0.146,21.667,69.763,9.033,1
9.614296,0.369,-0.833,0.149,19.165,68.359,13.549,1
9.62131,0.432,-0.809,0.158,23.254,67.504,18.066,1
9.630298,0.444,-0.804,0.137,25.146,65.734,22.338,1
9.637782,0.495,-0.803,0.15,27.099,64.086,27.16,1
9.646814,0.509,-0.792,0.141,28.076,62.499,31.249,1
9.653744,0.494,-0.764,0.148,26.611,61.401,35.217,1
9.661351,0.512,-0.726,0.153,22.705,60.119,39.916,1
9.66956,0.464,-0.7,0.146,20.141,59.387,42.968,1
9.678562,0.456,-0.655,0.144,22.521,57.617,46.508,1
9.685343,0.445,-0.629,0.139,29.174,55.664,49.377,1
9.695952,0.455,-0.604,0.129,37.658,52.978,52.978,1
9.702996,0.463,-0.579,0.119,43.212,50.659,56.64,1
9.71182,0.484,-0.55,0.106,44.555,48.4,59.692,1
9.719142,0.496,-0.519,0.103,43.334,46.691,63.354,1
9.727464,0.528,-0.496,0.103,38.635,45.349,66.04,1
9.735273,0.559,-0.471,0.104,28.991,44.799,69.091,1
9.742682,0.576,-0.433,0.105,20.202,44.555,71.166,1
9.750744,0.583,-0.396,0.116,14.465,44.616,72.998,1
9.759342,0.604,-0.367,0.118,12.084,44.433,74.523,1
9.765861,0.614,-0.338,0.119,11.291,44.677,76.11,1
9.773948,0.64,-0.316,0.115,9.887,44.921,77.697,1
9.78206,0.65,-0.295,0.106,6.042,45.532,79.467,1
9.789034,0.662,-0.272,0.106,1.525,46.508,81.237,1
9.797643,0.633,-0.243,0.087,-8.239,47.241,83.129,1
9.807088,0.622,-0.222,0.085,-17.944,48.278,84.777,1
9.813787,0.612,-0.195,0.088,-27.77,49.56,86.242,1
9.820655,0.6,-0.179,0.091,-33.752,50.476,88.195,1
9.828321,0.59,-0.152,0.098,-34.851,51.513,90.087,1
9.836507,0.574,-0.135,0.1,-31.555,52.368,91.918,1
9.844228,0.586,-0.126,0.104,-26.916,52.673,93.811,1
9.85071,0.613,-0.123,0.108,-23.803,53.588,95.214,1
9.859597,0.646,-0.118,0.104,-21.057,55.053,97.412,1
9.865946,0.681,-0.12,0.107,-22.216,57.128,99.365,1
9.874054,0.701,-0.128,0.102,-29.113,59.936,101.135,1
9.8821,0.723,-0.137,0.101,-43.395,64.392,103.759,1
9.888646,0.731,-0.134,0.093,-65.49,70.312,105.834,1
9.89709,0.697,-0.12,0.079,-89.599,75.622,106.933,1
9.90517,0.654,-0.104,0.064,-129.394,83.801,107.727,1
9.912145,0.621,-0.093,0.052,-168.457,91.491,108.154,1
9.920898,0.583,-0.067,0.029,-209.838,100.585,107.91,1
9.927916,0.567,-0.036,-0.007,-252.441,109.069,106.994,1
9.935033,0.533,0.006,-0.039,-290.771,117.065,105.346,1
9.944041,0.524,0.055,-0.073,-317.993,123.535,102.539,1
9.951223,0.498,0.133,-0.085,-327.331,127.99,99.243,1
9.959358,0.473,0.197,-0.09,-315.856,131.225,95.703,1
9.965617,0.474,0.245,-0.092,-283.569,131.713,92.285,1
9.973707,0.515,0.289,-0.068,-235.534,131.774,89.233,1
9.980673,0.529,0.3,-0.085,-182.8,131.286,86.303,1
9.988869,0.48,0.299,-0.09,-138.488,131.469,84.228,1
9.995989,0.452,0.272,-0.128,-110.534,132.995,82.641,1
