timestamp_s,ax,ay,az,gx,gy,gz,label
0.005108,0.674,0.691,0.276,0.183,-2.38,0.061,1
0.013614,0.675,0.691,0.275,0.305,-2.197,0.366,1
0.021719,0.682,0.693,0.275,0.305,-1.892,0.427,1
0.028498,0.681,0.696,0.273,0.427,-1.953,0.427,1
0.037203,0.681,0.699,0.27,0.427,-1.892,0.61,1
0.044643,0.684,0.692,0.267,0.488,-1.831,0.488,1
0.051097,0.677,0.694,0.267,0.854,-2.075,0.732,1
0.057834,0.678,0.693,0.264,0.793,-1.892,0.549,1
0.065651,0.684,0.689,0.266,0.488,-1.647,0.671,1
0.073244,0.684,0.691,0.264,-0.061,-1.892,0.61,1
0.080701,0.684,0.689,0.263,-0.244,-1.892,0.549,1
0.089748,0.687,0.688,0.26,-0.061,-2.075,0.427,1
0.096806,0.686,0.695,0.265,-0.061,-2.136,0.732,1
0.104273,0.687,0.691,0.266,-0.061,-2.075,0.732,1
0.113374,0.69,0.699,0.269,-0.122,-2.136,0.549,1
0.120265,0.685,0.698,0.275,0.427,-2.014,0.61,1
0.127918,0.683,0.696,0.276,0.305,-2.014,0.793,1
0.135285,0.68,0.694,0.277,0.549,-2.319,0.61,1
0.142976,0.683,0.698,0.277,0.488,-2.075,0.793,1
0.150149,0.682,0.696,0.282,0.488,-1.892,0.793,1
0.158514,0.677,0.698,0.285,0.122,-1.892,0.793,1
0.165668,0.686,0.695,0.286,0.061,-1.525,0.915,1
0.174099,0.68,0.699,0.283,0.183,-1.342,0.976,1
0.181524,0.681,0.701,0.282,0.305,-1.22,0.793,1
0.1902,0.684,0.699,0.282,0.305,-1.22,0.854,1
0.197956,0.685,0.7,0.282,0.183,-1.098,0.732,1
0.205117,0.684,0.701,0.275,0.183,-1.037,0.61,1
0.212807,0.685,0.698,0.278,0.427,-1.037,0.854,1
0.220588,0.676,0.697,0.275,0.305,-1.098,1.037,1
0.229463,0.673,0.7,0.273,0.305,-1.342,0.61,1
0.236402,0.672,0.701,0.28,0.122,-1.098,0.793,1
0.243873,0.676,0.699,0.284,0.0,-0.976,0.915,1
0.252941,0.68,0.696,0.286,0.061,-0.671,0.793,1
0.260572,0.686,0.702,0.287,0.244,-0.854,0.854,1
0.268036,0.684,0.703,0.285,0.732,-0.671,0.976,1
0.275516,0.685,0.704,0.281,0.915,-0.793,0.915,1
0.28298,0.686,0.7,0.28,1.159,-0.671,0.976,1
0.291899,0.684,0.701,0.274,0.671,-0.488,0.854,1
0.299384,0.681,0.703,0.276,0.061,-0.488,0.793,1
0.306596,0.684,0.708,0.27,0.366,-0.61,0.793,1
0.315096,0.687,0.71,0.271,0.244,-0.732,0.732,1
0.322668,0.68,0.711,0.271,0.0,-0.61,0.732,1
0.330311,0.685,0.71,0.268,-0.366,-0.244,0.366,1
0.338573,0.682,0.712,0.265,-0.488,-0.488,0.244,1
0.346398,0.686,0.711,0.269,-0.366,-0.366,0.488,1
0.35467,0.679,0.711,0.264,-0.366,-0.61,0.366,1
0.361175,0.679,0.712,0.262,0.0,-0.549,0.366,1
0.370282,0.677,0.715,0.266,0.122,-0.488,0.305,1
0.377142,0.675,0.712,0.263,0.305,-0.61,0.244,1
0.385966,0.673,0.708,0.262,0.061,-0.671,0.122,1
0.39393,0.68,0.709,0.261,-0.061,-0.793,0.183,1
0.401049,0.673,0.711,0.26,-0.061,-0.793,0.183,1
0.410514,0.679,0.709,0.259,0.061,-0.854,0.183,1
0.418321,0.674,0.708,0.26,-0.122,-0.976,0.244,1
0.426389,0.678,0.707,0.258,-0.122,-0.915,0.122,1
0.433602,0.679,0.708,0.256,0.183,-1.159,0.183,1
0.440585,0.682,0.704,0.256,0.366,-1.037,-0.061,1
0.448794,0.681,0.703,0.262,0.366,-1.281,-0.122,1
0.456279,0.68,0.702,0.264,0.366,-1.464,0.122,1
0.465416,0.681,0.701,0.268,0.549,-1.647,0.061,1
0.473035,0.68,0.701,0.273,0.427,-1.586,-0.122,1
0.480802,0.684,0.702,0.276,0.122,-1.586,-0.122,1
0.489108,0.682,0.707,0.278,0.0,-1.77,0.0,1
0.496208,0.686,0.705,0.277,-0.122,-1.281,-0.061,1
0.505109,0.684,0.707,0.278,0.0,-1.403,-0.183,1
0.512026,0.687,0.702,0.279,0.183,-1.159,-0.122,1
0.520575,0.687,0.702,0.279,0.0,-1.159,-0.488,1
0.528043,0.687,0.706,0.277,0.0,-1.22,-0.488,1
0.536978,0.687,0.707,0.278,-0.061,-1.159,-0.488,1
0.544718,0.685,0.705,0.279,0.244,-1.159,-0.427,1
0.551261,0.684,0.708,0.282,0.122,-1.22,-0.366,1
0.560316,0.678,0.708,0.283,0.183,-1.403,-0.427,1
0.567386,0.68,0.708,0.289,0.061,-1.098,-0.549,1
0.576372,0.68,0.706,0.288,-0.061,-0.793,-0.61,1
0.583393,0.677,0.706,0.29,-0.183,-0.915,-0.305,1
0.592543,0.68,0.711,0.287,-0.488,-0.671,-0.61,1
0.599501,0.677,0.703,0.291,-0.366,-0.549,-0.549,1
0.607164,0.678,0.707,0.29,-0.244,-0.427,-0.671,1
0.615132,0.674,0.706,0.289,-0.061,-0.427,-0.427,1
0.62233,0.679,0.701,0.289,-0.244,-0.183,-0.671,1
0.630979,0.679,0.699,0.287,-0.061,-0.366,-0.549,1
0.637727,0.677,0.703,0.29,0.305,-0.122,-0.854,1
0.645841,0.677,0.698,0.288,0.244,-0.061,-0.671,1
0.652634,0.68,0.696,0.29,-0.305,0.183,-0.671,1
0.661033,0.678,0.701,0.283,-0.305,0.183,-0.732,1
0.668384,0.674,0.697,0.28,-0.488,0.122,-0.549,1
0.677266,0.679,0.695,0.277,-0.305,0.061,-0.854,1
0.684663,0.683,0.692,0.282,-0.183,0.183,-0.671,1
0.69216,0.678,0.693,0.28,-0.122,0.244,-0.793,1
0.700411,0.681,0.688,0.284,0.0,0.183,-0.427,1
0.707743,0.678,0.692,0.281,0.061,0.244,-0.488,1
0.716344,0.678,0.687,0.28,0.061,0.122,-0.427,1
0.723416,0.678,0.691,0.281,0.0,0.427,-0.427,1
0.731371,0.672,0.69,0.274,-0.305,0.549,-0.427,1
0.740263,0.676,0.689,0.277,-0.183,0.366,-0.122,1
0.747324,0.675,0.688,0.275,-0.488,0.671,-0.183,1
0.755998,0.681,0.691,0.28,-0.366,0.427,-0.183,1
0.762935,0.679,0.688,0.273,-0.61,0.61,0.061,1
0.772064,0.678,0.691,0.279,-0.305,0.427,0.244,1
0.77897,0.677,0.692,0.28,-0.061,0.61,0.305,1
0.787467,0.682,0.691,0.279,-0.305,0.61,0.305,1
0.794749,0.684,0.693,0.283,-0.915,0.732,0.122,1
0.803011,0.686,0.697,0.286,-0.854,1.037,0.244,1
0.809818,0.687,0.701,0.282,-0.427,0.976,0.427,1
0.817251,0.686,0.704,0.278,-0.427,1.037,0.305,1
0.825868,0.683,0.704,0.279,-0.427,0.793,0.122,1
0.832327,0.685,0.706,0.28,-0.671,0.976,0.244,1
0.839905,0.685,0.712,0.274,-0.549,1.037,0.305,1
0.848316,0.683,0.713,0.276,-0.671,0.732,0.305,1
0.856379,0.688,0.715,0.274,-0.549,0.915,0.0,1
0.864505,0.686,0.714,0.27,-0.366,0.793,0.122,1
0.871671,0.684,0.713,0.27,-0.305,0.793,-0.061,1
0.879279,0.683,0.711,0.267,-0.061,0.976,-0.183,1
0.887946,0.68,0.711,0.265,0.305,0.854,-0.244,1
0.896125,0.676,0.71,0.266,0.427,0.732,-0.427,1
0.902912,0.672,0.713,0.262,0.0,0.671,-0.427,1
0.911925,0.675,0.716,0.26,-0.183,0.854,-0.61,1
0.919826,0.677,0.715,0.256,-0.549,0.915,-0.732,1
0.928712,0.679,0.719,0.257,-0.854,0.732,-0.793,1
0.935679,0.678,0.717,0.254,-1.098,0.305,-0.976,1
0.94452,0.679,0.713,0.249,-0.915,0.61,-0.915,1
0.951539,0.686,0.714,0.244,-0.854,0.305,-0.976,1
0.959383,0.679,0.712,0.245,-0.549,0.0,-1.098,1
0.966745,0.676,0.711,0.248,-0.427,0.0,-1.281,1
0.975589,0.685,0.707,0.244,-0.244,-0.488,-1.281,1
0.982901,0.683,0.708,0.245,0.427,-0.61,-1.281,1
0.991249,0.684,0.702,0.251,0.671,-0.61,-1.403,1
0.998364,0.681,0.703,0.25,1.037,-0.793,-1.403,1
1.005544,0.679,0.696,0.251,0.488,-0.671,-1.22,1
1.013826,0.677,0.694,0.25,0.183,-0.976,-1.281,1
1.022383,0.678,0.694,0.254,-0.122,-0.793,-1.342,1
1.030197,0.679,0.691,0.253,-0.183,-1.159,-1.159,1
1.037084,0.682,0.685,0.256,-0.366,-1.22,-1.098,1
1.045402,0.681,0.687,0.257,-0.549,-1.281,-0.915,1
1.052466,0.682,0.686,0.267,0.061,-1.342,-0.793,1
1.060224,0.686,0.687,0.27,0.305,-1.22,-0.61,1
1.068508,0.691,0.687,0.276,0.671,-1.342,-0.488,1
1.076745,0.688,0.689,0.276,0.793,-1.281,-0.366,1
1.084774,0.688,0.693,0.272,0.732,-1.22,-0.366,1
1.090903,0.688,0.7,0.267,0.793,-1.098,-0.366,1
1.098792,0.687,0.702,0.262,0.305,-1.098,-0.488,1
1.108073,0.686,0.701,0.26,0.244,-1.159,-0.549,1
1.114709,0.687,0.707,0.261,0.183,-1.037,-0.61,1
1.122739,0.686,0.706,0.262,0.0,-1.22,-0.671,1
1.132,0.686,0.707,0.26,-0.549,-1.403,-0.915,1
1.140643,0.684,0.707,0.262,-0.915,-1.159,-0.976,1
1.147854,0.683,0.702,0.265,-0.976,-1.403,-0.976,1
1.156088,0.682,0.704,0.268,-0.61,-1.22,-0.854,1
1.164408,0.679,0.701,0.267,-0.488,-1.281,-0.854,1
1.172708,0.68,0.701,0.27,-0.244,-1.464,-1.037,1
1.180175,0.679,0.697,0.266,-0.061,-1.281,-1.037,1
1.18826,0.679,0.697,0.268,-0.122,-1.525,-0.976,1
1.196408,0.67,0.695,0.271,-0.061,-1.281,-1.037,1
1.205392,0.673,0.694,0.263,-0.244,-1.708,-0.61,1
1.213163,0.676,0.69,0.265,-0.488,-1.525,-0.793,1
1.220542,0.673,0.689,0.267,-0.305,-1.708,-0.854,1
1.22897,0.672,0.686,0.266,-0.671,-1.403,-0.854,1
1.237966,0.674,0.686,0.263,-0.793,-1.892,-0.61,1
1.246598,0.68,0.685,0.259,-0.549,-1.831,-0.671,1
1.253412,0.678,0.683,0.26,-0.305,-1.953,-0.488,1
1.262054,0.682,0.682,0.261,-0.305,-1.953,-0.244,1
1.26933,0.681,0.682,0.264,-0.183,-2.197,-0.122,1
1.278081,0.677,0.679,0.266,-0.122,-2.319,-0.061,1
1.286884,0.678,0.677,0.273,-0.061,-2.38,0.122,1
1.293761,0.68,0.679,0.273,-0.183,-2.441,0.122,1
1.302951,0.684,0.68,0.274,-0.061,-2.38,0.305,1
1.310864,0.684,0.68,0.277,0.061,-2.319,0.61,1
1.318137,0.68,0.68,0.28,0.183,-2.319,0.427,1
1.326353,0.682,0.68,0.281,0.061,-2.258,0.671,1
1.334773,0.677,0.679,0.284,-0.244,-2.197,0.732,1
1.342633,0.68,0.684,0.285,-0.793,-1.831,0.854,1
1.351359,0.68,0.692,0.279,-0.854,-2.197,0.976,1
1.358043,0.675,0.693,0.284,-0.183,-2.197,1.098,1
1.366722,0.676,0.693,0.288,-0.305,-2.258,0.915,1
1.373629,0.677,0.69,0.291,-0.183,-1.892,0.915,1
1.381253,0.674,0.692,0.292,0.183,-1.77,0.976,1
1.389963,0.671,0.692,0.297,0.488,-2.014,0.976,1
1.397711,0.671,0.691,0.294,0.183,-1.831,0.976,1
1.405822,0.671,0.689,0.294,-0.244,-1.464,1.159,1
1.413664,0.672,0.689,0.289,-0.122,-1.037,1.22,1
1.421226,0.669,0.691,0.292,0.183,-1.342,1.586,1
1.430325,0.671,0.687,0.286,0.122,-1.22,1.342,1
1.43841,0.676,0.687,0.283,0.061,-0.976,1.464,1
1.44578,0.674,0.687,0.283,0.366,-1.037,1.586,1
1.455116,0.668,0.688,0.28,0.366,-1.037,1.647,1
1.46276,0.669,0.683,0.282,0.305,-0.793,1.708,1
1.470068,0.672,0.687,0.281,0.0,-1.037,1.831,1
1.477834,0.673,0.685,0.281,-0.305,-0.854,1.892,1
1.486902,0.671,0.689,0.279,-0.244,-1.098,2.075,1
1.493991,0.678,0.69,0.285,0.183,-0.915,2.136,1
1.501612,0.676,0.688,0.285,0.427,-0.915,2.197,1
1.509895,0.675,0.694,0.283,0.732,-0.976,2.319,1
1.5169,0.682,0.696,0.284,0.915,-0.915,2.319,1
1.525555,0.683,0.692,0.283,0.976,-0.732,2.502,1
1.532452,0.684,0.695,0.283,1.037,-0.854,2.441,1
1.540453,0.681,0.695,0.287,0.915,-0.854,2.502,1
1.549193,0.68,0.694,0.286,0.915,-0.61,2.441,1
1.556387,0.676,0.7,0.282,0.183,-0.488,2.563,1
1.563237,0.676,0.701,0.282,0.0,-0.427,2.502,1
1.572144,0.678,0.707,0.281,-0.61,-0.366,2.746,1
1.579066,0.676,0.712,0.28,-0.732,-0.427,2.38,1
1.587679,0.673,0.716,0.277,-0.549,-0.488,2.563,1
1.595686,0.674,0.722,0.272,0.061,-0.488,2.38,1
1.602374,0.681,0.719,0.271,0.732,-0.732,2.197,1
1.6106,0.677,0.722,0.272,0.915,-0.976,2.136,1
1.618666,0.678,0.723,0.275,0.732,-0.976,2.258,1
1.625286,0.677,0.726,0.273,0.671,-1.159,1.953,1
1.631951,0.676,0.723,0.276,0.366,-0.854,1.892,1
1.639632,0.672,0.725,0.279,0.122,-1.098,1.831,1
1.647867,0.674,0.725,0.274,-0.671,-0.793,1.831,1
1.65516,0.672,0.721,0.279,-0.976,-0.793,1.647,1
1.663867,0.67,0.723,0.276,-1.342,-0.671,1.464,1
1.670864,0.673,0.721,0.278,-1.342,-0.488,1.464,1
1.679518,0.676,0.722,0.276,-1.281,-0.549,1.22,1
1.687014,0.673,0.715,0.281,-0.915,-0.854,1.037,1
1.695964,0.673,0.721,0.28,-0.61,-0.61,1.22,1
1.703033,0.669,0.72,0.279,-0.549,-0.61,1.037,1
1.710806,0.671,0.716,0.277,-1.037,-0.549,1.159,1
1.719843,0.671,0.72,0.274,-1.342,-0.488,1.159,1
1.727981,0.671,0.724,0.268,-1.77,-0.61,0.915,1
1.734506,0.671,0.727,0.264,-1.892,-0.427,0.915,1
1.743609,0.674,0.731,0.26,-2.075,-0.732,0.732,1
1.750979,0.677,0.73,0.252,-2.441,-0.915,0.671,1
1.758789,0.677,0.732,0.254,-2.014,-1.037,0.549,1
1.768408,0.675,0.732,0.249,-1.647,-1.647,0.366,1
1.775314,0.672,0.727,0.248,-1.098,-1.586,-0.061,1
1.783965,0.676,0.725,0.244,-1.281,-1.892,-0.061,1
1.791879,0.667,0.724,0.247,-1.342,-2.319,-0.061,1
1.799327,0.663,0.721,0.245,-1.586,-2.38,-0.122,1
1.808401,0.664,0.711,0.248,-1.647,-2.624,-0.183,1
1.81593,0.663,0.707,0.251,-2.197,-2.685,-0.427,1
1.825388,0.662,0.703,0.25,-2.563,-2.99,0.0,1
1.832127,0.661,0.703,0.259,-3.051,-2.868,0.0,1
1.839834,0.666,0.696,0.259,-3.906,-2.685,0.183,1
1.847167,0.668,0.701,0.261,-4.821,-2.685,0.244,1
1.855653,0.675,0.698,0.264,-6.042,-2.563,0.366,1
1.862668,0.678,0.701,0.269,-6.469,-2.441,0.61,1
1.870675,0.681,0.695,0.267,-6.591,-2.319,0.671,1
1.879682,0.676,0.694,0.269,-7.69,-1.892,0.854,1
1.886365,0.68,0.69,0.268,-9.033,-1.647,1.098,1
1.894329,0.68,0.692,0.269,-10.131,-1.281,1.037,1
1.902433,0.68,0.693,0.259,-11.474,-1.037,1.464,1
1.910993,0.684,0.693,0.245,-12.695,-0.61,1.342,1
1.917988,0.679,0.697,0.235,-14.465,-0.366,1.342,1
1.925999,0.683,0.705,0.22,-16.296,-0.061,1.464,1
1.93351,0.689,0.707,0.197,-18.371,0.0,1.464,1
1.942848,0.692,0.713,0.177,-20.996,-0.305,1.525,1
1.949933,0.691,0.725,0.156,-22.949,-0.488,1.525,1
1.958981,0.695,0.741,0.134,-23.864,-1.342,1.525,1
1.965966,0.697,0.754,0.11,-24.475,-2.197,1.403,1
1.974988,0.696,0.763,0.086,-24.78,-3.479,0.976,1
1.981945,0.699,0.776,0.073,-25.329,-4.943,0.183,1
1.989386,0.703,0.785,0.058,-24.536,-6.53,0.061,1
1.998569,0.703,0.791,0.048,-23.498,-8.605,-0.61,1
2.005546,0.697,0.796,0.047,-21.789,-10.375,-1.342,1
2.014958,0.683,0.793,0.038,-19.958,-12.023,-1.77,1
2.021945,0.676,0.785,0.03,-18.188,-14.343,-2.807,1
2.031242,0.66,0.779,0.028,-18.066,-16.113,-3.356,1
2.038697,0.651,0.77,0.039,-18.188,-18.188,-3.906,1
2.047966,0.635,0.761,0.056,-17.089,-20.324,-4.516,1
2.055341,0.625,0.751,0.071,-15.319,-21.606,-4.76,1
2.063229,0.617,0.738,0.083,-14.648,-23.376,-5.187,1
2.072139,0.602,0.73,0.096,-14.16,-24.719,-5.432,1
2.079667,0.6,0.705,0.13,-13.061,-25.512,-5.493,1
2.087445,0.592,0.689,0.146,-13.305,-26.306,-5.493,1
2.095475,0.586,0.671,0.154,-15.869,-26.672,-5.371,1
2.104584,0.58,0.659,0.167,-20.263,-26.977,-4.882,1
2.112047,0.575,0.664,0.172,-22.644,-27.587,-4.638,1
2.121329,0.577,0.68,0.196,-22.094,-28.503,-4.089,1
2.128991,0.591,0.689,0.208,-16.113,-30.09,-3.356,1
2.136822,0.598,0.699,0.231,-9.521,-31.799,-3.173,1
2.144879,0.594,0.709,0.252,-4.455,-33.264,-2.319,1
2.152152,0.595,0.73,0.287,-2.685,-34.79,-2.136,1
2.161305,0.62,0.744,0.345,-0.366,-36.254,-2.197,1
2.168892,0.614,0.757,0.416,5.859,-37.536,-2.929,1
2.175814,0.641,0.749,0.494,11.596,-38.818,-3.417,1
2.184537,0.661,0.742,0.588,17.7,-39.001,-3.662,1
2.191508,0.653,0.723,0.702,24.23,-38.208,-4.516,1
2.199975,0.639,0.689,0.819,30.761,-37.17,-4.821,1
2.207894,0.613,0.653,0.977,36.376,-35.156,-4.821,1
2.214637,0.59,0.61,1.123,41.87,-31.249,-4.943,1
2.223741,0.574,0.555,1.262,44.616,-26.428,-4.333,1
2.2314,0.558,0.488,1.382,44.86,-20.568,-3.662,1
2.239225,0.564,0.422,1.497,42.846,-13.549,-2.258,1
2.246507,0.577,0.376,1.588,41.503,-5.31,-0.244,1
2.254152,0.594,0.337,1.684,44.433,1.586,1.647,1
2.261792,0.574,0.29,1.79,50.72,8.911,4.455,1
2.269844,0.568,0.25,1.908,60.607,16.052,7.446,1
2.277362,0.57,0.2,2.039,71.105,23.803,10.925,1
2.28481,0.524,0.156,2.196,80.749,32.836,15.136,1
2.293553,0.483,0.104,2.35,86.853,43.762,19.897,1
2.300983,0.461,0.044,2.493,90.515,55.725,25.695,1
2.307446,0.412,0.02,2.624,88.378,69.519,32.348,1
2.315135,0.328,0.029,2.742,82.458,83.984,39.306,1
2.323961,0.25,0.067,2.848,76.538,99.67,46.142,1
2.33129,0.168,0.119,2.907,73.791,115.783,52.551,1
2.339585,0.09,0.178,2.918,73.303,131.347,58.349,1
2.346639,0.012,0.245,2.898,77.941,149.292,64.88,1
2.355006,-0.079,0.315,2.86,86.486,163.696,70.007,1
2.363077,-0.192,0.383,2.823,95.336,177.368,75.073,1
2.369532,-0.331,0.437,2.767,101.135,191.589,79.956,1
2.377214,-0.485,0.501,2.698,102.355,205.261,84.411,1
2.385756,-0.607,0.542,2.646,101.318,219.116,88.745,1
2.39241,-0.75,0.588,2.583,100.524,232.055,92.468,1
2.400647,-0.901,0.655,2.525,102.416,245.239,97.412,1
2.407057,-1.092,0.763,2.42,106.567,257.202,101.379,1
2.416362,-1.265,0.897,2.35,113.891,267.272,104.858,1
2.42332,-1.398,1.048,2.288,133.483,278.625,108.337,1
2.432626,-1.499,1.134,2.231,150.573,286.682,111.572,1
2.438636,-1.585,1.192,2.195,156.494,297.729,116.149,1
2.447471,-1.791,1.34,2.134,152.038,308.776,118.835,1
2.455914,-1.879,1.486,2.065,143.432,319.335,121.337,1
2.463124,-1.99,1.707,1.949,141.052,332.214,122.741,1
2.470338,-2.069,1.891,1.845,142.578,341.491,122.924,1
2.479655,-2.195,2.075,1.684,142.211,351.013,122.192,1
2.48667,-2.291,2.308,1.424,138.977,360.534,119.995,1
2.494639,-2.362,2.514,1.152,140.625,366.943,116.21,1
2.503308,-2.403,2.667,0.836,140.991,371.032,111.572,1
2.510315,-2.457,2.789,0.481,128.112,374.633,104.614,1
2.518411,-2.458,2.897,0.062,106.628,376.647,95.275,1
2.525713,-2.405,2.936,-0.25,92.041,375.488,84.228,1
2.533149,-2.317,2.936,-0.529,84.96,372.192,71.166,1
2.540824,-2.224,2.935,-0.848,79.101,367.187,59.631,1
2.548381,-2.093,2.949,-1.138,76.11,359.008,48.156,1
2.557322,-1.95,2.923,-1.419,73.547,350.28,36.499,1
2.565429,-1.779,2.869,-1.673,64.758,339.599,25.329,1
2.573245,-1.62,2.809,-1.902,51.513,326.232,12.573,1
2.581281,-1.459,2.77,-2.05,45.349,313.354,1.586,1
2.588816,-1.327,2.717,-2.167,42.724,299.255,-9.338,1
2.597808,-1.163,2.582,-2.271,37.109,282.592,-21.85,1
2.604687,-0.994,2.453,-2.28,35.034,267.028,-31.616,1
2.61456,-0.816,2.25,-2.207,40.039,251.953,-39.916,1
2.621506,-0.728,2.075,-2.118,46.203,235.595,-47.363,1
2.629216,-0.628,1.898,-2.052,49.072,223.754,-52.185,1
2.63828,-0.537,1.745,-2.063,36.499,210.632,-56.64,1
2.646718,-0.467,1.653,-2.042,31.127,197.937,-60.18,1
2.653501,-0.39,1.526,-2.0,35.888,185.18,-62.622,1
2.662898,-0.339,1.379,-1.959,38.391,171.02,-64.636,1
2.669942,-0.263,1.211,-1.909,32.958,160.583,-65.185,1
2.678792,-0.192,1.105,-1.855,23.132,148.376,-65.185,1
2.686396,-0.142,1.02,-1.775,19.287,138.183,-64.697,1
2.694837,-0.083,0.912,-1.669,18.615,126.525,-63.72,1
2.702362,-0.042,0.82,-1.576,18.127,118.041,-62.316,1
2.711512,0.003,0.716,-1.475,14.892,110.473,-61.035,1
2.718909,0.033,0.653,-1.422,12.634,102.111,-58.776,1
2.727352,0.047,0.593,-1.391,10.314,95.458,-56.823,1
2.734299,0.058,0.557,-1.35,7.69,89.05,-54.992,1
2.741695,0.085,0.52,-1.309,8.117,81.237,-52.368,1
2.749489,0.109,0.475,-1.264,10.009,75.378,-49.987,1
2.758855,0.141,0.439,-1.222,11.84,69.58,-47.119,1
2.765163,0.181,0.408,-1.187,11.413,64.331,-44.006,1
2.774215,0.217,0.384,-1.138,9.521,59.082,-40.466,1
2.782374,0.243,0.38,-1.082,7.019,54.138,-36.621,1
2.790158,0.268,0.379,-1.038,4.76,49.865,-33.569,1
2.797687,0.293,0.383,-1.0,1.77,45.715,-29.968,1
2.806901,0.314,0.386,-0.987,-0.61,41.931,-27.282,1
2.81419,0.331,0.401,-0.964,-2.685,38.208,-24.047,1
2.821997,0.347,0.416,-0.95,-3.54,34.362,-21.545,1
2.830677,0.364,0.442,-0.936,-3.662,30.456,-19.104,1
2.838167,0.379,0.46,-0.913,-4.76,26.062,-16.54,1
2.846391,0.4,0.477,-0.883,-5.432,22.216,-14.892,1
2.855281,0.416,0.497,-0.857,-5.615,18.981,-13.061,1
2.862311,0.443,0.524,-0.825,-5.981,15.563,-11.23,1
2.870315,0.466,0.539,-0.805,-6.103,11.84,-9.521,1
2.879258,0.479,0.561,-0.791,-7.08,8.728,-8.239,1
2.886306,0.485,0.576,-0.761,-8.178,5.798,-7.507,1
2.894633,0.484,0.595,-0.734,-8.117,2.746,-5.981,1
2.903314,0.49,0.607,-0.71,-7.385,0.427,-4.882,1
2.910931,0.495,0.621,-0.687,-6.835,-1.77,-4.028,1
2.918788,0.504,0.631,-0.667,-6.347,-4.211,-3.112,1
2.927236,0.513,0.645,-0.639,-6.164,-6.408,-2.197,1
2.935922,0.519,0.652,-0.605,-5.31,-8.361,-1.464,1
2.942835,0.526,0.662,-0.574,-4.15,-9.887,-0.793,1
2.95219,0.528,0.669,-0.543,-2.502,-11.474,-0.244,1
2.96018,0.545,0.68,-0.518,-1.098,-13.0,0.061,1
2.968026,0.562,0.688,-0.49,-0.061,-14.343,0.732,1
2.976644,0.571,0.695,-0.466,0.122,-15.319,0.976,1
2.984086,0.585,0.702,-0.441,0.122,-16.479,1.342,1
2.993033,0.594,0.708,-0.419,1.098,-17.272,1.159,1
3.000061,0.589,0.714,-0.394,1.586,-17.822,1.098,1
3.008486,0.593,0.712,-0.374,1.586,-18.188,1.159,1
3.015918,0.597,0.71,-0.347,1.342,-18.31,1.159,1
3.024906,0.598,0.706,-0.32,0.671,-18.554,1.586,1
3.032232,0.603,0.708,-0.294,-0.793,-18.188,1.647,1
3.040867,0.604,0.715,-0.278,-1.464,-17.822,2.075,1
3.048162,0.6,0.728,-0.256,0.061,-17.333,1.892,1
3.057015,0.605,0.736,-0.241,3.173,-17.211,2.075,1
3.064249,0.606,0.735,-0.231,6.835,-16.662,2.075,1
3.072669,0.606,0.733,-0.23,7.568,-15.991,1.77,1
3.080405,0.6,0.738,-0.226,7.324,-15.686,1.892,1
3.088467,0.6,0.746,-0.21,6.469,-14.953,1.77,1
3.096087,0.6,0.753,-0.201,5.737,-14.099,1.586,1
3.104962,0.598,0.757,-0.182,5.371,-13.061,1.708,1
3.112261,0.599,0.753,-0.171,5.493,-12.023,1.464,1
3.12151,0.598,0.759,-0.161,4.394,-10.498,1.22,1
3.128337,0.596,0.761,-0.159,2.624,-8.911,1.403,1
3.136193,0.587,0.766,-0.162,1.342,-7.507,1.159,1
3.14534,0.586,0.773,-0.173,0.305,-5.798,0.671,1
3.153432,0.582,0.776,-0.188,-0.549,-4.455,0.427,1
3.161266,0.58,0.78,-0.208,-1.281,-3.112,0.183,1
3.170263,0.588,0.791,-0.225,-0.488,-2.38,-0.488,1
3.176794,0.595,0.798,-0.239,1.647,-2.014,-0.671,1
3.185848,0.605,0.797,-0.245,3.601,-1.342,-0.976,1
3.192355,0.609,0.798,-0.257,1.892,-0.366,-1.403,1
3.200935,0.617,0.791,-0.263,-2.746,0.671,-2.014,1
3.20872,0.62,0.807,-0.274,-8.178,1.953,-2.502,1
3.215989,0.62,0.808,-0.279,-10.559,2.746,-2.99,1
3.223663,0.614,0.808,-0.291,-10.925,3.112,-3.295,1
3.231445,0.612,0.805,-0.302,-9.887,3.479,-3.723,1
3.239357,0.607,0.799,-0.309,-7.568,3.601,-4.455,1
3.245829,0.603,0.791,-0.316,-6.103,3.662,-4.638,1
3.254896,0.601,0.786,-0.325,-5.249,3.601,-5.187,1
3.262376,0.604,0.777,-0.333,-5.004,3.723,-5.493,1
3.270007,0.605,0.767,-0.337,-4.394,3.479,-5.859,1
3.278104,0.612,0.752,-0.34,-3.356,3.356,-6.042,1
3.286742,0.62,0.737,-0.347,-2.197,2.929,-5.92,1
3.294024,0.63,0.725,-0.349,-1.77,2.929,-6.225,1
3.302999,0.628,0.714,-0.351,-1.77,2.746,-5.798,1
3.310297,0.63,0.708,-0.353,-2.258,2.624,-5.31,1
3.319473,0.628,0.698,-0.349,-2.99,2.563,-4.882,1
3.326783,0.623,0.685,-0.348,-4.455,2.624,-4.15,1
3.334353,0.617,0.676,-0.352,-6.469,2.807,-3.906,1
3.342885,0.613,0.673,-0.353,-7.568,2.746,-3.356,1
3.350437,0.612,0.67,-0.349,-6.958,2.441,-2.624,1
3.359345,0.611,0.671,-0.349,-5.859,2.624,-1.953,1
3.366889,0.605,0.666,-0.343,-4.455,2.136,-1.037,1
3.375544,0.603,0.665,-0.342,-3.234,2.136,-0.976,1
3.38362,0.601,0.664,-0.341,-2.075,2.014,-0.488,1
3.391643,0.602,0.664,-0.345,-1.831,1.647,0.0,1
3.39948,0.603,0.662,-0.347,-1.77,1.464,0.366,1
3.407376,0.604,0.667,-0.355,-1.159,1.098,1.098,1
3.414564,0.601,0.671,-0.356,-0.61,0.61,1.525,1
3.422973,0.6,0.676,-0.359,0.183,0.0,2.014,1
3.43056,0.602,0.676,-0.363,1.037,-0.427,2.075,1
3.439574,0.606,0.683,-0.366,0.732,-0.732,2.38,1
3.446445,0.601,0.682,-0.367,-0.793,-1.281,2.624,1
3.455521,0.601,0.692,-0.36,-1.647,-1.647,2.746,1
3.462872,0.603,0.691,-0.35,-1.098,-2.014,2.929,1
3.471753,0.597,0.696,-0.34,0.366,-2.441,2.99,1
3.478715,0.597,0.693,-0.342,1.586,-2.502,3.112,1
3.486427,0.592,0.699,-0.33,3.662,-2.868,3.112,1
3.494103,0.597,0.698,-0.325,4.821,-2.99,3.173,1
3.503057,0.593,0.698,-0.326,4.699,-3.112,3.54,1
3.509542,0.596,0.71,-0.33,4.272,-2.99,3.417,1
3.518303,0.593,0.717,-0.326,3.906,-3.051,3.54,1
3.526366,0.598,0.72,-0.326,3.967,-3.417,3.54,1
3.533247,0.598,0.723,-0.327,3.845,-3.234,3.479,1
3.54091,0.6,0.723,-0.317,3.723,-3.173,3.295,1
3.549446,0.608,0.723,-0.308,3.845,-2.99,3.54,1
3.557422,0.614,0.723,-0.303,4.638,-3.234,3.417,1
3.56536,0.62,0.72,-0.301,4.943,-2.99,3.479,1
3.573437,0.622,0.727,-0.297,3.967,-2.868,3.784,1
3.580801,0.617,0.731,-0.299,2.929,-2.563,3.845,1
3.590318,0.611,0.74,-0.297,1.77,-2.197,3.723,1
3.598236,0.617,0.744,-0.294,1.708,-1.892,3.906,1
3.60525,0.616,0.75,-0.293,2.807,-2.014,3.784,1
3.614519,0.622,0.755,-0.288,3.662,-1.831,3.845,1
3.621358,0.622,0.754,-0.287,4.577,-1.464,3.662,1
3.628818,0.623,0.759,-0.285,4.699,-1.403,3.479,1
3.637916,0.625,0.757,-0.283,4.577,-1.098,3.54,1
3.645035,0.621,0.761,-0.273,4.272,-0.488,3.234,1
3.653965,0.621,0.763,-0.275,4.15,-0.305,3.234,1
3.661136,0.617,0.762,-0.275,3.906,0.0,2.868,1
3.66923,0.615,0.766,-0.272,3.356,0.549,2.868,1
3.6765,0.613,0.767,-0.276,2.197,1.22,2.746,1
3.685283,0.612,0.768,-0.273,1.403,1.525,2.38,1
3.691935,0.611,0.773,-0.273,1.281,2.075,2.136,1
3.700115,0.613,0.773,-0.274,1.281,2.319,2.014,1
3.707738,0.614,0.775,-0.275,1.708,2.746,2.014,1
3.715218,0.61,0.777,-0.28,1.647,3.112,1.525,1
3.722166,0.61,0.782,-0.283,1.281,3.417,1.342,1
3.729786,0.61,0.785,-0.281,1.22,3.784,0.976,1
3.737299,0.603,0.778,-0.284,1.403,3.967,0.61,1
3.745779,0.601,0.778,-0.287,1.22,4.089,0.427,1
3.753034,0.598,0.776,-0.29,0.976,4.455,0.427,1
3.760703,0.6,0.773,-0.296,1.098,4.638,0.305,1
3.768402,0.604,0.77,-0.303,1.892,4.577,-0.122,1
3.77676,0.606,0.776,-0.303,1.892,4.943,-0.305,1
3.784403,0.606,0.775,-0.31,1.22,4.821,-0.549,1
3.792209,0.605,0.773,-0.312,0.244,4.699,-0.732,1
3.80161,0.602,0.773,-0.319,-0.732,5.004,-1.281,1
3.808841,0.607,0.769,-0.322,-0.915,4.882,-1.586,1
3.817945,0.6,0.762,-0.327,-0.488,4.699,-1.892,1
3.825929,0.601,0.76,-0.33,0.183,4.638,-1.831,1
3.83381,0.598,0.753,-0.331,0.793,4.455,-2.197,1
3.842127,0.596,0.751,-0.335,1.77,4.394,-2.014,1
3.849103,0.597,0.752,-0.332,2.319,4.333,-1.953,1
3.85823,0.597,0.746,-0.336,2.868,4.028,-1.892,1
3.864928,0.596,0.743,-0.335,2.38,3.906,-2.258,1
3.872638,0.596,0.743,-0.34,1.708,3.845,-2.563,1
3.881923,0.601,0.746,-0.344,1.525,3.662,-2.502,1
3.888946,0.604,0.743,-0.343,2.197,3.112,-2.807,1
3.897256,0.603,0.742,-0.342,2.563,2.624,-2.746,1
3.90536,0.603,0.743,-0.345,3.356,2.502,-2.502,1
3.912692,0.603,0.744,-0.344,4.516,1.892,-2.441,1
3.921494,0.604,0.736,-0.351,5.249,1.464,-2.258,1
3.927879,0.599,0.737,-0.349,4.028,1.77,-2.075,1
3.935522,0.601,0.733,-0.345,2.929,1.22,-1.77,1
3.945266,0.607,0.736,-0.353,2.319,1.281,-1.586,1
3.95261,0.606,0.737,-0.347,3.173,1.098,-1.525,1
3.960758,0.602,0.735,-0.347,4.211,0.793,-1.525,1
3.968593,0.6,0.734,-0.345,4.15,0.549,-1.464,1
3.975776,0.593,0.74,-0.344,3.295,0.488,-1.403,1
3.984355,0.591,0.743,-0.34,2.624,0.488,-1.403,1
3.992523,0.585,0.745,-0.335,2.563,0.305,-1.342,1
3.998868,0.59,0.74,-0.331,2.685,0.549,-1.403,1
4.006683,0.587,0.742,-0.33,2.197,0.427,-1.342,1
4.015314,0.591,0.739,-0.331,1.77,0.671,-1.342,1
4.023409,0.591,0.739,-0.332,1.831,0.793,-1.342,1
4.031046,0.592,0.735,-0.334,1.77,0.793,-1.403,1
4.038645,0.594,0.739,-0.337,1.586,0.61,-1.586,1
4.047616,0.591,0.737,-0.344,1.464,0.122,-1.586,1
4.05541,0.585,0.739,-0.34,1.159,0.0,-1.342,1
4.062831,0.584,0.733,-0.344,0.854,0.183,-1.464,1
4.070425,0.583,0.733,-0.339,0.183,0.305,-1.22,1
4.078241,0.585,0.736,-0.343,0.122,0.122,-1.159,1
4.087406,0.585,0.736,-0.346,0.122,0.061,-1.281,1
4.094622,0.589,0.743,-0.346,0.427,-0.061,-1.464,1
4.102314,0.591,0.744,-0.343,0.732,-0.122,-1.342,1
4.109931,0.597,0.742,-0.351,1.281,-0.671,-1.403,1
4.119224,0.602,0.737,-0.349,0.061,-0.854,-1.525,1
4.126504,0.599,0.74,-0.351,-1.159,-0.976,-1.77,1
4.135042,0.599,0.736,-0.352,-2.197,-1.281,-1.708,1
4.144087,0.599,0.734,-0.346,-1.892,-1.281,-1.77,1
4.150769,0.6,0.735,-0.346,-0.366,-1.77,-1.464,1
4.159503,0.599,0.732,-0.344,0.854,-2.014,-1.281,1
4.167983,0.599,0.733,-0.338,1.708,-2.136,-1.159,1
4.17496,0.599,0.727,-0.34,0.61,-2.136,-0.549,1
4.184361,0.598,0.726,-0.337,-0.732,-2.258,-0.427,1
4.19167,0.6,0.729,-0.336,-2.075,-1.953,0.061,1
4.200737,0.604,0.73,-0.329,-2.075,-2.197,0.122,1
4.208044,0.594,0.735,-0.327,-1.586,-2.075,0.366,1
4.217254,0.595,0.739,-0.328,-1.403,-2.319,0.671,1
4.224201,0.598,0.735,-0.33,-1.586,-2.319,0.61,1
4.232864,0.597,0.738,-0.329,-1.342,-2.502,0.61,1
4.239472,0.594,0.746,-0.326,-1.037,-2.441,0.549,1
4.248401,0.592,0.747,-0.322,-0.732,-2.441,0.305,1
4.255275,0.59,0.743,-0.321,-0.488,-2.563,0.061,1
4.263174,0.593,0.743,-0.318,0.183,-2.502,0.244,1
4.271614,0.594,0.747,-0.312,0.915,-2.563,-0.122,1
4.281056,0.596,0.742,-0.31,2.319,-2.746,-0.305,1
4.288576,0.594,0.744,-0.307,3.356,-2.807,-0.305,1
4.295959,0.593,0.744,-0.306,3.662,-2.685,-0.427,1
4.305389,0.593,0.744,-0.304,2.99,-2.441,-0.488,1
4.313997,0.597,0.746,-0.3,1.77,-2.38,-0.732,1
4.319872,0.597,0.746,-0.295,1.525,-2.197,-0.854,1
4.327657,0.599,0.749,-0.294,1.586,-2.319,-0.549,1
4.336605,0.6,0.746,-0.289,1.403,-2.258,-0.854,1
4.345296,0.607,0.746,-0.282,0.549,-1.953,-0.976,1
4.352608,0.615,0.752,-0.273,0.0,-1.77,-0.976,1
4.362429,0.609,0.752,-0.268,0.244,-1.464,-1.22,1
4.370484,0.609,0.76,-0.263,2.197,-1.281,-1.098,1
4.37739,0.607,0.758,-0.266,4.028,-1.22,-1.098,1
4.386024,0.604,0.755,-0.264,5.554,-0.793,-1.342,1
4.393653,0.607,0.753,-0.267,6.042,-0.671,-1.281,1
4.403204,0.606,0.745,-0.265,5.187,0.061,-1.525,1
4.410419,0.613,0.745,-0.263,3.967,0.427,-1.403,1
4.417659,0.62,0.747,-0.26,2.441,0.793,-1.586,1
4.425279,0.628,0.743,-0.26,0.488,1.281,-1.586,1
4.433887,0.626,0.751,-0.254,-0.976,1.77,-1.647,1
4.441137,0.628,0.761,-0.248,-1.037,2.319,-1.831,1
4.44891,0.623,0.771,-0.25,-0.183,2.868,-1.953,1
4.456229,0.623,0.775,-0.256,0.122,3.417,-2.197,1
4.464376,0.622,0.779,-0.256,-0.183,3.906,-2.441,1
4.471935,0.624,0.783,-0.265,-0.732,4.516,-2.441,1
4.480611,0.635,0.794,-0.284,-1.77,4.882,-3.112,1
4.487832,0.641,0.807,-0.291,-1.831,4.943,-3.295,1
4.498273,0.637,0.807,-0.294,-1.831,4.943,-3.662,1
4.50397,0.64,0.812,-0.3,-2.563,4.882,-4.333,1
4.512604,0.642,0.816,-0.315,-4.882,5.065,-4.943,1
4.520529,0.642,0.83,-0.33,-7.629,4.882,-5.737,1
4.528916,0.639,0.841,-0.344,-8.117,4.699,-6.408,1
4.536464,0.639,0.847,-0.354,-6.591,4.089,-7.324,1
4.543638,0.642,0.848,-0.353,-2.868,3.479,-8.056,1
4.55266,0.638,0.845,-0.351,0.305,2.685,-9.033,1
4.560532,0.636,0.831,-0.35,2.014,2.197,-9.765,1
4.567896,0.635,0.824,-0.346,2.685,2.136,-10.681,1
4.57569,0.632,0.821,-0.345,3.662,1.708,-11.291,1
4.584259,0.635,0.805,-0.354,4.333,1.403,-12.207,1
4.592046,0.633,0.803,-0.365,4.516,1.464,-13.0,1
4.599552,0.625,0.805,-0.373,4.028,1.22,-13.916,1
4.608422,0.62,0.802,-0.381,4.272,0.793,-14.648,1
4.615208,0.614,0.798,-0.387,5.187,0.122,-15.319,1
4.624358,0.614,0.781,-0.382,6.286,-0.427,-15.991,1
4.631269,0.621,0.77,-0.385,7.263,-1.159,-16.601,1
4.640369,0.62,0.754,-0.375,7.141,-1.708,-16.784,1
4.647522,0.624,0.743,-0.368,6.774,-2.197,-17.15,1
4.656107,0.627,0.733,-0.362,6.53,-2.685,-17.272,1
4.665105,0.63,0.719,-0.354,6.835,-3.417,-17.395,1
4.672422,0.632,0.714,-0.35,7.202,-3.906,-17.517,1
4.680997,0.633,0.691,-0.346,7.202,-4.272,-17.456,1
4.688168,0.631,0.677,-0.33,5.92,-4.577,-16.967,1
4.695201,0.622,0.664,-0.324,4.882,-4.272,-16.723,1
4.704083,0.625,0.653,-0.318,3.784,-4.089,-16.052,1
4.711116,0.621,0.645,-0.315,2.807,-3.906,-15.441,1
4.720084,0.62,0.629,-0.312,2.136,-3.784,-14.709,1
4.72683,0.629,0.618,-0.308,2.502,-3.662,-13.549,1
4.735386,0.631,0.608,-0.3,3.295,-3.173,-13.122,1
4.743229,0.64,0.598,-0.294,3.479,-3.356,-12.023,1
4.752318,0.645,0.582,-0.289,2.746,-2.746,-11.413,1
4.759751,0.645,0.579,-0.279,2.197,-2.441,-10.314,1
4.766852,0.646,0.575,-0.276,2.319,-1.953,-9.704,1
4.774872,0.646,0.577,-0.275,3.112,-1.708,-8.483,1
4.782829,0.654,0.579,-0.266,3.723,-1.22,-7.08,1
4.790427,0.657,0.579,-0.261,3.662,-0.61,-6.347,1
4.79777,0.664,0.584,-0.253,3.173,0.0,-5.493,1
4.806156,0.67,0.585,-0.249,2.014,0.488,-4.455,1
4.813162,0.672,0.593,-0.239,0.854,1.098,-3.662,1
4.821799,0.671,0.6,-0.225,0.061,1.647,-3.234,1
4.830608,0.674,0.605,-0.212,-0.488,2.319,-2.624,1
4.839405,0.68,0.615,-0.191,-0.549,3.112,-1.892,1
4.84734,0.688,0.634,-0.184,0.732,4.028,-1.525,1
4.85379,0.688,0.654,-0.179,2.197,4.76,-1.342,1
4.861636,0.685,0.668,-0.172,3.784,5.31,-1.22,1
4.869697,0.686,0.677,-0.163,4.882,5.859,-1.464,1
4.877925,0.696,0.687,-0.149,5.737,6.591,-1.525,1
4.885679,0.698,0.692,-0.133,6.042,7.324,-1.892,1
4.894339,0.694,0.7,-0.113,6.347,8.239,-2.197,1
4.900847,0.691,0.72,-0.094,8.3,8.911,-2.319,1
4.909322,0.701,0.74,-0.08,12.878,9.948,-2.258,1
4.917356,0.704,0.753,-0.073,16.418,11.169,-2.563,1
4.925831,0.697,0.764,-0.084,15.319,12.695,-3.112,1
4.932469,0.689,0.769,-0.09,9.277,15.136,-3.784,1
4.940876,0.694,0.774,-0.097,3.662,17.395,-4.76,1
4.949691,0.691,0.793,-0.093,-0.854,19.897,-6.103,1
4.956425,0.687,0.814,-0.092,-0.183,21.484,-6.958,1
4.964369,0.679,0.824,-0.09,3.906,23.01,-7.995,1
4.97231,0.674,0.821,-0.091,8.728,24.475,-8.85,1
4.978238,0.671,0.82,-0.09,12.023,25.817,-9.643,1
4.986507,0.655,0.811,-0.09,12.878,28.259,-10.864,1
4.99515,0.647,0.807,-0.1,11.108,30.578,-11.718,1
5.003004,0.658,0.793,-0.118,6.835,33.386,-12.695,1
5.010778,0.642,0.786,-0.133,0.732,36.315,-13.671,1
5.019887,0.638,0.781,-0.133,-2.929,38.94,-13.977,1
5.026948,0.633,0.771,-0.142,-3.784,41.198,-14.77,1
5.035606,0.629,0.76,-0.157,-3.479,44.189,-15.441,1
5.042389,0.614,0.735,-0.176,-6.347,47.058,-16.052,1
5.0515,0.604,0.711,-0.195,-10.253,49.865,-16.54,1
5.058905,0.592,0.691,-0.216,-13.732,53.466,-16.418,1
5.067349,0.571,0.666,-0.234,-15.197,56.03,-16.296,1
5.076325,0.552,0.64,-0.253,-16.54,59.509,-15.93,1
5.084313,0.521,0.623,-0.278,-20.202,62.377,-15.686,1
5.092951,0.483,0.607,-0.307,-26.184,65.673,-15.014,1
5.10002,0.452,0.594,-0.343,-29.785,68.054,-14.648,1
5.109022,0.413,0.564,-0.39,-31.921,70.861,-13.854,1
5.116746,0.387,0.527,-0.455,-34.912,73.12,-12.878,1
5.125212,0.355,0.498,-0.51,-42.907,74.829,-11.596,1
5.132877,0.322,0.469,-0.57,-49.987,76.599,-10.131,1
5.141572,0.291,0.442,-0.632,-52.246,77.209,-8.605,1
5.150918,0.26,0.401,-0.692,-57.8,77.88,-7.019,1
5.15892,0.249,0.382,-0.76,-60.668,78.002,-4.882,1
5.166001,0.218,0.345,-0.829,-62.255,76.965,-2.685,1
5.174988,0.19,0.304,-0.911,-69.396,76.049,0.244,1
5.182149,0.181,0.27,-1.022,-80.749,74.279,2.38,1
5.190626,0.117,0.237,-1.139,-96.618,71.044,4.821,1
5.199752,0.069,0.181,-1.297,-112.976,65.002,7.873,1
5.206733,0.041,0.141,-1.393,-116.516,58.532,10.986,1
5.215235,0.021,0.096,-1.462,-105.224,50.842,15.258,1
5.223382,-0.029,0.002,-1.559,-85.205,41.076,21.301,1
5.231504,-0.047,-0.1,-1.622,-70.068,32.409,27.648,1
5.239472,-0.037,-0.234,-1.704,-54.504,22.827,36.56,1
5.247163,-0.056,-0.344,-1.806,-49.865,14.343,44.25,1
5.255644,-0.106,-0.444,-1.946,-49.072,4.699,53.222,1
5.263218,-0.147,-0.544,-2.061,-49.621,-7.385,64.147,1
5.271487,-0.17,-0.645,-2.187,-57.983,-17.211,74.951,1
5.281116,-0.24,-0.711,-2.314,-70.678,-28.991,88.195,1
5.288427,-0.369,-0.729,-2.424,-78.247,-39.428,100.036,1
5.297519,-0.536,-0.754,-2.545,-82.702,-52.49,114.746,1
5.304495,-0.657,-0.729,-2.612,-80.322,-64.208,127.441,1
5.314445,-0.782,-0.636,-2.696,-74.523,-79.223,143.127,1
5.32121,-0.94,-0.482,-2.769,-73.974,-92.468,156.066,1
5.330215,-1.08,-0.317,-2.863,-80.444,-107.482,171.02,1
5.338331,-1.326,-0.056,-2.995,-88.5,-125.305,184.448,1
5.347288,-1.561,0.168,-3.092,-86.791,-142.761,194.824,1
5.355965,-1.738,0.293,-3.118,-77.575,-164.123,206.176,1
5.36316,-1.938,0.42,-3.196,-71.594,-183.532,214.355,1
5.372151,-2.103,0.512,-3.235,-70.739,-207.763,223.144,1
5.381028,-2.307,0.671,-3.269,-80.749,-227.478,230.957,1
5.38972,-2.601,0.917,-3.243,-83.435,-253.356,239.318,1
5.397065,-2.771,1.077,-3.193,-81.665,-279.357,246.459,1
5.406296,-3.003,1.315,-3.039,-80.81,-303.833,253.051,1
5.415424,-3.162,1.549,-2.901,-73.059,-324.34,257.385,1
5.423234,-3.341,1.793,-2.724,-65.063,-346.923,259.704,1
5.430096,-3.483,2.072,-2.516,-64.575,-365.783,259.765,1
5.43924,-3.592,2.315,-2.261,-57.006,-386.23,256.835,1
5.446852,-3.713,2.591,-1.979,-48.156,-405.273,250.427,1
5.455803,-3.714,2.821,-1.705,-40.405,-421.691,241.943,1
5.463387,-3.773,3.126,-1.286,-48.583,-436.279,230.163,1
5.472307,-3.809,3.463,-0.801,-56.091,-444.885,218.444,1
5.481929,-3.776,3.694,-0.382,-51.086,-451.354,201.293,1
5.487756,-3.643,3.842,-0.02,-46.691,-455.261,181.884,1
5.49664,-3.474,3.931,0.39,-41.503,-458.068,163.696,1
5.502844,-3.212,3.919,0.821,-29.968,-456.542,144.897,1
5.510949,-3.015,3.836,1.207,-23.498,-452.331,126.037,1
5.520247,-2.812,3.785,1.569,-14.343,-445.678,108.032,1
5.528027,-2.596,3.681,1.926,-6.53,-436.035,89.782,1
5.535918,-2.436,3.591,2.151,-20.812,-421.325,69.458,1
5.543345,-2.246,3.514,2.436,-31.311,-407.104,53.283,1
5.55382,-2.0,3.387,2.615,-32.775,-388.366,34.729,1
5.559413,-1.764,3.205,2.741,-35.278,-371.643,19.165,1
5.568779,-1.526,2.99,2.826,-38.513,-353.698,4.699,1
5.576181,-1.237,2.712,2.849,-41.015,-332.885,-11.352,1
5.584551,-1.02,2.46,2.818,-44.982,-313.415,-23.742,1
5.591137,-0.842,2.202,2.689,-48.095,-295.898,-33.935,1
5.598939,-0.665,1.96,2.558,-48.522,-281.066,-42.297,1
5.608689,-0.603,1.783,2.501,-45.227,-264.16,-50.048,1
5.616497,-0.575,1.651,2.481,-48.583,-248.779,-54.992,1
5.623736,-0.534,1.552,2.453,-49.804,-233.215,-58.715,1
5.632875,-0.449,1.449,2.449,-43.029,-216.43,-62.011,1
5.640195,-0.369,1.31,2.421,-36.621,-198.791,-64.025,1
5.64921,-0.252,1.194,2.343,-37.353,-183.41,-65.551,1
5.65676,-0.104,1.068,2.18,-43.334,-166.687,-66.589,1
5.665181,0.021,0.937,2.025,-46.02,-153.991,-66.406,1
5.672683,0.131,0.785,1.815,-50.72,-141.723,-65.307,1
5.681777,0.176,0.704,1.627,-56.945,-132.751,-63.537,1
5.689255,0.21,0.641,1.465,-56.701,-124.45,-61.218,1
5.697902,0.287,0.573,1.358,-50.476,-118.53,-59.265,1
5.706,0.337,0.492,1.28,-43.884,-113.464,-56.884,1
5.713435,0.396,0.424,1.248,-37.719,-107.482,-54.138,1
5.722138,0.437,0.377,1.215,-35.522,-102.05,-51.513,1
5.729325,0.478,0.319,1.205,-36.621,-96.801,-48.706,1
5.73791,0.511,0.304,1.201,-36.376,-89.904,-44.982,1
5.746102,0.525,0.302,1.173,-36.987,-84.716,-41.32,1
5.754136,0.514,0.319,1.135,-40.039,-79.467,-37.841,1
5.760759,0.488,0.352,1.112,-39.184,-74.646,-34.301,1
5.76893,0.494,0.37,1.126,-31.982,-68.969,-29.602,1
5.777048,0.468,0.375,1.119,-29.296,-63.11,-25.573,1
5.785751,0.475,0.398,1.1,-32.348,-56.823,-21.484,1
5.794297,0.48,0.459,1.077,-33.691,-49.926,-16.967,1
5.801363,0.479,0.508,1.039,-31.372,-43.945,-13.793,1
5.81044,0.501,0.551,0.966,-32.226,-37.658,-10.437,1
5.817305,0.504,0.605,0.894,-36.315,-32.287,-8.361,1
5.825633,0.506,0.67,0.818,-39.794,-28.076,-7.019,1
5.833307,0.511,0.722,0.735,-41.259,-24.047,-6.591,1
5.841331,0.541,0.754,0.667,-40.771,-21.545,-6.53,1
5.850306,0.558,0.767,0.618,-38.635,-19.836,-6.835,1
5.85756,0.586,0.762,0.579,-35.644,-17.761,-7.202,1
5.866332,0.605,0.747,0.55,-35.278,-15.869,-7.812,1
5.873413,0.626,0.729,0.522,-36.315,-13.977,-7.812,1
5.881921,0.638,0.728,0.512,-34.362,-12.207,-7.812,1
5.8895,0.644,0.732,0.481,-29.968,-10.498,-7.629,1
5.897952,0.659,0.741,0.417,-28.381,-8.544,-7.751,1
5.906688,0.663,0.758,0.361,-29.846,-7.69,-7.751,1
5.914973,0.673,0.78,0.323,-28.137,-7.263,-8.239,1
5.92196,0.681,0.791,0.284,-24.108,-7.568,-8.422,1
5.930354,0.671,0.786,0.264,-21.423,-7.751,-8.85,1
5.938113,0.675,0.772,0.262,-20.263,-8.178,-9.155,1
5.947184,0.679,0.756,0.276,-18.249,-8.361,-9.338,1
5.954633,0.685,0.732,0.29,-16.418,-7.812,-8.789,1
5.962979,0.684,0.722,0.293,-15.502,-6.958,-8.789,1
5.970968,0.678,0.718,0.29,-15.014,-6.042,-8.422,1
5.980222,0.667,0.719,0.28,-13.183,-4.638,-8.117,1
5.988013,0.667,0.714,0.255,-12.023,-3.784,-8.361,1
5.99635,0.651,0.716,0.219,-11.291,-2.929,-8.178,1
6.004311,0.645,0.726,0.187,-10.559,-2.502,-7.934,1
6.011354,0.643,0.728,0.162,-8.728,-2.319,-7.812,1
6.020009,0.64,0.725,0.149,-7.995,-2.624,-7.751,1
6.026817,0.635,0.716,0.142,-8.361,-2.624,-7.69,1
6.035922,0.645,0.701,0.144,-9.338,-2.929,-7.202,1
6.042885,0.651,0.688,0.14,-9.277,-3.051,-6.53,1
6.052053,0.664,0.68,0.145,-8.178,-3.417,-5.981,1
6.059573,0.667,0.676,0.141,-6.164,-3.479,-5.004,1
6.067192,0.672,0.682,0.131,-4.821,-3.723,-4.211,1
6.07548,0.672,0.681,0.114,-4.394,-3.723,-3.784,1
6.084281,0.666,0.691,0.099,-4.76,-3.784,-3.112,1
6.091507,0.673,0.698,0.089,-3.295,-4.577,-3.173,1
6.09896,0.675,0.698,0.087,-2.746,-5.004,-2.746,1
6.107979,0.681,0.69,0.091,-4.089,-5.126,-2.38,1
6.116461,0.694,0.687,0.108,-4.211,-5.371,-2.136,1
6.123304,0.695,0.692,0.129,-1.586,-5.92,-1.892,1
6.130762,0.697,0.684,0.146,1.403,-6.042,-1.586,1
6.139637,0.687,0.679,0.152,2.319,-6.225,-1.281,1
6.146613,0.686,0.67,0.165,1.586,-5.798,-0.732,1
6.155384,0.685,0.67,0.182,3.356,-5.187,-0.183,1
6.162435,0.678,0.658,0.197,5.126,-4.638,0.549,1
6.170021,0.666,0.655,0.211,5.981,-3.845,1.342,1
6.178959,0.659,0.65,0.223,5.065,-2.746,2.136,1
6.185164,0.651,0.658,0.229,3.051,-1.037,2.624,1
6.192826,0.645,0.665,0.223,0.793,0.305,3.723,1
6.20049,0.639,0.678,0.209,-1.159,1.708,4.455,1
6.209237,0.632,0.698,0.181,-3.417,2.929,4.577,1
6.217221,0.627,0.727,0.156,-4.516,3.723,5.126,1
6.224438,0.634,0.752,0.129,-3.723,4.089,5.004,1
6.233359,0.634,0.776,0.105,-2.624,3.967,5.065,1
6.24031,0.633,0.8,0.084,-1.831,3.784,4.272,1
6.249641,0.633,0.822,0.069,-1.22,3.479,3.417,1
6.255654,0.641,0.827,0.06,-0.915,3.234,2.624,1
6.264244,0.643,0.826,0.054,-0.732,2.746,1.953,1
6.270802,0.654,0.825,0.051,-0.854,2.38,1.281,1
6.279516,0.665,0.816,0.053,-1.403,2.136,0.732,1
6.28598,0.674,0.808,0.059,-1.77,2.014,0.244,1
6.293498,0.687,0.804,0.069,-1.77,1.831,-0.122,1
6.301243,0.7,0.793,0.074,-2.197,1.77,-0.244,1
6.309045,0.705,0.783,0.079,-2.319,1.77,-0.305,1
6.31867,0.717,0.789,0.085,-1.831,1.892,-0.549,1
6.325726,0.732,0.794,0.095,0.244,1.403,-0.305,1
6.333381,0.735,0.81,0.101,2.807,1.647,-0.61,1
6.341919,0.735,0.819,0.103,4.028,1.831,-0.854,1
6.349359,0.732,0.828,0.099,3.417,2.136,-1.342,1
6.356416,0.73,0.836,0.089,1.708,2.38,-1.77,1
6.364781,0.724,0.842,0.08,0.366,2.441,-2.38,1
6.37169,0.716,0.839,0.069,0.122,2.319,-3.234,1
6.380122,0.7,0.831,0.06,-0.183,2.136,-4.089,1
6.388231,0.684,0.818,0.056,-1.098,1.892,-4.699,1
6.394667,0.673,0.804,0.055,-1.464,1.647,-5.065,1
6.402967,0.666,0.792,0.046,-0.732,1.098,-5.432,1
6.409449,0.665,0.779,0.043,0.549,0.793,-5.554,1
6.418003,0.667,0.771,0.038,1.098,0.244,-5.554,1
6.424778,0.671,0.763,0.036,1.464,-0.244,-5.493,1
6.433867,0.675,0.762,0.036,2.014,-0.732,-5.371,1
6.441001,0.678,0.765,0.041,2.197,-1.281,-5.432,1
6.449446,0.684,0.773,0.041,2.38,-1.892,-5.31,1
6.456993,0.69,0.77,0.044,2.807,-2.624,-5.432,1
6.465404,0.691,0.772,0.049,2.685,-2.99,-5.981,1
6.47342,0.691,0.771,0.056,1.647,-3.417,-6.225,1
6.48136,0.688,0.769,0.059,0.427,-3.784,-6.896,1
6.489118,0.687,0.759,0.066,-0.549,-4.15,-7.08,1
6.49624,0.683,0.746,0.073,-1.098,-4.516,-7.446,1
6.505885,0.682,0.729,0.079,-1.647,-4.821,-7.69,1
6.512169,0.677,0.722,0.086,-1.953,-5.004,-7.446,1
6.521114,0.676,0.713,0.086,-1.159,-5.065,-7.446,1
6.52746,0.675,0.706,0.089,0.427,-5.31,-7.202,1
6.535986,0.673,0.701,0.09,1.586,-5.432,-7.08,1
6.542639,0.668,0.684,0.086,1.647,-5.676,-6.774,1
6.550217,0.674,0.679,0.085,1.159,-5.981,-6.286,1
6.558806,0.667,0.675,0.089,0.915,-6.103,-5.798,1
6.566474,0.665,0.663,0.088,0.183,-6.469,-5.065,1
6.574917,0.667,0.658,0.092,-0.976,-6.774,-4.394,1
6.584023,0.663,0.653,0.093,-2.014,-6.713,-3.662,1
6.591409,0.663,0.655,0.093,-2.929,-6.713,-3.417,1
6.59925,0.662,0.654,0.093,-3.173,-7.446,-2.319,1
6.606846,0.654,0.655,0.099,-2.868,-7.324,-1.831,1
6.615579,0.656,0.666,0.11,-2.563,-7.507,-1.037,1
6.623175,0.653,0.666,0.115,-0.427,-7.751,-0.488,1
6.630719,0.654,0.673,0.122,2.136,-7.873,0.061,1
6.639921,0.655,0.68,0.123,3.051,-7.812,0.549,1
6.646748,0.659,0.686,0.122,3.051,-7.751,0.732,1
6.655444,0.665,0.692,0.116,3.356,-7.629,1.159,1
6.662809,0.664,0.702,0.11,3.234,-7.995,1.403,1
6.670296,0.667,0.708,0.103,2.807,-7.873,1.403,1
6.677909,0.675,0.712,0.107,1.892,-8.239,1.892,1
6.686924,0.683,0.72,0.11,1.464,-8.117,1.831,1
6.694113,0.687,0.721,0.12,1.159,-8.3,1.77,1
6.701531,0.684,0.73,0.131,0.244,-8.483,2.136,1
6.71062,0.685,0.732,0.138,-0.427,-8.3,1.953,1
6.717732,0.687,0.737,0.143,-0.488,-8.117,1.892,1
6.725355,0.686,0.749,0.145,0.122,-8.178,1.831,1
6.734481,0.691,0.75,0.143,1.098,-7.812,1.77,1
6.741906,0.688,0.75,0.143,1.831,-7.873,1.77,1
6.749149,0.686,0.752,0.14,2.014,-7.934,1.525,1
6.757162,0.68,0.756,0.141,2.38,-7.934,1.647,1
6.764982,0.68,0.756,0.142,2.99,-8.117,1.342,1
6.772203,0.681,0.762,0.146,2.502,-7.995,1.403,1
6.77995,0.684,0.765,0.148,1.098,-7.995,1.22,1
6.788906,0.685,0.766,0.155,-0.366,-7.812,0.976,1
6.795708,0.686,0.774,0.165,-0.549,-7.69,1.037,1
6.804272,0.686,0.773,0.169,-0.366,-7.446,0.488,1
6.811693,0.686,0.775,0.175,-0.061,-7.08,0.488,1
6.819392,0.687,0.777,0.18,0.061,-6.774,0.305,1
6.827089,0.681,0.784,0.18,-0.061,-6.225,0.0,1
6.835617,0.685,0.786,0.182,0.915,-6.164,-0.183,1
6.844387,0.682,0.785,0.188,2.136,-5.981,-0.61,1
6.85176,0.682,0.782,0.2,2.624,-5.554,-1.159,1
6.859475,0.688,0.774,0.201,1.586,-5.126,-1.281,1
6.867999,0.683,0.772,0.208,0.244,-4.394,-1.647,1
6.875208,0.681,0.763,0.213,-0.976,-4.333,-1.342,1
6.882644,0.678,0.764,0.214,-1.403,-3.723,-1.831,1
6.891811,0.672,0.76,0.22,-0.915,-3.112,-2.197,1
6.89912,0.673,0.759,0.223,-0.549,-2.441,-2.197,1
6.908216,0.673,0.752,0.218,-0.732,-1.953,-2.258,1
6.915298,0.677,0.754,0.212,-1.22,-1.342,-2.258,1
6.923102,0.675,0.747,0.205,-1.647,-0.793,-2.38,1
6.931692,0.679,0.748,0.203,-1.403,-0.427,-2.319,1
6.940554,0.677,0.746,0.2,-0.671,-0.244,-2.502,1
6.947456,0.675,0.735,0.197,-0.061,0.183,-2.441,1
6.95495,0.678,0.728,0.2,-0.122,0.427,-2.441,1
6.962811,0.677,0.715,0.198,-0.671,0.854,-2.502,1
6.971943,0.673,0.711,0.191,-2.014,1.342,-2.136,1
6.97949,0.671,0.711,0.184,-2.197,1.586,-1.953,1
6.986739,0.673,0.714,0.171,-2.319,1.953,-1.831,1
6.994519,0.667,0.718,0.157,-2.746,2.075,-1.403,1
7.002414,0.668,0.721,0.145,-3.112,2.014,-1.464,1
7.010431,0.666,0.728,0.139,-2.563,1.892,-1.159,1
7.019675,0.668,0.729,0.13,-1.281,1.708,-1.342,1
7.02691,0.668,0.727,0.131,-0.122,1.586,-1.159,1
7.034158,0.669,0.716,0.128,0.854,1.281,-1.159,1
7.043307,0.676,0.705,0.134,0.793,0.793,-0.732,1
7.050358,0.674,0.696,0.133,1.037,0.976,-0.671,1
7.057655,0.678,0.691,0.135,1.342,0.915,-0.122,1
7.064954,0.673,0.689,0.125,1.403,1.159,0.122,1
7.073132,0.681,0.695,0.123,1.525,0.732,0.366,1
7.080151,0.673,0.698,0.111,2.197,0.61,0.671,1
7.088019,0.671,0.701,0.099,2.746,0.244,0.915,1
7.095691,0.673,0.708,0.096,3.051,-0.366,1.159,1
7.102272,0.672,0.715,0.098,3.356,-0.488,1.647,1
7.110783,0.667,0.724,0.106,4.028,-1.159,1.464,1
7.118655,0.666,0.729,0.113,5.249,-1.586,1.525,1
7.125911,0.663,0.73,0.137,5.859,-1.586,1.525,1
7.133768,0.657,0.732,0.146,7.385,-1.647,1.77,1
7.142934,0.658,0.728,0.155,7.873,-1.403,1.708,1
7.149298,0.656,0.726,0.16,8.422,-1.037,1.77,1
7.157675,0.666,0.724,0.162,9.338,-1.098,2.014,1
7.165157,0.669,0.727,0.153,9.887,-0.915,2.197,1
7.174301,0.667,0.731,0.145,10.375,-0.854,2.441,1
7.18217,0.666,0.73,0.144,9.399,-0.488,2.258,1
7.189129,0.662,0.731,0.143,8.056,-0.427,2.319,1
7.197829,0.657,0.731,0.143,6.958,-0.366,2.563,1
7.205844,0.662,0.733,0.144,5.493,-0.366,2.746,1
7.213093,0.663,0.737,0.144,4.272,-0.244,2.624,1
7.221366,0.668,0.739,0.143,3.295,-0.183,2.685,1
7.22807,0.672,0.737,0.137,2.868,0.061,2.563,1
7.237268,0.675,0.74,0.132,2.807,-0.244,2.685,1
7.245039,0.676,0.743,0.125,2.38,-0.488,2.563,1
7.252282,0.674,0.75,0.121,1.708,-0.61,2.685,1
7.259709,0.672,0.75,0.121,0.183,-0.732,2.258,1
7.268709,0.674,0.751,0.118,-1.464,-0.793,2.258,1
7.275727,0.675,0.754,0.119,-2.99,-0.976,1.953,1
7.284549,0.675,0.757,0.115,-3.967,-1.159,1.953,1
7.292177,0.681,0.758,0.115,-3.295,-1.708,1.586,1
7.299018,0.68,0.752,0.11,-3.295,-1.831,1.525,1
7.307845,0.687,0.748,0.11,-3.234,-2.136,1.464,1
7.314541,0.687,0.745,0.106,-3.479,-2.563,1.403,1
7.322242,0.685,0.744,0.107,-3.906,-2.746,1.22,1
7.331258,0.683,0.747,0.109,-3.112,-3.173,1.525,1
7.338514,0.68,0.751,0.117,-2.258,-3.784,1.464,1
7.347542,0.677,0.751,0.123,-1.953,-4.089,1.586,1
7.355381,0.672,0.75,0.127,-2.319,-4.211,1.342,1
7.363525,0.673,0.749,0.131,-2.685,-4.516,1.342,1
7.371451,0.67,0.747,0.137,-2.38,-4.577,1.281,1
7.379203,0.667,0.746,0.144,-1.586,-4.821,1.159,1
7.387455,0.665,0.749,0.146,-0.793,-4.943,1.159,1
7.39605,0.668,0.753,0.146,0.671,-5.371,0.854,1
7.402848,0.664,0.751,0.149,1.647,-5.249,1.159,1
7.410684,0.664,0.752,0.152,2.014,-5.371,0.976,1
7.419194,0.66,0.755,0.159,3.173,-5.371,0.915,1
7.427182,0.66,0.757,0.166,4.394,-5.493,1.037,1
7.434437,0.656,0.759,0.175,6.53,-5.432,1.22,1
7.442729,0.66,0.759,0.182,8.3,-5.187,1.098,1
7.450097,0.65,0.763,0.187,9.46,-4.577,0.915,1
7.457102,0.645,0.757,0.195,8.728,-3.906,0.793,1
7.465541,0.646,0.761,0.191,6.042,-3.234,0.915,1
7.47268,0.66,0.763,0.194,4.516,-2.563,0.854,1
7.480882,0.666,0.771,0.192,5.065,-2.502,0.732,1
7.489561,0.672,0.77,0.19,6.652,-2.136,0.732,1
7.496359,0.681,0.767,0.187,8.605,-2.197,0.488,1
7.503635,0.683,0.763,0.185,9.948,-2.197,0.244,1
7.512147,0.682,0.758,0.183,9.277,-1.525,-0.122,1
7.520644,0.676,0.752,0.174,6.652,-1.342,-0.488,1
7.528292,0.68,0.747,0.161,1.159,-0.488,-0.671,1
7.536382,0.677,0.742,0.144,-3.784,-0.305,-0.915,1
7.543882,0.662,0.748,0.123,-7.934,0.0,-1.098,1
7.552555,0.66,0.748,0.103,-9.948,-0.366,-1.281,1
7.560389,0.651,0.741,0.088,-9.826,-0.793,-1.525,1
7.568423,0.656,0.728,0.083,-9.338,-1.464,-1.586,1
7.576349,0.655,0.716,0.078,-9.277,-1.892,-1.342,1
7.585133,0.657,0.705,0.072,-9.46,-2.441,-0.976,1
7.592771,0.669,0.703,0.075,-10.559,-3.112,-0.488,1
7.600354,0.672,0.705,0.075,-11.047,-3.784,-0.122,1
7.609744,0.681,0.704,0.073,-12.268,-4.272,0.244,1
7.617106,0.686,0.712,0.075,-12.756,-4.577,0.122,1
7.62428,0.691,0.72,0.07,-11.596,-5.371,0.305,1
7.633425,0.698,0.732,0.068,-9.521,-6.286,0.305,1
7.641972,0.7,0.733,0.071,-5.737,-7.568,-0.061,1
7.649028,0.699,0.733,0.064,-2.624,-8.789,-0.427,1
7.656667,0.695,0.729,0.067,-0.671,-10.131,-0.549,1
7.66577,0.699,0.733,0.082,0.915,-11.535,-0.488,1
7.67275,0.728,0.744,0.104,5.249,-13.122,-0.366,1
7.682031,0.741,0.75,0.129,10.314,-13.977,-0.671,1
7.689124,0.746,0.745,0.162,14.404,-15.38,-0.915,1
7.698232,0.745,0.735,0.188,15.869,-15.38,-1.403,1
7.704871,0.741,0.72,0.201,14.526,-15.319,-1.77,1
7.713984,0.744,0.701,0.2,12.084,-15.075,-2.258,1
7.720902,0.748,0.687,0.196,9.643,-14.343,-2.563,1
7.72901,0.752,0.67,0.165,7.568,-14.221,-2.319,1
7.737622,0.75,0.654,0.136,6.103,-13.854,-2.929,1
7.744761,0.75,0.634,0.095,6.713,-14.099,-2.685,1
7.7516,0.748,0.621,0.053,9.826,-14.709,-2.624,1
7.761045,0.73,0.618,0.009,14.892,-16.235,-1.831,1
7.767565,0.679,0.642,-0.029,19.897,-18.554,-1.22,1
7.776644,0.625,0.666,-0.032,28.381,-22.033,-0.427,1
7.783552,0.588,0.691,-0.022,36.987,-25.268,0.549,1
7.792888,0.551,0.71,0.02,44.25,-28.808,1.098,1
7.800444,0.521,0.72,0.084,48.034,-31.799,1.525,1
7.807165,0.501,0.721,0.145,46.264,-32.775,1.77,1
7.815441,0.486,0.723,0.208,40.588,-33.325,1.708,1
7.822193,0.479,0.727,0.291,34.362,-33.386,1.892,1
7.829806,0.481,0.735,0.363,31.188,-33.02,1.953,1
7.837368,0.504,0.721,0.451,31.372,-32.775,1.77,1
7.84655,0.527,0.697,0.535,33.142,-31.494,1.708,1
7.853543,0.557,0.656,0.619,32.775,-30.09,1.77,1
7.862606,0.581,0.626,0.712,29.907,-27.526,1.953,1
7.86989,0.599,0.593,0.782,27.038,-24.719,2.441,1
7.877221,0.617,0.565,0.863,25.512,-21.972,3.173,1
7.885859,0.641,0.539,0.968,26.184,-19.592,4.211,1
7.893019,0.683,0.518,1.045,28.259,-16.418,5.31,1
7.901907,0.695,0.518,1.155,33.447,-12.329,6.896,1
7.90916,0.684,0.552,1.241,39.611,-8.972,8.85,1
7.917894,0.653,0.605,1.386,47.485,-4.333,10.314,1
7.92412,0.655,0.631,1.489,54.138,0.549,11.84,1
7.93297,0.652,0.647,1.599,57.373,6.53,12.268,1
7.939344,0.629,0.664,1.729,55.786,14.221,12.939,1
7.947422,0.618,0.693,1.849,53.1,21.911,13.244,1
7.955836,0.569,0.728,2.008,54.443,30.639,13.366,1
7.962824,0.501,0.737,2.154,57.495,39.611,12.817,1
7.971022,0.44,0.717,2.332,59.448,49.987,12.695,1
7.977163,0.384,0.661,2.504,61.401,61.584,12.817,1
7.984928,0.294,0.607,2.683,62.683,75.073,13.854,1
7.992695,0.352,0.489,2.837,62.133,83.862,15.075,1
8.001113,0.306,0.425,3.097,73.303,99.853,18.554,1
8.007535,0.2,0.311,3.303,84.167,116.394,23.071,1
8.016235,0.131,0.219,3.481,94.177,134.277,28.625,1
8.023598,0.02,0.129,3.644,104.248,154.479,35.644,1
8.032036,-0.168,0.062,3.778,112.976,174.377,43.457,1
8.037854,-0.363,0.03,3.849,121.398,200.439,54.138,1
8.04634,-0.59,0.073,3.845,127.319,222.045,64.086,1
8.0539,-0.81,0.229,3.772,135.925,245.605,75.378,1
8.061687,-1.106,0.41,3.587,140.747,265.075,84.838,1
8.069432,-1.406,0.627,3.395,146.301,283.691,92.163,1
8.078322,-1.59,0.776,3.254,160.095,303.1,100.28,1
8.08524,-1.767,0.858,3.09,165.71,318.603,106.872,1
8.09363,-1.95,0.909,2.939,165.649,334.228,113.342,1
8.10075,-2.157,0.936,2.788,165.1,349.06,119.689,1
8.109926,-2.372,0.968,2.635,164.916,363.952,127.441,1
8.116952,-2.653,1.135,2.29,154.846,380.126,135.559,1
8.12424,-2.834,1.342,1.893,138.549,392.15,140.625,1
8.131853,-2.905,1.546,1.508,141.357,397.705,142.639,1
8.139447,-2.975,1.708,1.185,150.817,399.414,144.592,1
8.148535,-3.065,1.869,0.861,151.306,400.024,145.996,1
8.155454,-3.088,2.072,0.478,147.521,398.559,145.202,1
8.163154,-3.046,2.256,0.128,144.836,395.263,143.249,1
8.172502,-2.945,2.465,-0.175,140.93,388.427,139.099,1
8.179544,-2.863,2.622,-0.402,139.343,379.333,133.972,1
8.188552,-2.742,2.793,-0.652,148.986,372.985,127.807,1
8.195387,-2.542,2.958,-0.945,138.916,358.764,117.553,1
8.202876,-2.434,3.165,-1.115,131.774,349.365,106.933,1
8.212126,-2.215,3.283,-1.272,125.061,335.51,93.749,1
8.219035,-2.01,3.349,-1.363,118.041,324.34,79.406,1
8.226901,-1.817,3.337,-1.441,103.027,310.668,61.523,1
8.236227,-1.674,3.297,-1.423,91.796,299.255,46.02,1
8.243055,-1.498,3.175,-1.353,90.209,288.574,32.104,1
8.251377,-1.402,3.048,-1.36,84.106,278.747,18.005,1
8.258177,-1.288,2.944,-1.402,73.303,269.653,6.347,1
8.267141,-1.207,2.869,-1.422,70.678,260.437,-3.906,1
8.274113,-1.072,2.766,-1.448,74.951,250.976,-12.878,1
8.28207,-0.947,2.607,-1.476,73.608,241.455,-20.446,1
8.289996,-0.835,2.483,-1.473,65.124,230.773,-28.015,1
8.298151,-0.733,2.369,-1.439,60.546,221.496,-33.874,1
8.306439,-0.625,2.213,-1.397,59.082,212.707,-39.123,1
8.314343,-0.563,2.071,-1.374,54.443,204.772,-43.395,1
8.3227,-0.498,1.944,-1.356,44.494,196.044,-48.156,1
8.330133,-0.459,1.826,-1.321,37.109,187.988,-52.307,1
8.338667,-0.44,1.747,-1.304,37.658,180.969,-55.969,1
8.34652,-0.395,1.651,-1.307,40.466,174.194,-59.204,1
8.355817,-0.357,1.519,-1.331,35.156,166.687,-62.133,1
8.362521,-0.32,1.429,-1.313,31.433,160.461,-64.697,1
8.370891,-0.268,1.337,-1.277,34.057,153.381,-66.467,1
8.380346,-0.224,1.215,-1.218,35.4,145.69,-67.687,1
8.38776,-0.181,1.109,-1.156,32.897,139.831,-68.115,1
8.396227,-0.173,1.047,-1.111,29.724,134.826,-67.993,1
8.403094,-0.163,0.984,-1.086,26.0,129.272,-67.81,1
8.411855,-0.119,0.918,-1.098,17.211,124.755,-66.833,1
8.41914,-0.087,0.879,-1.113,10.742,119.995,-66.284,1
8.427864,-0.073,0.849,-1.112,10.62,115.295,-65.368,1
8.436502,-0.053,0.792,-1.108,15.136,109.313,-63.598,1
8.443693,-0.018,0.739,-1.109,18.432,104.003,-61.523,1
8.452375,0.009,0.671,-1.104,18.676,99.06,-59.509,1
8.460532,0.033,0.625,-1.087,17.822,93.444,-56.823,1
8.467689,0.07,0.585,-1.071,17.395,89.05,-54.138,1
8.476441,0.083,0.558,-1.063,15.991,84.228,-51.33,1
8.484131,0.109,0.551,-1.057,13.854,78.918,-48.339,1
8.491923,0.126,0.552,-1.071,11.84,74.096,-45.715,1
8.498719,0.145,0.547,-1.085,9.948,68.847,-43.701,1
8.50691,0.165,0.544,-1.092,6.408,63.537,-41.503,1
8.515609,0.18,0.548,-1.086,2.441,57.067,-39.062,1
8.524481,0.203,0.558,-1.062,3.479,51.208,-37.17,1
8.531873,0.227,0.554,-1.021,6.958,45.898,-35.034,1
8.540089,0.257,0.538,-0.979,7.385,40.405,-32.836,1
8.54751,0.285,0.524,-0.926,5.249,36.071,-30.517,1
8.55543,0.293,0.527,-0.878,4.638,32.287,-28.015,1
8.562396,0.313,0.531,-0.836,7.141,28.686,-25.817,1
8.571188,0.342,0.52,-0.809,9.155,25.512,-23.315,1
8.579675,0.357,0.515,-0.79,6.835,22.583,-20.568,1
8.586393,0.374,0.531,-0.782,4.455,20.141,-18.31,1
8.596187,0.393,0.548,-0.792,4.211,17.272,-16.357,1
8.602522,0.407,0.56,-0.791,4.15,13.244,-14.282,1
8.611208,0.415,0.565,-0.791,3.723,9.826,-12.878,1
8.619363,0.402,0.575,-0.774,4.028,6.042,-11.108,1
8.626057,0.417,0.578,-0.744,6.591,2.197,-9.887,1
8.634813,0.437,0.569,-0.704,9.826,-1.77,-8.178,1
8.643602,0.452,0.56,-0.663,9.46,-4.028,-6.713,1
8.650605,0.466,0.563,-0.624,7.324,-6.835,-4.821,1
8.659769,0.472,0.568,-0.583,7.08,-8.789,-3.234,1
8.666962,0.472,0.57,-0.542,8.056,-10.864,-1.525,1
8.676145,0.477,0.576,-0.512,10.437,-12.573,-0.183,1
8.683282,0.495,0.582,-0.475,11.291,-14.16,1.647,1
8.6925,0.505,0.593,-0.457,8.85,-14.892,3.295,1
8.699301,0.513,0.615,-0.433,7.507,-15.747,4.272,1
8.706705,0.522,0.637,-0.414,8.789,-16.967,5.859,1
8.714347,0.527,0.651,-0.399,10.07,-17.639,6.774,1
8.72313,0.523,0.664,-0.379,8.728,-18.249,7.568,1
8.731306,0.515,0.676,-0.364,5.432,-18.371,8.483,1
8.738215,0.512,0.692,-0.342,2.807,-18.493,9.338,1
8.746049,0.518,0.715,-0.31,3.601,-18.798,10.07,1
8.754857,0.527,0.723,-0.294,8.666,-18.798,10.803,1
8.762115,0.533,0.724,-0.283,11.23,-18.615,11.291,1
8.770509,0.531,0.732,-0.276,10.131,-18.615,11.84,1
8.777274,0.533,0.742,-0.27,7.568,-18.188,12.268,1
8.786802,0.535,0.762,-0.256,6.286,-17.883,12.573,1
8.79374,0.542,0.782,-0.245,5.249,-17.944,12.634,1
8.801117,0.545,0.796,-0.227,3.417,-17.578,12.573,1
8.80896,0.541,0.817,-0.216,1.586,-17.333,12.512,1
8.816395,0.543,0.833,-0.208,0.732,-16.601,12.145,1
8.824053,0.548,0.843,-0.198,-0.854,-16.113,11.962,1
8.832328,0.55,0.865,-0.177,-1.586,-15.319,11.535,1
8.840058,0.557,0.878,-0.169,0.305,-14.648,11.352,1
8.848303,0.567,0.882,-0.164,2.258,-14.099,10.681,1
8.855415,0.57,0.885,-0.16,2.075,-13.366,10.07,1
8.864823,0.582,0.888,-0.158,0.366,-12.695,9.704,1
8.872033,0.587,0.897,-0.15,-1.22,-11.596,8.911,1
8.880044,0.583,0.91,-0.144,-1.342,-10.864,7.934,1
8.889641,0.585,0.91,-0.144,-1.342,-10.131,6.835,1
8.896441,0.595,0.907,-0.145,-1.22,-9.094,5.798,1
8.904747,0.594,0.903,-0.146,-1.403,-8.056,5.004,1
8.913838,0.595,0.897,-0.145,-1.647,-6.958,4.028,1
8.921344,0.601,0.889,-0.156,-2.136,-5.92,3.356,1
8.930765,0.599,0.881,-0.163,-2.99,-4.821,2.441,1
8.937865,0.602,0.873,-0.172,-3.662,-4.028,1.586,1
8.946988,0.603,0.872,-0.182,-4.455,-3.295,1.037,1
8.954135,0.606,0.869,-0.191,-4.699,-2.624,0.61,1
8.963366,0.611,0.863,-0.196,-3.845,-2.197,0.061,1
8.97078,0.616,0.854,-0.194,-3.051,-2.136,-0.244,1
8.979008,0.612,0.851,-0.191,-3.784,-1.464,-0.61,1
8.987954,0.605,0.843,-0.193,-4.943,-0.915,-0.854,1
8.995287,0.611,0.842,-0.194,-5.31,-0.244,-0.793,1
9.003326,0.611,0.829,-0.208,-5.432,0.061,-0.854,1
9.011953,0.604,0.818,-0.216,-6.469,0.488,-1.037,1
9.019504,0.604,0.821,-0.221,-7.263,0.793,-0.793,1
9.027179,0.598,0.821,-0.229,-6.286,0.854,-0.61,1
9.035419,0.599,0.827,-0.233,-5.004,0.732,-0.549,1
9.043233,0.587,0.837,-0.252,-5.493,0.732,-0.915,1
9.051119,0.589,0.838,-0.262,-6.713,0.61,-1.098,1
9.058453,0.586,0.841,-0.268,-7.08,0.427,-1.525,1
9.067494,0.584,0.835,-0.274,-6.225,0.122,-2.258,1
9.074667,0.585,0.832,-0.282,-5.126,-0.244,-2.441,1
9.083523,0.586,0.825,-0.29,-3.967,-0.671,-3.051,1
9.091154,0.59,0.821,-0.292,-3.173,-1.159,-3.295,1
9.098972,0.589,0.817,-0.296,-2.929,-1.647,-3.417,1
9.108066,0.586,0.805,-0.29,-4.028,-2.197,-3.54,1
9.115013,0.581,0.798,-0.286,-5.737,-2.319,-3.662,1
9.122858,0.585,0.796,-0.275,-7.69,-2.685,-3.54,1
9.132262,0.583,0.796,-0.274,-8.239,-3.051,-3.295,1
9.139702,0.583,0.794,-0.281,-8.483,-3.234,-3.356,1
9.148173,0.585,0.796,-0.29,-9.948,-3.417,-3.234,1
9.157404,0.588,0.795,-0.298,-13.61,-3.601,-3.234,1
9.164598,0.574,0.806,-0.299,-17.089,-3.723,-2.807,1
9.173454,0.569,0.815,-0.306,-18.432,-3.967,-2.868,1
9.180775,0.575,0.823,-0.324,-18.615,-4.516,-3.051,1
9.190122,0.567,0.821,-0.334,-19.775,-5.493,-3.417,1
9.196935,0.57,0.821,-0.354,-22.644,-5.737,-3.356,1
9.205646,0.573,0.814,-0.372,-29.907,-6.347,-3.54,1
9.214884,0.563,0.817,-0.37,-40.1,-6.774,-3.601,1
9.223339,0.552,0.819,-0.356,-47.119,-7.324,-4.272,1
9.230366,0.541,0.836,-0.343,-43.518,-8.483,-5.065,1
9.239235,0.548,0.832,-0.34,-31.677,-10.253,-5.798,1
9.247573,0.546,0.813,-0.344,-21.667,-12.023,-6.286,1
9.256474,0.549,0.813,-0.342,-13.793,-13.427,-7.08,1
9.26469,0.559,0.81,-0.346,-6.042,-14.465,-7.446,1
9.272288,0.567,0.803,-0.351,0.61,-15.258,-8.056,1
9.280351,0.574,0.795,-0.356,4.577,-15.563,-8.422,1
9.288141,0.581,0.799,-0.343,8.972,-16.235,-8.911,1
9.296689,0.582,0.798,-0.341,14.526,-16.967,-9.765,1
9.304394,0.574,0.79,-0.317,17.517,-17.578,-10.559,1
9.312422,0.569,0.791,-0.301,16.967,-17.578,-10.559,1
9.321165,0.557,0.788,-0.278,15.441,-17.883,-11.23,1
9.329394,0.558,0.792,-0.274,18.005,-18.188,-12.084,1
9.337879,0.565,0.79,-0.271,15.869,-18.615,-13.0,1
9.346156,0.575,0.787,-0.27,11.657,-17.761,-13.671,1
9.354224,0.591,0.791,-0.294,5.432,-18.005,-13.793,1
9.36141,0.58,0.794,-0.29,2.99,-17.395,-14.343,1
9.369096,0.595,0.8,-0.306,5.187,-18.676,-14.465,1
9.377423,0.595,0.809,-0.299,8.972,-19.775,-15.136,1
9.385626,0.58,0.778,-0.31,3.601,-19.897,-14.77,1
9.394207,0.585,0.788,-0.301,-3.662,-20.69,-14.648,1
9.401288,0.583,0.802,-0.266,-2.136,-20.812,-14.099,1
9.409903,0.605,0.802,-0.283,3.601,-22.033,-14.16,1
9.418317,0.576,0.797,-0.265,5.92,-22.338,-14.831,1
9.426683,0.566,0.779,-0.269,5.004,-22.399,-15.686,1
9.434736,0.579,0.782,-0.259,7.08,-22.888,-16.113,1
9.443407,0.576,0.781,-0.257,11.047,-24.23,-16.479,1
9.450821,0.585,0.762,-0.261,13.061,-24.597,-16.479,1
9.459197,0.581,0.747,-0.273,11.718,-25.268,-16.479,1
9.467943,0.573,0.737,-0.274,8.972,-25.695,-16.601,1
9.476397,0.556,0.727,-0.284,5.798,-26.306,-16.174,1
9.483302,0.576,0.703,-0.297,1.708,-26.489,-15.38,1
9.492664,0.681,0.643,-0.316,-14.038,-27.465,-14.038,1
9.500722,0.634,0.637,-0.318,-33.752,-27.465,-12.329,1
9.509059,0.833,0.561,-0.345,-58.898,-28.991,-10.925,1
9.516306,0.615,0.579,-0.333,-81.604,-29.907,-10.009,1
9.525504,0.531,0.619,-0.315,-88.928,-29.968,-8.239,1
9.532545,0.537,0.652,-0.289,-78.796,-31.127,-5.981,1
9.540258,0.467,0.667,-0.251,-57.556,-32.592,-2.99,1
9.548091,0.482,0.662,-0.251,-38.757,-33.386,-1.098,1
9.556732,0.817,0.628,-0.233,-25.329,-34.24,-0.915,1
9.565248,0.665,0.664,-0.134,-3.845,-35.339,-1.586,1
9.572093,0.689,0.634,-0.195,10.131,-36.804,-1.342,1
9.580009,0.685,0.628,-0.141,13.977,-35.522,-0.915,1
9.589114,0.646,0.621,-0.145,12.023,-33.569,-0.305,1
9.595294,0.667,0.613,-0.123,4.516,-32.043,0.793,1
9.603138,0.664,0.614,-0.13,-6.896,-29.174,1.892,1
9.611725,0.68,0.631,-0.105,-14.526,-27.465,2.624,1
9.620643,0.677,0.659,-0.079,-14.587,-25.024,3.295,1
9.627433,0.697,0.676,-0.068,-11.596,-23.864,3.173,1
9.635468,0.701,0.692,-0.04,-6.774,-21.728,3.784,1
9.64351,0.699,0.697,-0.033,-3.967,-20.385,3.845,1
9.651479,0.704,0.7,-0.019,-2.746,-18.066,3.967,1
9.659162,0.71,0.687,-0.022,-6.408,-15.319,3.906,1
9.666827,0.715,0.695,-0.017,-10.986,-12.695,4.15,1
9.674919,0.714,0.717,-0.026,-12.451,-10.498,4.394,1
9.683159,0.729,0.741,-0.059,-11.779,-8.605,4.76,1
9.691573,0.731,0.754,-0.098,-11.535,-6.835,4.577,1
9.699474,0.741,0.764,-0.137,-12.939,-5.981,4.028,1
9.706141,0.745,0.778,-0.169,-14.709,-5.615,3.417,1
9.71423,0.749,0.791,-0.192,-14.77,-5.676,2.746,1
9.723087,0.735,0.787,-0.207,-12.817,-6.042,1.708,1
9.730261,0.718,0.778,-0.218,-10.375,-6.713,0.732,1
9.739398,0.693,0.763,-0.224,-9.033,-6.958,0.427,1
9.746368,0.665,0.746,-0.227,-8.239,-7.324,0.122,1
9.754399,0.65,0.744,-0.23,-7.446,-7.507,-0.061,1
9.762867,0.635,0.748,-0.229,-5.737,-7.629,0.0,1
9.771982,0.621,0.75,-0.243,-4.516,-7.812,0.244,1
9.779096,0.622,0.748,-0.249,-5.615,-7.751,0.244,1
9.78721,0.629,0.751,-0.253,-7.446,-8.239,0.0,1
9.795772,0.634,0.748,-0.255,-8.789,-8.3,0.061,1
9.802525,0.637,0.756,-0.256,-8.239,-8.544,0.122,1
9.810911,0.644,0.755,-0.262,-7.141,-9.094,-0.244,1
9.819384,0.651,0.756,-0.269,-6.286,-9.704,-0.549,1
9.826906,0.666,0.752,-0.268,-5.249,-10.437,-0.793,1
9.834941,0.679,0.75,-0.269,-6.347,-11.047,-0.732,1
9.842733,0.677,0.752,-0.255,-9.155,-11.596,-0.549,1
9.850794,0.668,0.751,-0.25,-12.512,-11.413,-0.488,1
9.859219,0.672,0.747,-0.246,-15.869,-11.291,-0.976,1
9.867257,0.675,0.749,-0.235,-18.798,-11.352,-0.976,1
9.875734,0.681,0.752,-0.218,-19.775,-11.413,-1.281,1
9.884319,0.687,0.75,-0.211,-19.836,-11.474,-1.586,1
9.89288,0.686,0.742,-0.198,-20.324,-11.474,-1.831,1
9.90217,0.68,0.755,-0.186,-22.216,-11.23,-1.647,1
9.909732,0.679,0.757,-0.175,-23.986,-10.742,-1.342,1
9.917514,0.678,0.757,-0.165,-27.038,-9.765,-1.647,1
9.926603,0.676,0.761,-0.16,-28.625,-9.155,-1.831,1
9.935722,0.676,0.779,-0.147,-27.221,-8.3,-2.197,1
9.942308,0.675,0.784,-0.146,-22.644,-8.178,-2.502,1
9.951497,0.68,0.786,-0.15,-18.371,-7.873,-3.234,1
9.959244,0.686,0.785,-0.167,-13.427,-7.263,-4.577,1
9.968055,0.699,0.772,-0.182,-9.765,-6.958,-5.371,1
9.975822,0.704,0.759,-0.194,-6.652,-6.958,-5.981,1
9.983662,0.707,0.748,-0.197,-2.258,-7.141,-6.408,1
9.991345,0.705,0.729,-0.202,0.061,-6.958,-6.53,1
10.000089,0.703,0.706,-0.211,-1.037,-6.652,-6.713,1
