timestamp_s,ax,ay,az,gx,gy,gz,label
0.004258,0.552,-0.729,-0.468,14.77,-36.376,10.559,1
0.012658,0.571,-0.729,-0.455,14.099,-35.217,11.535,1
0.020746,0.567,-0.716,-0.435,10.07,-33.935,12.268,1
0.028962,0.574,-0.702,-0.41,6.713,-31.433,12.451,1
0.036828,0.568,-0.687,-0.418,-0.366,-30.7,12.878,1
0.04404,0.56,-0.66,-0.387,-5.249,-27.893,12.634,1
0.05214,0.553,-0.639,-0.381,-8.178,-26.855,12.39,1
0.060234,0.545,-0.616,-0.366,-6.652,-25.268,11.718,1
0.06873,0.54,-0.598,-0.361,-4.333,-24.108,11.169,1
0.075752,0.544,-0.594,-0.351,-1.953,-22.827,10.314,1
0.084556,0.547,-0.595,-0.346,-0.793,-21.606,9.399,1
0.093837,0.55,-0.591,-0.344,-0.244,-19.775,8.361,1
0.100839,0.567,-0.596,-0.347,-0.183,-18.127,7.629,1
0.109663,0.576,-0.596,-0.353,-2.197,-16.418,6.713,1
0.118012,0.582,-0.595,-0.362,-5.92,-14.953,6.164,1
0.125199,0.593,-0.598,-0.372,-9.399,-13.61,5.615,1
0.133626,0.6,-0.599,-0.383,-13.122,-12.207,5.126,1
0.142647,0.604,-0.599,-0.392,-15.075,-11.23,4.577,1
0.151154,0.62,-0.605,-0.403,-15.991,-10.498,3.967,1
0.160613,0.637,-0.612,-0.417,-15.991,-9.887,3.54,1
0.167625,0.64,-0.619,-0.416,-15.319,-9.643,2.807,1
0.176763,0.644,-0.622,-0.431,-13.427,-9.338,2.685,1
0.184215,0.651,-0.626,-0.44,-10.131,-9.094,2.136,1
0.193508,0.636,-0.64,-0.46,-9.643,-8.056,1.953,1
0.201853,0.633,-0.653,-0.482,-12.634,-7.08,1.403,1
0.210814,0.647,-0.651,-0.51,-16.357,-6.591,1.22,1
0.217996,0.661,-0.67,-0.561,-19.714,-5.737,1.281,1
0.22574,0.672,-0.682,-0.577,-26.916,-5.676,1.647,1
0.235016,0.691,-0.675,-0.605,-32.409,-5.737,2.319,1
0.242862,0.714,-0.646,-0.597,-32.226,-7.568,3.295,1
0.252027,0.719,-0.632,-0.621,-27.465,-9.399,4.211,1
0.260111,0.692,-0.62,-0.603,-22.277,-11.047,4.943,1
0.267772,0.661,-0.613,-0.615,-16.357,-13.061,5.187,1
0.276115,0.634,-0.61,-0.604,-12.451,-14.282,5.615,1
0.285668,0.631,-0.61,-0.61,-10.864,-16.113,5.31,1
0.294476,0.619,-0.6,-0.59,-8.178,-17.15,5.126,1
0.30183,0.604,-0.59,-0.572,-6.469,-18.493,4.577,1
0.310834,0.589,-0.566,-0.544,-0.122,-19.958,4.15,1
0.319948,0.56,-0.573,-0.524,7.385,-21.789,3.295,1
0.328532,0.552,-0.571,-0.513,9.582,-22.216,2.441,1
0.335541,0.549,-0.571,-0.501,9.277,-23.071,1.464,1
0.343359,0.565,-0.583,-0.49,8.239,-23.437,0.732,1
0.352439,0.584,-0.591,-0.478,6.164,-24.414,-0.244,1
0.36099,0.593,-0.605,-0.464,4.15,-24.841,-1.159,1
0.3678,0.606,-0.601,-0.455,3.601,-25.573,-2.563,1
0.375603,0.6,-0.613,-0.42,5.371,-26.672,-3.845,1
0.384831,0.601,-0.627,-0.398,7.507,-27.221,-5.31,1
0.392363,0.586,-0.63,-0.352,11.535,-27.404,-7.08,1
0.400306,0.572,-0.648,-0.327,15.38,-27.343,-8.178,1
0.410024,0.558,-0.685,-0.278,17.089,-26.733,-9.643,1
0.418513,0.541,-0.706,-0.24,15.747,-25.39,-10.864,1
0.426094,0.496,-0.741,-0.188,10.986,-22.644,-11.962,1
0.434713,0.487,-0.758,-0.146,3.601,-18.981,-13.183,1
0.444277,0.432,-0.775,-0.108,-1.708,-15.563,-14.831,1
0.452659,0.379,-0.789,-0.073,-1.281,-10.864,-15.747,1
0.461144,0.332,-0.801,-0.048,1.22,-7.385,-16.662,1
0.46743,0.302,-0.836,-0.014,4.882,-2.563,-17.456,1
0.475526,0.292,-0.869,0.013,9.399,1.586,-17.761,1
0.483356,0.265,-0.915,0.032,13.061,6.347,-17.761,1
0.491983,0.201,-0.969,0.059,14.648,11.657,-16.906,1
0.500978,0.17,-1.02,0.084,16.418,18.249,-15.075,1
0.508649,0.161,-1.064,0.091,19.042,23.864,-13.0,1
0.516055,0.106,-1.122,0.101,18.676,30.029,-10.131,1
0.524725,0.054,-1.163,0.116,16.296,36.193,-6.713,1
0.534375,0.063,-1.195,0.125,18.127,42.846,-1.586,1
0.542682,0.021,-1.229,0.135,22.644,48.4,3.356,1
0.548098,-0.044,-1.262,0.137,24.719,54.321,9.216,1
0.556766,-0.098,-1.277,0.134,26.489,61.889,16.296,1
0.565718,-0.206,-1.297,0.121,30.639,68.115,23.071,1
0.574601,-0.25,-1.302,0.097,27.221,75.5,30.395,1
0.581751,-0.279,-1.299,0.087,32.47,82.092,38.391,1
0.589187,-0.374,-1.32,0.076,42.663,87.89,47.241,1
0.597902,-0.421,-1.339,0.048,53.283,93.749,58.227,1
0.604063,-0.484,-1.351,0.033,60.913,98.754,68.603,1
0.612239,-0.585,-1.365,0.004,65.734,103.088,79.772,1
0.620401,-0.704,-1.375,-0.018,67.749,108.032,91.857,1
0.628722,-0.811,-1.378,-0.063,66.284,112.67,104.492,1
0.635592,-0.918,-1.375,-0.086,62.377,117.492,117.126,1
0.645467,-1.107,-1.37,-0.138,50.598,122.802,130.31,1
0.652336,-1.198,-1.323,-0.174,40.344,128.967,146.911,1
0.661592,-1.363,-1.285,-0.184,45.349,133.911,159.667,1
0.667599,-1.504,-1.291,-0.238,47.79,136.596,173.278,1
0.676035,-1.618,-1.262,-0.243,52.49,141.601,187.194,1
0.684185,-1.811,-1.227,-0.316,59.509,143.92,201.293,1
0.692574,-1.98,-1.192,-0.331,69.702,146.789,219.299,1
0.701672,-2.153,-1.142,-0.409,83.129,147.705,235.351,1
0.710167,-2.329,-1.139,-0.437,96.191,147.521,255.615,1
0.717738,-2.584,-1.163,-0.541,105.285,146.667,278.259,1
0.726444,-2.79,-1.168,-0.584,110.412,145.019,300.17,1
0.733304,-3.014,-1.21,-0.717,114.746,141.662,327.209,1
0.74296,-3.214,-1.215,-0.798,122.253,139.099,350.707,1
0.750489,-3.586,-1.237,-0.928,133.911,131.286,380.554,1
0.758326,-3.882,-1.238,-1.033,155.883,122.375,407.714,1
0.767565,-4.25,-1.255,-1.188,181.274,107.604,436.462,1
0.775193,-4.635,-1.257,-1.338,218.749,87.158,472.412,1
0.782564,-5.174,-1.253,-1.507,245.178,62.622,504.272,1
0.791077,-5.662,-1.256,-1.641,261.413,31.066,541.992,1
0.799408,-6.333,-1.239,-1.791,258.911,0.793,574.584,1
0.808429,-6.956,-1.195,-1.88,244.934,-36.132,612.548,1
0.815526,-7.8,-1.114,-1.988,227.844,-70.556,644.714,1
0.825172,-8.592,-1.027,-2.066,204.711,-112.609,681.335,1
0.833994,-9.776,-0.88,-2.146,184.448,-157.714,715.087,1
0.841929,-11.323,-0.678,-2.232,176.33,-208.74,746.215,1
0.851049,-12.863,-0.452,-2.239,200.561,-268.493,773.132,1
0.857826,-14.113,-0.253,-2.17,254.76,-331.481,792.846,1
0.866157,-15.754,-0.027,-1.956,334.96,-406.433,806.762,1
0.875742,-15.994,0.026,-1.711,432.006,-505.554,814.819,1
0.884471,-15.999,-0.005,-1.381,490.966,-595.275,816.284,1
0.891822,-15.999,0.101,-0.841,529.296,-697.448,810.119,1
0.901864,-15.999,0.252,-0.367,540.283,-792.48,796.752,1
0.908881,-15.999,0.537,0.225,537.414,-879.028,780.578,1
0.917862,-15.999,0.787,0.632,554.687,-962.463,756.713,1
0.925749,-15.999,1.09,1.099,584.533,-1039.672,723.632,1
0.935176,-15.999,1.427,1.378,606.262,-1103.149,685.668,1
0.942487,-15.999,2.051,1.757,634.216,-1162.658,634.033,1
0.950578,-15.999,2.538,2.049,663.269,-1226.806,556.152,1
0.957697,-15.999,3.121,2.573,692.138,-1266.54,469.055,1
0.966946,-15.999,3.654,3.261,763.732,-1290.771,338.439,1
0.975837,-15.999,3.665,3.269,899.475,-1302.856,164.062,1
0.982978,-15.999,3.387,3.718,917.907,-1279.724,7.568,1
0.991543,-15.999,2.869,3.825,883.544,-1229.187,-142.517,1
1.000208,-15.999,2.589,4.098,859.008,-1150.756,-293.701,1
1.007895,-15.999,2.213,4.063,852.111,-1070.373,-406.249,1
1.016163,-15.999,1.445,3.86,835.815,-953.124,-514.16,1
1.023309,-15.999,0.805,3.374,765.563,-854.186,-584.533,1
1.031937,-15.999,0.397,3.18,649.047,-750.183,-631.835,1
1.040418,-15.619,0.217,2.892,516.662,-645.751,-666.442,1
1.048591,-14.409,0.145,2.728,446.228,-568.969,-683.288,1
1.055585,-13.291,-0.009,2.598,405.517,-506.835,-692.993,1
1.064216,-12.273,-0.229,2.518,395.629,-444.58,-695.556,1
1.072023,-11.321,-0.483,2.424,397.277,-383.422,-691.894,1
1.080799,-10.466,-0.821,2.287,386.657,-324.157,-681.335,1
1.088527,-9.752,-1.06,2.195,345.886,-269.042,-666.015,1
1.096558,-9.131,-1.244,2.141,314.331,-217.285,-646.24,1
1.104693,-8.325,-1.413,2.068,282.165,-170.043,-619.995,1
1.111765,-7.597,-1.556,1.971,267.578,-132.934,-599.853,1
1.118494,-7.022,-1.657,1.861,251.098,-97.534,-574.34,1
1.126776,-6.381,-1.791,1.761,240.722,-59.631,-546.936,1
1.132752,-5.728,-1.937,1.553,207.031,-29.479,-518.981,1
1.140248,-5.255,-1.951,1.466,164.916,-1.098,-490.051,1
1.148447,-4.71,-1.947,1.341,148.193,19.653,-461.975,1
1.155437,-4.261,-1.932,1.271,162.292,37.109,-433.471,1
1.163308,-3.923,-1.936,1.136,185.668,51.513,-404.663,1
1.171268,-3.736,-1.919,1.046,202.575,65.185,-375.732,1
1.178294,-3.557,-1.899,0.94,203.186,78.063,-345.886,1
1.18648,-3.353,-1.859,0.882,197.021,90.393,-316.284,1
1.194842,-3.123,-1.832,0.794,182.8,101.074,-287.658,1
1.201927,-2.884,-1.79,0.747,165.71,110.534,-259.887,1
1.208655,-2.647,-1.748,0.687,150.878,117.675,-233.703,1
1.216687,-2.449,-1.702,0.636,139.343,123.352,-209.289,1
1.22348,-2.252,-1.669,0.551,124.389,128.051,-186.584,1
1.231061,-2.085,-1.642,0.502,105.163,131.774,-165.71,1
1.239151,-1.903,-1.606,0.424,85.388,133.605,-146.423,1
1.246199,-1.777,-1.536,0.369,71.533,133.239,-131.469,1
1.253215,-1.671,-1.504,0.291,59.997,133.3,-114.379,1
1.261149,-1.528,-1.451,0.234,41.625,129.333,-98.999,1
1.268403,-1.431,-1.399,0.181,27.832,126.281,-84.411,1
1.276726,-1.329,-1.352,0.158,18.554,120.3,-71.105,1
1.28375,-1.231,-1.31,0.134,18.859,115.6,-57.556,1
1.291582,-1.042,-1.269,0.123,21.85,107.788,-44.982,1
1.300325,-0.895,-1.237,0.116,32.043,101.623,-30.761,1
1.308696,-0.769,-1.186,0.12,41.931,94.543,-18.493,1
1.315813,-0.689,-1.142,0.149,40.466,89.111,-6.896,1
1.324292,-0.481,-1.054,0.15,51.94,85.815,4.089,1
1.331014,-0.377,-0.988,0.167,74.768,79.101,14.587,1
1.338631,-0.31,-0.954,0.171,90.759,74.707,25.512,1
1.347212,-0.185,-0.917,0.174,96.008,69.335,38.085,1
1.353968,-0.053,-0.87,0.191,97.045,66.284,48.217,1
1.361586,0.075,-0.812,0.22,100.158,62.194,57.556,1
1.370415,0.19,-0.757,0.27,106.567,59.448,66.467,1
1.378302,0.293,-0.688,0.294,114.624,55.969,74.707,1
1.386081,0.365,-0.603,0.348,124.328,53.1,82.397,1
1.393921,0.446,-0.533,0.367,132.934,50.476,89.111,1
1.402153,0.507,-0.474,0.402,139.16,47.424,96.374,1
1.410257,0.567,-0.417,0.424,141.845,44.982,102.294,1
1.417838,0.59,-0.354,0.462,142.761,43.151,107.177,1
1.424917,0.594,-0.294,0.48,139.404,41.564,112.365,1
1.434647,0.581,-0.239,0.509,133.422,41.137,116.21,1
1.441705,0.531,-0.211,0.501,118.774,41.87,119.689,1
1.449129,0.541,-0.173,0.519,101.257,42.236,121.948,1
1.456894,0.548,-0.116,0.505,88.5,43.273,123.413,1
1.465334,0.631,-0.083,0.5,80.871,42.541,124.694,1
1.471823,0.735,-0.058,0.496,81.237,41.687,126.342,1
1.479883,0.754,-0.037,0.483,87.28,39.733,127.868,1
1.487023,0.694,-0.028,0.483,93.566,38.513,129.943,1
1.494948,0.611,-0.021,0.489,97.229,36.987,132.324,1
1.503014,0.567,-0.01,0.487,101.257,35.766,135.07,1
1.5105,0.531,0.002,0.491,104.248,34.423,137.512,1
1.518787,0.471,-0.01,0.483,101.928,33.935,140.258,1
1.525864,0.379,0.006,0.492,93.505,33.691,142.517,1
1.534497,0.348,0.032,0.499,88.073,34.484,144.348,1
1.541237,0.305,0.049,0.524,86.73,34.362,145.507,1
1.548621,0.308,0.071,0.54,89.66,35.888,146.789,1
1.555471,0.309,0.095,0.561,94.543,35.583,148.254,1
1.563086,0.301,0.117,0.581,103.515,36.621,149.963,1
1.571067,0.292,0.129,0.579,111.267,36.315,151.916,1
1.579054,0.268,0.129,0.591,116.271,37.17,154.113,1
1.586556,0.263,0.111,0.57,111.328,38.33,156.372,1
1.594182,0.26,0.089,0.556,97.717,40.832,158.813,1
1.602099,0.304,0.063,0.526,76.354,42.968,161.254,1
1.609784,0.392,0.056,0.509,53.649,46.203,164.001,1
1.618081,0.476,0.088,0.493,38.513,47.79,166.931,1
1.624935,0.52,0.149,0.501,35.888,48.339,170.104,1
1.63327,0.562,0.198,0.5,43.334,46.874,172.668,1
1.639853,0.572,0.248,0.508,56.03,44.677,174.865,1
1.64809,0.583,0.279,0.512,68.054,42.053,176.513,1
1.65578,0.565,0.304,0.523,74.951,39.672,178.344,1
1.662929,0.56,0.315,0.525,74.951,38.391,180.053,1
1.670897,0.547,0.338,0.542,71.655,37.536,182.006,1
1.678356,0.524,0.37,0.554,67.626,37.658,183.837,1
1.685904,0.505,0.399,0.562,65.307,37.658,185.974,1
1.692566,0.472,0.432,0.573,62.194,38.208,187.133,1
1.700196,0.445,0.468,0.586,59.936,38.635,188.354,1
1.708339,0.422,0.516,0.604,60.668,39.367,189.453,1
1.715824,0.369,0.554,0.613,63.72,39.245,190.063,1
1.724168,0.333,0.583,0.624,67.443,39.489,190.734,1
1.731952,0.3,0.61,0.627,69.946,40.039,191.162,1
1.740156,0.276,0.622,0.637,69.458,40.954,191.711,1
1.749413,0.235,0.63,0.636,64.758,42.602,192.077,1
1.757473,0.194,0.63,0.627,55.358,45.288,192.443,1
1.764783,0.15,0.618,0.613,43.884,47.912,193.115,1
1.773496,0.149,0.612,0.6,28.564,51.269,194.335,1
1.780464,0.155,0.638,0.606,17.7,53.894,195.434,1
1.788424,0.151,0.683,0.617,12.023,56.701,196.289,1
1.797371,0.105,0.762,0.641,12.695,59.265,196.777,1
1.8038,0.061,0.842,0.669,19.47,61.218,196.594,1
1.812095,0.022,0.869,0.669,25.634,63.171,195.678,1
1.819031,0.021,0.909,0.67,22.705,65.612,194.702,1
1.827781,-0.021,0.94,0.679,19.409,68.603,193.725,1
1.833823,-0.049,0.965,0.677,13.427,72.265,192.81,1
1.841453,-0.056,0.976,0.66,4.455,77.026,191.589,1
1.850449,-0.074,0.977,0.63,-8.483,81.359,190.307,1
1.859022,-0.09,0.99,0.604,-20.751,86.791,189.147,1
1.866639,-0.107,1.021,0.598,-32.104,91.674,187.255,1
1.874854,-0.137,1.064,0.6,-35.095,95.52,185.485,1
1.881872,-0.163,1.101,0.607,-35.034,99.731,182.861,1
1.89012,-0.207,1.136,0.606,-37.902,104.431,179.931,1
1.897951,-0.245,1.17,0.62,-42.907,109.252,177.49,1
1.905881,-0.256,1.221,0.622,-46.386,114.135,174.682,1
1.913986,-0.259,1.269,0.62,-45.349,118.53,171.508,1
1.92091,-0.258,1.304,0.61,-40.588,122.131,168.457,1
1.92849,-0.258,1.333,0.608,-36.437,126.098,165.1,1
1.936673,-0.289,1.363,0.584,-39.062,130.92,161.56,1
1.946159,-0.318,1.403,0.579,-50.415,136.84,157.165,1
1.952241,-0.317,1.443,0.57,-58.898,142.517,152.099,1
1.961247,-0.333,1.48,0.542,-67.199,148.193,146.85,1
1.969616,-0.326,1.514,0.508,-74.768,154.541,140.502,1
1.976031,-0.33,1.544,0.461,-77.697,159.606,134.643,1
1.983607,-0.267,1.551,0.401,-75.744,162.658,128.112,1
1.992653,-0.342,1.526,0.37,-72.57,166.381,123.168,1
1.999587,-0.375,1.574,0.293,-69.824,169.25,117.065,1
2.007478,-0.411,1.628,0.26,-60.852,169.738,110.961,1
2.016206,-0.433,1.634,0.218,-44.067,171.325,104.309,1
2.023935,-0.417,1.607,0.189,-35.278,172.668,99.792,1
2.032539,-0.412,1.579,0.134,-33.935,174.621,95.703,1
2.039254,-0.465,1.571,0.085,-43.64,177.673,90.454,1
2.048738,-0.475,1.569,0.016,-59.326,180.664,85.815,1
2.057431,-0.473,1.588,-0.052,-71.35,181.701,79.101,1
2.065061,-0.451,1.58,-0.109,-73.608,183.166,73.181,1
2.073211,-0.468,1.572,-0.181,-71.594,182.25,66.467,1
2.082226,-0.447,1.558,-0.237,-67.26,181.701,61.34,1
2.089585,-0.445,1.56,-0.313,-63.842,180.786,55.297,1
2.097495,-0.468,1.558,-0.418,-66.406,179.565,50.476,1
2.106383,-0.453,1.576,-0.51,-70.007,176.757,43.823,1
2.114919,-0.434,1.58,-0.617,-71.533,173.706,37.475,1
2.123853,-0.436,1.588,-0.737,-70.312,169.433,31.311,1
2.132747,-0.405,1.583,-0.854,-70.251,163.146,24.475,1
2.14044,-0.391,1.575,-0.913,-65.856,157.47,18.92,1
2.149099,-0.336,1.551,-0.97,-57.983,150.634,13.183,1
2.156194,-0.287,1.522,-1.049,-51.635,144.042,8.483,1
2.165147,-0.253,1.5,-1.088,-46.569,136.779,3.662,1
2.17329,-0.256,1.466,-1.13,-37.414,128.417,-1.098,1
2.182128,-0.243,1.432,-1.185,-32.897,120.483,-5.004,1
2.19108,-0.136,1.385,-1.268,-36.682,110.961,-9.277,1
2.198948,-0.17,1.361,-1.313,-34.729,104.431,-12.207,1
2.206659,-0.106,1.322,-1.37,-28.991,93.2,-15.319,1
2.21599,-0.033,1.25,-1.372,-15.38,83.984,-17.333,1
2.223654,-0.026,1.188,-1.334,3.906,73.425,-18.615,1
2.231965,0.043,1.07,-1.275,20.019,62.683,-19.042,1
2.240676,0.062,0.985,-1.194,27.709,56.396,-18.432,1
2.248481,0.061,0.915,-1.132,25.573,49.987,-16.723,1
2.255808,0.048,0.888,-1.087,18.493,45.532,-15.197,1
2.26465,0.058,0.875,-1.052,13.488,40.588,-13.854,1
2.273695,0.073,0.864,-1.016,13.122,35.217,-12.756,1
2.280747,0.079,0.843,-0.983,16.296,29.968,-11.779,1
2.291193,0.084,0.812,-0.935,19.714,24.719,-10.192,1
2.29785,0.081,0.782,-0.881,20.507,20.141,-8.666,1
2.307097,0.084,0.749,-0.825,21.179,16.113,-6.713,1
2.315928,0.081,0.732,-0.774,21.423,12.939,-4.821,1
2.323179,0.069,0.727,-0.718,22.766,9.643,-2.441,1
2.332161,0.082,0.728,-0.666,26.794,6.53,0.0,1
2.33876,0.083,0.733,-0.616,30.212,4.211,2.075,1
2.349504,0.078,0.739,-0.575,31.982,2.258,3.723,1
2.356986,0.077,0.747,-0.534,29.846,0.915,5.676,1
2.365764,0.079,0.763,-0.491,25.695,-0.366,7.202,1
2.374369,0.079,0.78,-0.448,23.132,-1.037,8.483,1
2.381345,0.086,0.787,-0.39,22.033,-1.77,9.643,1
2.389111,0.087,0.79,-0.354,21.423,-2.197,10.559,1
2.398541,0.062,0.802,-0.337,18.798,-2.502,12.023,1
2.407106,0.058,0.82,-0.308,16.967,-2.746,12.634,1
2.414868,0.085,0.83,-0.283,17.089,-3.417,13.793,1
2.422417,0.034,0.863,-0.257,18.188,-3.723,14.404,1
2.430464,0.049,0.869,-0.224,21.179,-4.028,14.648,1
2.437532,0.045,0.873,-0.206,22.46,-4.15,15.441,1
2.446518,0.036,0.872,-0.187,22.521,-4.211,16.052,1
2.453457,0.033,0.876,-0.167,21.667,-3.845,16.601,1
2.462136,0.028,0.881,-0.157,20.874,-3.54,17.089,1
2.469267,0.028,0.895,-0.15,20.812,-3.601,17.456,1
2.47785,0.018,0.899,-0.142,20.874,-3.173,18.005,1
2.486217,0.013,0.906,-0.147,20.324,-2.746,18.31,1
2.493623,0.0,0.917,-0.149,20.385,-2.746,18.493,1
2.502665,-0.006,0.939,-0.152,22.888,-3.173,18.859,1
2.510034,-0.008,0.938,-0.15,25.085,-3.356,18.737,1
2.518993,0.0,0.94,-0.152,25.573,-3.479,19.104,1
2.526371,0.005,0.935,-0.143,24.475,-3.784,19.348,1
2.535343,0.013,0.938,-0.138,22.216,-3.356,19.653,1
2.543301,0.023,0.942,-0.135,18.859,-2.929,19.958,1
2.550311,0.029,0.948,-0.131,16.418,-2.563,20.324,1
2.557865,0.032,0.962,-0.128,14.587,-2.502,20.568,1
2.567133,0.028,0.974,-0.128,13.549,-2.441,20.996,1
2.576012,0.022,0.986,-0.128,11.23,-2.685,20.812,1
2.581807,0.024,0.998,-0.134,10.07,-2.685,20.629,1
2.589554,0.029,1.009,-0.127,10.498,-2.99,20.568,1
2.597982,0.033,1.013,-0.134,11.535,-3.051,20.507,1
2.604864,0.03,1.021,-0.128,13.061,-3.356,19.958,1
2.612768,0.024,1.031,-0.126,14.16,-3.601,19.836,1
2.62046,0.019,1.03,-0.125,15.258,-3.723,19.348,1
2.628235,0.011,1.038,-0.125,14.892,-4.089,19.531,1
2.636115,0.01,1.05,-0.125,13.793,-4.089,19.042,1
2.643219,0.005,1.057,-0.132,12.023,-4.211,18.615,1
2.65083,0.005,1.062,-0.128,9.582,-4.15,18.066,1
2.65976,0.009,1.069,-0.13,6.042,-4.089,17.456,1
2.667819,0.011,1.073,-0.124,3.845,-4.333,16.906,1
2.675992,0.02,1.084,-0.12,3.54,-4.516,16.113,1
2.683775,0.021,1.083,-0.109,5.004,-4.943,15.686,1
2.691919,0.024,1.091,-0.105,6.469,-5.004,15.258,1
2.699341,0.023,1.091,-0.104,7.324,-5.493,14.526,1
2.706252,0.021,1.096,-0.097,7.202,-5.554,13.793,1
2.715441,0.02,1.107,-0.1,6.652,-5.615,13.61,1
2.723787,0.02,1.111,-0.099,5.31,-5.859,12.573,1
2.73053,0.02,1.123,-0.103,3.234,-5.798,11.84,1
2.738415,0.022,1.126,-0.095,3.54,-6.164,10.986,1
2.747903,0.029,1.125,-0.099,5.065,-6.652,10.437,1
2.75476,0.036,1.124,-0.089,7.263,-7.019,9.643,1
2.76267,0.035,1.122,-0.082,8.789,-6.958,8.911,1
2.771689,0.031,1.124,-0.067,9.643,-7.263,8.178,1
2.779572,0.029,1.125,-0.064,8.911,-7.263,7.385,1
2.786398,0.022,1.129,-0.057,7.995,-7.202,6.774,1
2.794379,0.024,1.131,-0.052,7.324,-7.202,5.859,1
2.80193,0.022,1.133,-0.039,6.835,-6.958,4.821,1
2.810627,0.015,1.128,-0.025,6.286,-7.202,4.15,1
2.818961,0.01,1.12,-0.011,5.126,-6.591,2.99,1
2.826468,0.007,1.111,0.004,1.953,-5.92,2.197,1
2.834525,0.007,1.097,0.017,-0.488,-5.004,1.464,1
2.842352,0.011,1.092,0.025,-1.281,-4.699,1.098,1
2.851069,0.01,1.084,0.028,-0.976,-4.089,0.427,1
2.858964,0.003,1.08,0.034,2.014,-3.54,0.0,1
2.867743,-0.001,1.076,0.033,4.272,-3.234,-0.305,1
2.875704,-0.007,1.062,0.032,5.859,-2.807,-0.732,1
2.885214,-0.006,1.038,0.019,2.563,-2.685,-1.159,1
2.892778,0.006,1.036,0.041,-0.61,-0.122,-1.159,1
2.899945,-0.032,1.054,0.03,0.122,-1.281,-1.77,1
2.907654,-0.007,1.031,0.059,4.272,0.427,-1.77,1
2.915305,0.006,1.017,0.054,2.563,0.0,-1.831,1
2.924233,0.003,1.012,0.073,0.915,1.159,-1.586,1
2.933066,0.01,1.007,0.08,-1.342,2.197,-1.708,1
2.941133,0.006,1.004,0.09,-1.586,3.417,-1.953,1
2.949314,0.0,1.008,0.095,-1.281,4.394,-2.014,1
2.956632,0.0,1.001,0.109,0.61,5.187,-2.014,1
2.964601,-0.005,1.006,0.114,2.868,5.798,-2.258,1
2.972792,-0.019,1.001,0.131,4.699,6.408,-2.258,1
2.980261,-0.016,1.008,0.148,5.615,7.629,-2.502,1
2.988659,-0.014,1.012,0.175,4.638,8.666,-2.38,1
2.995849,-0.02,1.029,0.222,4.638,10.375,-2.319,1
3.004411,-0.013,1.039,0.271,5.859,11.718,-1.831,1
3.013583,-0.027,1.051,0.33,8.911,13.61,-1.586,1
3.020526,-0.028,1.076,0.403,14.953,15.869,-1.342,1
3.029412,-0.026,1.102,0.489,20.935,18.31,-1.098,1
3.036028,-0.047,1.137,0.578,26.489,21.423,-1.281,1
3.04554,-0.078,1.163,0.659,32.409,25.878,-1.831,1
3.053051,-0.113,1.185,0.737,35.644,30.212,-2.807,1
3.059892,-0.124,1.187,0.816,38.391,34.79,-3.845,1
3.068131,-0.127,1.198,0.905,41.198,39.855,-4.943,1
3.076478,-0.131,1.192,0.984,44.677,45.532,-6.164,1
3.084517,-0.124,1.18,1.069,47.424,51.513,-7.202,1
3.09224,-0.119,1.166,1.155,48.889,59.753,-8.117,1
3.100586,-0.11,1.121,1.237,44.86,69.152,-8.728,1
3.10861,-0.109,1.095,1.286,35.278,78.247,-8.666,1
3.115397,-0.126,1.079,1.337,23.132,88.317,-8.422,1
3.124666,-0.156,1.053,1.326,8.728,98.571,-8.666,1
3.1317,-0.159,1.053,1.357,-9.765,108.215,-8.422,1
3.140987,-0.209,1.071,1.387,-18.981,119.934,-8.239,1
3.148255,-0.268,1.095,1.383,-22.399,128.845,-9.094,1
3.155312,-0.307,1.088,1.375,-25.268,139.953,-10.131,1
3.164001,-0.331,1.086,1.314,-30.395,148.071,-11.169,1
3.171437,-0.359,1.077,1.302,-34.423,157.836,-11.901,1
3.179816,-0.385,1.072,1.207,-44.25,166.32,-13.061,1
3.188821,-0.437,1.087,1.176,-50.476,175.415,-14.099,1
3.197388,-0.454,1.11,1.085,-58.044,181.213,-15.502,1
3.204743,-0.495,1.127,1.019,-63.354,190.124,-17.517,1
3.212485,-0.521,1.142,0.915,-70.068,195.617,-19.958,1
3.221079,-0.553,1.172,0.857,-72.937,201.965,-21.728,1
3.227595,-0.579,1.206,0.773,-73.669,205.261,-24.291,1
3.235959,-0.615,1.25,0.73,-70.495,209.106,-26.367,1
3.244385,-0.649,1.303,0.656,-67.016,212.219,-29.113,1
3.25095,-0.713,1.36,0.596,-62.438,214.599,-32.104,1
3.259318,-0.746,1.394,0.526,-58.227,216.735,-35.217,1
3.268748,-0.773,1.416,0.472,-58.471,218.566,-39.001,1
3.276245,-0.789,1.443,0.432,-64.331,221.374,-42.114,1
3.283843,-0.759,1.448,0.395,-70.007,222.717,-44.616,1
3.292488,-0.832,1.493,0.339,-69.763,227.539,-47.851,1
3.301764,-0.873,1.497,0.247,-84.35,228.454,-52.307,1
3.308726,-0.87,1.532,0.192,-107.055,231.628,-57.25,1
3.317136,-0.917,1.581,0.159,-121.765,232.177,-62.622,1
3.323916,-0.896,1.635,0.113,-127.014,233.032,-69.152,1
3.333457,-0.896,1.678,0.066,-129.211,231.933,-75.012,1
3.341193,-0.932,1.702,0.01,-131.347,231.201,-82.763,1
3.349939,-0.947,1.748,-0.05,-131.713,228.759,-91.918,1
3.357468,-0.969,1.765,-0.09,-127.929,226.44,-99.853,1
3.365304,-1.001,1.768,-0.136,-126.525,223.815,-108.825,1
3.373904,-1.032,1.754,-0.187,-134.033,221.679,-116.943,1
3.381935,-1.093,1.736,-0.229,-151.123,220.153,-127.258,1
3.391343,-1.113,1.704,-0.254,-169.799,218.078,-135.864,1
3.400233,-1.165,1.673,-0.3,-186.218,215.82,-146.606,1
3.4094,-1.218,1.671,-0.323,-188.354,211.425,-156.982,1
3.418719,-1.241,1.653,-0.392,-170.104,206.359,-165.283,1
3.426867,-1.259,1.639,-0.475,-142.822,201.538,-172.18,1
3.435814,-1.166,1.609,-0.575,-116.516,196.594,-177.49,1
3.443461,-1.285,1.594,-0.665,-100.646,189.208,-182.8,1
3.452616,-1.224,1.555,-0.731,-95.825,184.204,-188.415,1
3.460454,-1.247,1.538,-0.774,-98.205,178.1,-193.847,1
3.468906,-1.232,1.529,-0.815,-97.595,171.386,-200.5,1
3.476805,-1.216,1.492,-0.86,-91.613,161.499,-207.58,1
3.486159,-1.228,1.458,-0.868,-85.021,154.479,-213.195,1
3.493043,-1.201,1.41,-0.912,-78.247,146.789,-218.627,1
3.500795,-1.213,1.379,-0.921,-68.42,138.0,-224.426,1
3.510128,-1.153,1.35,-0.938,-57.678,129.577,-229.187,1
3.517347,-1.191,1.316,-0.921,-33.813,121.948,-233.703,1
3.526564,-1.137,1.239,-0.945,-14.465,115.173,-236.694,1
3.536194,-1.079,1.132,-0.956,-5.004,110.046,-238.708,1
3.544122,-1.019,1.078,-1.001,-15.991,106.262,-240.234,1
3.551221,-0.968,1.038,-0.999,-31.738,103.393,-241.394,1
3.561922,-0.925,1.007,-1.012,-50.354,99.67,-243.103,1
3.569499,-0.897,0.973,-1.016,-67.687,96.252,-244.934,1
3.577016,-0.863,0.944,-1.033,-83.923,90.942,-246.276,1
3.586411,-0.839,0.918,-1.047,-96.496,85.449,-247.741,1
3.595589,-0.823,0.903,-1.062,-108.337,79.589,-249.145,1
3.602659,-0.806,0.914,-1.075,-112.365,72.814,-250.488,1
3.610697,-0.797,0.908,-1.078,-108.886,64.88,-251.22,1
3.619265,-0.75,0.902,-1.086,-99.06,56.518,-251.831,1
3.626998,-0.746,0.894,-1.083,-89.355,49.133,-252.136,1
3.635957,-0.704,0.882,-1.082,-77.392,41.442,-252.624,1
3.644739,-0.708,0.868,-1.066,-65.734,34.851,-252.99,1
3.652256,-0.801,0.841,-1.066,-59.692,29.907,-253.051,1
3.660739,-0.77,0.817,-1.066,-62.683,25.573,-253.478,1
3.668008,-0.747,0.806,-1.066,-65.551,21.423,-254.272,1
3.675352,-0.776,0.794,-1.067,-67.26,16.967,-255.859,1
3.684697,-0.812,0.762,-1.062,-65.917,12.817,-256.835,1
3.692942,-0.818,0.729,-1.057,-62.194,7.69,-258.361,1
3.700482,-0.795,0.683,-1.054,-57.8,3.967,-259.094,1
3.709719,-0.769,0.622,-1.062,-52.429,-0.793,-259.521,1
3.717625,-0.729,0.575,-1.057,-47.302,-4.15,-259.399,1
3.725028,-0.692,0.492,-1.043,-43.457,-7.324,-258.483,1
3.73436,-0.664,0.418,-1.022,-42.724,-9.399,-257.08,1
3.744809,-0.604,0.347,-1.007,-38.574,-12.573,-255.31,1
3.753269,-0.541,0.288,-0.973,-44.006,-13.305,-253.173,1
3.762758,-0.562,0.214,-0.961,-54.199,-14.404,-250.61,1
3.769311,-0.55,0.16,-0.934,-65.124,-15.747,-248.168,1
3.778353,-0.53,0.131,-0.904,-68.481,-17.944,-245.727,1
3.785642,-0.515,0.096,-0.881,-65.429,-19.958,-244.201,1
3.795081,-0.497,0.048,-0.848,-60.607,-22.155,-242.248,1
3.803396,-0.494,0.0,-0.827,-57.067,-24.108,-239.929,1
3.810935,-0.498,-0.042,-0.802,-58.471,-25.817,-237.487,1
3.821066,-0.475,-0.084,-0.765,-63.659,-26.794,-234.863,1
3.829595,-0.464,-0.118,-0.74,-68.054,-28.137,-232.91,1
3.838266,-0.448,-0.156,-0.697,-69.763,-29.663,-230.285,1
3.846289,-0.456,-0.195,-0.643,-68.054,-31.005,-227.478,1
3.854648,-0.469,-0.221,-0.607,-63.598,-31.921,-224.609,1
3.862023,-0.466,-0.247,-0.583,-56.03,-33.142,-221.923,1
3.870238,-0.449,-0.268,-0.556,-44.006,-33.813,-219.116,1
3.878309,-0.437,-0.288,-0.537,-33.447,-34.423,-217.041,1
3.888779,-0.445,-0.3,-0.52,-22.033,-33.996,-215.27,1
3.897207,-0.432,-0.321,-0.498,-11.84,-33.813,-214.355,1
3.905358,-0.423,-0.337,-0.485,-1.708,-32.714,-213.806,1
3.9156,-0.37,-0.373,-0.483,3.662,-31.555,-213.317,1
3.924674,-0.285,-0.422,-0.469,0.061,-30.151,-212.707,1
3.932861,-0.267,-0.453,-0.448,-6.347,-27.893,-212.036,1
3.941258,-0.261,-0.477,-0.427,-11.962,-25.634,-211.303,1
3.94967,-0.28,-0.506,-0.414,-18.249,-22.644,-210.571,1
3.958633,-0.31,-0.543,-0.406,-29.724,-19.165,-209.045,1
3.967792,-0.338,-0.588,-0.401,-42.541,-15.747,-207.702,1
3.976143,-0.328,-0.655,-0.405,-60.485,-12.268,-205.261,1
3.985736,-0.31,-0.705,-0.403,-88.867,-8.483,-201.843,1
3.994352,-0.338,-0.748,-0.4,-114.685,-5.554,-198.12,1
4.001761,-0.382,-0.787,-0.403,-133.605,-4.028,-193.42,1
4.010049,-0.42,-0.819,-0.412,-144.775,-2.624,-188.293,1
4.019605,-0.473,-0.846,-0.419,-141.906,-3.051,-183.959,1
4.027866,-0.541,-0.882,-0.441,-130.126,-3.723,-178.894,1
4.036719,-0.596,-0.963,-0.469,-119.934,-3.723,-174.316,1
4.045489,-0.628,-1.061,-0.501,-119.262,-2.99,-168.884,1
4.05286,-0.663,-1.179,-0.54,-126.281,-1.525,-162.78,1
4.061898,-0.625,-1.294,-0.572,-139.404,-1.281,-155.334,1
4.069206,-0.577,-1.378,-0.583,-145.996,-1.281,-148.803,1
4.078715,-0.584,-1.493,-0.602,-148.376,-3.784,-140.38,1
4.086564,-0.555,-1.597,-0.604,-138.0,-6.103,-132.324,1
4.093804,-0.565,-1.672,-0.59,-116.394,-12.512,-123.168,1
4.103411,-0.533,-1.764,-0.571,-89.416,-17.211,-114.624,1
4.111622,-0.506,-1.868,-0.55,-54.504,-23.498,-104.248,1
4.120581,-0.497,-1.923,-0.516,-19.714,-28.808,-92.468,1
4.129392,-0.552,-2.049,-0.499,1.037,-33.203,-80.322,1
4.137557,-0.554,-2.136,-0.457,-4.272,-33.264,-66.894,1
4.145231,-0.575,-2.152,-0.422,-8.728,-35.339,-54.199,1
4.153523,-0.59,-2.103,-0.321,7.019,-37.109,-39.428,1
4.162493,-0.709,-2.146,-0.308,26.794,-39.672,-27.282,1
4.169213,-0.726,-2.155,-0.226,34.851,-39.611,-12.207,1
4.179639,-0.776,-2.146,-0.187,38.391,-40.771,0.122,1
4.189298,-0.845,-2.097,-0.074,52.246,-40.466,15.624,1
4.196846,-1.0,-2.062,-0.031,73.486,-41.32,32.104,1
4.205739,-1.066,-2.03,0.063,84.411,-39.001,47.912,1
4.213083,-1.133,-2.009,0.077,86.669,-38.024,60.974,1
4.221808,-1.254,-1.973,0.156,81.848,-33.569,76.599,1
4.2321,-1.32,-1.937,0.207,80.2,-31.555,90.332,1
4.240787,-1.403,-1.922,0.284,80.505,-25.512,110.046,1
4.249343,-1.521,-1.92,0.342,73.669,-20.568,126.525,1
4.258732,-1.683,-1.892,0.449,61.889,-14.526,141.418,1
4.265449,-1.993,-1.793,0.554,53.71,-4.577,158.508,1
4.273658,-2.193,-1.719,0.634,65.002,4.577,176.33,1
4.282092,-2.435,-1.647,0.694,79.467,15.136,192.687,1
4.290947,-2.663,-1.599,0.734,96.74,25.817,213.5,1
4.299515,-2.945,-1.563,0.752,105.285,39.428,234.374,1
4.307533,-3.272,-1.522,0.732,94.543,53.771,261.352,1
4.314686,-3.652,-1.465,0.687,69.641,72.998,291.259,1
4.325255,-4.001,-1.419,0.661,42.724,88.806,317.749,1
4.333242,-4.422,-1.383,0.608,16.174,111.328,351.074,1
4.341672,-4.811,-1.378,0.553,-2.868,134.277,388.793,1
4.34909,-5.284,-1.405,0.455,-13.244,155.639,424.255,1
4.357689,-5.82,-1.404,0.365,-20.935,176.33,461.669,1
4.364819,-6.487,-1.446,0.269,-33.691,203.674,509.948,1
4.372645,-7.063,-1.475,0.125,-31.738,223.999,555.48,1
4.3815,-8.023,-1.491,-0.022,-16.967,247.558,612.121,1
4.388675,-8.977,-1.435,-0.188,17.944,261.901,663.94,1
4.396284,-10.094,-1.394,-0.38,70.861,268.615,718.933,1
4.403626,-11.626,-1.351,-0.637,124.206,266.113,777.16,1
4.412828,-13.139,-1.284,-0.861,174.987,254.516,838.5,1
4.419603,-14.75,-1.146,-1.065,245.361,226.623,913.391,1
4.427455,-15.999,-0.916,-1.277,314.086,185.852,978.088,1
4.436259,-15.999,-0.57,-1.432,377.685,129.577,1040.649,1
4.442955,-15.999,-0.114,-1.561,427.49,57.495,1098.205,1
4.450547,-15.999,0.329,-1.555,451.11,-37.597,1158.63,1
4.458335,-15.999,0.802,-1.424,461.364,-110.229,1196.472,1
4.468806,-15.999,1.288,-1.126,490.356,-220.153,1242.004,1
4.476343,-15.999,1.808,-0.753,520.874,-336.791,1270.935,1
4.484281,-15.999,2.43,-0.221,566.223,-457.275,1288.146,1
4.493545,-15.999,2.815,0.322,631.652,-580.139,1282.348,1
4.501047,-15.999,3.143,1.016,701.354,-699.707,1261.352,1
4.510041,-15.999,3.419,2.066,751.098,-850.707,1215.271,1
4.517577,-15.999,3.545,3.098,785.583,-959.228,1158.325,1
4.526277,-15.999,3.85,4.04,755.92,-1070.19,1064.697,1
4.533854,-15.999,4.539,4.626,755.371,-1137.207,975.83,1
4.541417,-15.999,5.13,4.989,900.451,-1223.327,844.543,1
4.550992,-15.999,5.425,5.207,1120.971,-1309.875,688.537,1
4.557955,-15.999,5.098,5.331,1377.136,-1391.54,441.284,1
4.566935,-15.999,4.203,5.202,1514.953,-1411.559,190.551,1
4.574119,-15.999,2.895,4.468,1511.596,-1370.3,-60.913,1
4.581677,-15.999,1.932,3.9,1372.619,-1250.793,-315.063,1
4.588976,-15.999,1.261,3.381,1182.556,-1124.572,-478.576,1
4.598184,-15.999,0.941,3.117,966.918,-986.083,-594.299,1
4.605412,-15.999,0.671,2.8,750.61,-859.008,-671.264,1
4.614314,-15.999,0.395,2.407,529.174,-729.37,-721.008,1
4.621089,-15.999,0.277,2.296,385.436,-652.954,-740.783,1
4.629304,-15.836,0.195,2.466,334.655,-582.946,-746.337,1
4.638355,-14.77,0.026,2.473,368.713,-526.733,-745.666,1
4.646327,-13.459,-0.284,2.426,429.016,-452.453,-739.562,1
4.654754,-12.215,-0.706,2.344,444.519,-377.075,-727.416,1
4.662371,-11.219,-1.071,2.287,414.184,-310.546,-707.885,1
4.670876,-10.039,-1.41,2.304,350.707,-236.755,-675.842,1
4.678772,-8.731,-1.681,2.203,285.278,-181.884,-643.798,1
4.687612,-7.656,-1.842,2.174,218.078,-126.464,-602.6,1
4.6965,-6.776,-1.904,2.046,180.786,-89.233,-567.26,1
4.704745,-5.514,-1.807,1.884,183.227,-51.574,-527.832,1
4.712118,-4.881,-1.953,1.665,198.73,-29.052,-489.379,1
4.722517,-4.194,-1.969,1.456,225.708,0.549,-456.726,1
4.729796,-3.813,-1.926,1.221,243.591,21.423,-420.471,1
4.739456,-3.516,-1.846,0.997,237.365,48.645,-384.582,1
4.748265,-3.368,-1.714,0.895,210.632,67.749,-349.426,1
4.755438,-3.193,-1.558,0.761,183.837,87.341,-315.246,1
4.764814,-3.006,-1.443,0.68,158.691,100.585,-282.409,1
4.773331,-2.806,-1.379,0.583,133.605,111.083,-256.103,1
4.780654,-2.557,-1.318,0.503,100.952,119.934,-227.6,1
4.791412,-2.268,-1.267,0.421,70.678,125.671,-202.27,1
4.798225,-1.988,-1.199,0.376,50.415,129.394,-179.321,1
4.806512,-1.712,-1.146,0.326,43.273,128.845,-158.691,1
4.814885,-1.506,-1.098,0.306,44.25,128.295,-144.897,1
4.823347,-1.312,-1.045,0.276,47.851,125.976,-127.136,1
4.83034,-1.2,-0.981,0.28,52.673,124.023,-112.854,1
4.8386,-1.147,-0.924,0.282,55.358,122.497,-97.351,1
4.847941,-1.115,-0.857,0.29,51.757,121.765,-83.068,1
4.856538,-1.068,-0.805,0.294,45.104,121.643,-71.533,1
4.863679,-1.042,-0.745,0.298,35.095,122.253,-61.706,1
4.872703,-1.015,-0.71,0.291,19.531,122.741,-51.086,1
4.88033,-0.965,-0.667,0.301,5.737,122.558,-42.846,1
4.888042,-0.887,-0.636,0.307,-1.77,122.131,-33.935,1
4.896192,-0.8,-0.644,0.315,-4.333,120.178,-27.343,1
4.90409,-0.727,-0.648,0.324,-3.356,118.774,-20.751,1
4.911078,-0.652,-0.658,0.322,-0.793,115.539,-13.61,1
4.919175,-0.558,-0.678,0.329,3.112,112.976,-7.629,1
4.927263,-0.435,-0.704,0.332,7.324,109.436,-1.525,1
4.935721,-0.296,-0.749,0.346,12.145,105.957,6.286,1
4.942844,-0.164,-0.791,0.343,13.61,102.722,13.061,1
4.951665,-0.054,-0.818,0.352,14.282,99.914,20.263,1
4.958569,0.034,-0.829,0.357,16.601,96.252,27.404,1
4.966538,0.032,-0.81,0.37,25.146,92.468,34.24,1
4.97512,0.149,-0.787,0.389,42.907,87.28,41.503,1
4.98243,0.168,-0.759,0.391,72.998,79.895,49.255,1
4.99064,0.204,-0.755,0.384,95.153,73.486,55.603,1
4.998009,0.199,-0.759,0.37,105.834,68.176,61.706,1
5.006855,0.215,-0.778,0.356,102.661,62.255,68.237,1
5.014885,0.26,-0.784,0.362,90.454,58.105,74.462,1
5.021097,0.266,-0.77,0.372,76.232,54.199,80.139,1
5.029173,0.329,-0.751,0.378,65.429,50.17,85.327,1
5.037134,0.405,-0.72,0.393,61.523,46.02,90.148,1
5.044203,0.419,-0.687,0.403,61.706,41.809,94.665,1
5.053158,0.416,-0.648,0.413,63.171,38.208,98.999,1
5.059849,0.42,-0.601,0.414,65.734,34.362,103.576,1
5.067959,0.53,-0.555,0.409,66.528,31.494,108.703,1
5.075418,0.585,-0.485,0.415,67.687,28.015,113.22,1
5.083153,0.561,-0.411,0.412,72.814,25.268,117.065,1
5.09261,0.469,-0.377,0.397,73.608,22.277,119.262,1
5.100265,0.426,-0.338,0.404,70.983,20.263,121.337,1
5.107581,0.462,-0.292,0.408,73.669,18.127,123.413,1
5.115924,0.511,-0.264,0.427,85.449,14.892,126.281,1
5.124258,0.612,-0.261,0.464,101.806,11.23,129.455,1
5.130954,0.707,-0.279,0.502,116.149,7.995,133.361,1
5.13927,0.74,-0.296,0.531,121.826,6.103,138.305,1
5.147054,0.718,-0.301,0.549,114.929,5.737,142.395,1
5.156156,0.683,-0.281,0.584,103.942,6.347,146.545,1
5.162577,0.65,-0.25,0.608,96.13,7.629,150.695,1
5.171326,0.608,-0.223,0.627,91.674,9.094,155.212,1
5.178353,0.557,-0.198,0.641,90.026,10.07,159.606,1
5.186177,0.524,-0.192,0.65,90.026,11.962,164.062,1
5.194017,0.496,-0.2,0.64,88.623,13.305,168.945,1
5.202124,0.457,-0.187,0.636,84.533,14.892,173.95,1
5.210345,0.399,-0.173,0.634,79.65,16.54,178.527,1
5.217938,0.352,-0.144,0.65,76.66,18.127,184.631,1
5.225485,0.287,-0.108,0.665,77.331,19.348,189.27,1
5.233177,0.224,-0.076,0.691,79.589,20.812,194.03,1
5.240626,0.169,-0.053,0.716,82.397,22.888,198.791,1
5.248968,0.119,-0.031,0.735,84.838,24.78,202.453,1
5.257739,0.076,-0.01,0.757,86.853,26.611,207.946,1
5.265113,0.019,0.015,0.773,84.411,29.357,212.402,1
5.273196,-0.039,0.039,0.787,76.782,32.409,216.857,1
5.280158,-0.091,0.083,0.798,67.749,35.766,221.435,1
5.289282,-0.188,0.143,0.807,59.265,40.039,226.074,1
5.295494,-0.24,0.134,0.809,51.757,43.701,230.407,1
5.304531,-0.287,0.216,0.83,46.63,46.63,234.252,1
5.312346,-0.36,0.281,0.828,48.156,49.621,237.609,1
5.319197,-0.463,0.354,0.871,49.804,52.062,240.356,1
5.328119,-0.517,0.377,0.865,50.354,56.335,243.408,1
5.335409,-0.555,0.399,0.875,47.607,59.936,245.971,1
5.342733,-0.58,0.423,0.873,44.921,64.331,248.718,1
5.350392,-0.598,0.448,0.88,41.87,68.542,252.075,1
5.357808,-0.596,0.478,0.862,40.161,72.998,256.286,1
5.366194,-0.641,0.535,0.872,37.109,76.049,260.192,1
5.373275,-0.696,0.607,0.878,33.508,80.993,263.61,1
5.38196,-0.77,0.683,0.883,33.203,84.35,266.723,1
5.388782,-0.843,0.75,0.883,38.024,88.867,269.653,1
5.396547,-0.911,0.799,0.886,40.649,91.979,271.667,1
5.404181,-0.964,0.844,0.885,42.358,95.947,273.254,1
5.41373,-1.017,0.887,0.89,44.128,98.205,274.658,1
5.421489,-1.107,0.953,0.912,46.203,102.966,276.184,1
5.428618,-1.15,1.0,0.937,51.086,106.567,278.137,1
5.437401,-1.195,1.058,0.952,58.532,111.694,280.944,1
5.444314,-1.269,1.139,0.955,63.537,115.661,283.325,1
5.452891,-1.341,1.194,0.94,61.279,121.643,285.766,1
5.460088,-1.442,1.272,0.934,50.964,127.441,287.292,1
5.467955,-1.491,1.367,0.89,37.414,133.85,287.719,1
5.476343,-1.501,1.467,0.858,21.179,139.587,286.499,1
5.483823,-1.477,1.583,0.825,7.629,145.935,283.813,1
5.492584,-1.435,1.712,0.808,0.732,153.198,279.296,1
5.499929,-1.532,1.808,0.774,-0.488,159.606,274.597,1
5.507564,-1.583,1.855,0.731,-11.169,165.039,269.165,1
5.515588,-1.603,1.914,0.729,-28.869,174.438,262.023,1
5.523073,-1.684,2.011,0.675,-43.457,182.373,254.333,1
5.530881,-1.747,2.117,0.627,-56.213,191.101,245.849,1
5.539592,-1.787,2.225,0.516,-69.396,197.387,235.534,1
5.548185,-1.756,2.34,0.426,-75.927,204.65,221.923,1
5.556818,-1.651,2.408,0.312,-68.908,209.167,207.702,1
5.564956,-1.583,2.403,0.208,-58.837,211.791,195.556,1
5.573291,-1.5,2.354,0.131,-49.926,212.951,184.448,1
5.581088,-1.358,2.296,0.07,-44.25,215.026,172.912,1
5.588706,-1.381,2.259,-0.033,-42.785,217.041,163.879,1
5.595968,-1.27,2.242,-0.147,-49.255,217.163,154.968,1
5.605133,-1.235,2.26,-0.241,-50.659,216.735,143.859,1
5.613654,-1.273,2.233,-0.386,-49.987,214.721,135.314,1
5.621762,-1.125,2.21,-0.465,-47.119,210.815,125.183,1
5.629634,-1.151,2.15,-0.512,-46.508,207.641,117.309,1
5.637247,-0.983,2.064,-0.583,-52.001,203.979,108.642,1
5.6454,-0.985,2.01,-0.587,-56.884,201.416,101.928,1
5.65271,-0.981,1.961,-0.656,-65.307,198.791,95.092,1
5.660588,-0.972,1.966,-0.721,-71.289,196.594,89.965,1
5.669303,-0.937,1.988,-0.789,-71.838,190.917,82.458,1
5.676843,-0.907,2.009,-0.84,-63.049,184.753,75.683,1
5.685387,-0.916,1.999,-0.843,-39.794,174.621,68.481,1
5.692465,-0.917,1.919,-0.861,-28.808,169.799,62.499,1
5.700991,-0.737,1.835,-0.875,-31.982,163.208,56.396,1
5.708532,-0.807,1.78,-0.826,-38.391,159.912,51.635,1
5.71711,-0.694,1.742,-0.834,-44.128,155.944,46.569,1
5.724424,-0.667,1.717,-0.817,-42.419,150.817,40.588,1
5.73386,-0.646,1.7,-0.855,-37.658,146.24,35.827,1
5.743362,-0.646,1.696,-0.883,-31.127,139.343,29.724,1
5.752005,-0.626,1.674,-0.919,-25.024,132.446,23.986,1
5.758625,-0.59,1.634,-0.939,-23.864,125.732,18.188,1
5.766607,-0.525,1.569,-0.958,-27.526,119.506,14.648,1
5.774238,-0.523,1.536,-0.921,-28.015,114.074,9.887,1
5.782014,-0.415,1.474,-0.936,-31.311,108.581,6.347,1
5.791129,-0.368,1.418,-0.895,-35.644,103.515,3.112,1
5.800265,-0.323,1.357,-0.86,-36.193,98.022,-0.183,1
5.807153,-0.284,1.304,-0.826,-35.583,93.627,-2.197,1
5.816852,-0.231,1.251,-0.803,-35.461,88.439,-4.211,1
5.82457,-0.23,1.225,-0.777,-34.24,83.374,-5.615,1
5.833748,-0.198,1.194,-0.773,-34.118,79.406,-7.019,1
5.843122,-0.167,1.169,-0.75,-32.592,74.401,-7.873,1
5.852074,-0.169,1.159,-0.734,-28.259,69.396,-8.728,1
5.86,-0.165,1.142,-0.72,-23.193,65.368,-9.338,1
5.868183,-0.177,1.125,-0.714,-19.958,60.241,-10.253,1
5.876584,-0.203,1.103,-0.706,-18.737,55.786,-11.047,1
5.884064,-0.208,1.091,-0.69,-16.113,51.757,-11.718,1
5.894774,-0.226,1.071,-0.666,-11.047,46.752,-12.634,1
5.902483,-0.234,1.052,-0.645,-5.798,41.931,-13.183,1
5.910139,-0.258,1.035,-0.624,-2.624,37.963,-13.549,1
5.918157,-0.264,1.022,-0.626,-4.638,34.24,-13.977,1
5.926284,-0.282,1.029,-0.618,-5.432,30.151,-14.526,1
5.936025,-0.278,1.018,-0.603,-2.624,25.756,-15.258,1
5.942404,-0.271,0.996,-0.583,-0.366,21.85,-15.624,1
5.950254,-0.273,0.969,-0.564,-0.488,18.249,-15.991,1
5.959287,-0.266,0.957,-0.553,-2.258,14.892,-15.93,1
5.966764,-0.255,0.945,-0.522,-2.624,11.657,-15.686,1
5.976113,-0.249,0.939,-0.491,-1.159,7.751,-15.136,1
5.98373,-0.229,0.926,-0.459,0.61,4.333,-14.709,1
5.9921,-0.241,0.91,-0.419,0.427,1.953,-14.221,1
6.000174,-0.219,0.894,-0.39,-3.845,-0.976,-13.549,1
6.008994,-0.209,0.893,-0.342,-4.699,-2.746,-12.817,1
6.016665,-0.191,0.891,-0.321,-1.464,-5.371,-12.084,1
6.027739,-0.194,0.877,-0.287,0.305,-7.08,-11.535,1
6.034948,-0.183,0.872,-0.268,0.0,-9.094,-10.681,1
6.043473,-0.174,0.865,-0.228,-0.061,-10.314,-9.704,1
6.051499,-0.176,0.861,-0.207,1.037,-11.596,-9.399,1
6.060439,-0.164,0.86,-0.171,2.929,-12.573,-8.117,1
6.068084,-0.156,0.865,-0.141,5.554,-13.488,-7.263,1
6.076223,-0.166,0.879,-0.108,9.582,-14.404,-6.591,1
6.085449,-0.172,0.885,-0.079,12.695,-14.831,-6.042,1
6.093187,-0.177,0.884,-0.055,14.465,-15.075,-5.615,1
6.102078,-0.173,0.881,-0.032,14.16,-15.075,-5.31,1
6.109712,-0.18,0.872,-0.02,12.268,-14.953,-4.882,1
6.11691,-0.184,0.87,-0.009,8.056,-14.404,-4.15,1
6.126006,-0.175,0.867,-0.005,4.455,-14.282,-3.54,1
6.133792,-0.173,0.872,0.002,2.075,-14.221,-2.685,1
6.141467,-0.167,0.874,0.011,1.892,-14.221,-2.197,1
6.15084,-0.177,0.875,0.023,2.319,-14.282,-1.403,1
6.158881,-0.177,0.877,0.04,3.662,-14.343,-0.488,1
6.16671,-0.17,0.882,0.054,4.272,-14.099,0.366,1
6.175699,-0.168,0.885,0.057,3.601,-13.854,1.037,1
6.182627,-0.159,0.897,0.06,3.051,-13.671,2.075,1
6.189876,-0.153,0.908,0.064,3.234,-13.0,2.441,1
6.198679,-0.156,0.915,0.059,3.723,-12.878,3.234,1
6.205051,-0.158,0.937,0.061,5.004,-12.817,3.479,1
6.212926,-0.158,0.945,0.066,8.483,-12.878,3.723,1
6.221573,-0.156,0.946,0.068,10.253,-12.756,3.784,1
6.229864,-0.152,0.951,0.073,9.521,-12.573,4.394,1
6.237075,-0.145,0.96,0.072,7.934,-12.023,4.394,1
6.245916,-0.139,0.966,0.067,5.798,-11.596,4.455,1
6.253158,-0.143,0.973,0.07,4.821,-11.596,4.089,1
6.261013,-0.143,0.968,0.066,3.662,-11.352,4.211,1
6.26936,-0.149,0.973,0.074,2.929,-11.169,4.089,1
6.277596,-0.155,0.968,0.074,2.563,-10.986,4.272,1
6.285025,-0.165,0.966,0.076,1.953,-10.375,4.333,1
6.292811,-0.162,0.97,0.079,2.319,-10.62,4.699,1
6.299868,-0.161,0.969,0.083,3.295,-10.498,4.516,1
6.309009,-0.167,0.975,0.09,3.784,-9.948,4.577,1
6.316513,-0.171,0.979,0.098,2.929,-9.948,4.76,1
6.324558,-0.167,0.984,0.099,0.305,-9.216,4.638,1
6.332417,-0.165,0.992,0.101,-0.122,-8.728,4.577,1
6.340932,-0.158,0.98,0.101,1.037,-8.666,4.699,1
6.348392,-0.155,0.989,0.102,1.892,-8.422,4.15,1
6.357535,-0.152,0.982,0.104,2.563,-8.117,4.394,1
6.364914,-0.157,0.98,0.101,1.77,-7.69,4.638,1
6.37332,-0.151,0.98,0.111,0.915,-7.751,4.455,1
6.381352,-0.156,0.971,0.115,0.061,-7.446,4.455,1
6.389931,-0.17,0.986,0.129,0.549,-7.324,4.699,1
6.397382,-0.157,0.979,0.142,2.38,-6.958,4.455,1
6.404901,-0.161,0.973,0.16,2.136,-6.469,4.455,1
6.413727,-0.169,0.967,0.166,-0.549,-5.615,4.638,1
6.422088,-0.167,0.973,0.181,-1.647,-4.577,4.577,1
6.429465,-0.168,0.971,0.193,-1.098,-4.028,4.638,1
6.438318,-0.161,0.97,0.203,-0.915,-3.234,4.821,1
6.447659,-0.165,0.962,0.208,-1.22,-2.136,5.249,1
6.455058,-0.16,0.978,0.225,-1.22,-1.525,5.065,1
6.462761,-0.164,0.98,0.242,-0.488,-0.488,5.371,1
6.471049,-0.152,0.991,0.258,-0.305,0.549,5.249,1
6.480132,-0.136,0.995,0.275,-0.305,2.136,5.371,1
6.486577,-0.131,1.006,0.291,-1.586,3.356,5.432,1
6.494447,-0.137,1.003,0.304,-3.662,4.882,5.371,1
6.502826,-0.13,1.017,0.315,-5.432,6.286,4.943,1
6.511109,-0.127,1.024,0.334,-6.713,8.056,4.943,1
6.518527,-0.138,1.028,0.351,-7.507,9.46,4.577,1
6.525525,-0.148,1.034,0.365,-7.141,11.108,4.638,1
6.534808,-0.143,1.057,0.393,-5.493,12.451,4.577,1
6.543607,-0.154,1.074,0.428,-3.295,14.221,4.211,1
6.550485,-0.145,1.065,0.48,-6.347,16.54,4.76,1
6.559268,-0.202,1.136,0.515,-7.507,19.714,3.906,1
6.56859,-0.182,1.17,0.588,-3.295,20.874,2.38,1
6.575302,-0.177,1.181,0.657,0.793,24.291,1.525,1
6.584626,-0.191,1.196,0.723,0.305,27.221,0.183,1
6.59249,-0.182,1.202,0.79,-0.549,31.921,-1.159,1
6.600257,-0.174,1.195,0.857,-1.77,36.376,-1.953,1
6.608705,-0.187,1.208,0.92,-1.22,42.724,-3.479,1
6.617042,-0.197,1.19,0.955,-1.464,47.973,-4.333,1
6.625103,-0.198,1.177,1.003,-4.577,54.626,-5.065,1
6.634417,-0.2,1.174,1.012,-9.948,61.462,-5.615,1
6.64195,-0.209,1.181,1.009,-18.127,68.542,-6.53,1
6.649328,-0.249,1.216,1.01,-24.536,74.34,-7.751,1
6.658294,-0.268,1.25,1.019,-26.733,80.566,-9.887,1
6.666726,-0.266,1.272,1.032,-26.062,85.815,-12.268,1
6.674241,-0.275,1.281,1.049,-25.146,92.346,-15.075,1
6.682901,-0.279,1.274,1.051,-25.573,98.205,-17.7,1
6.690104,-0.308,1.263,1.04,-26.855,104.003,-20.202,1
6.698094,-0.316,1.241,1.041,-29.357,111.083,-22.827,1
6.70616,-0.331,1.208,1.015,-32.287,117.37,-25.085,1
6.713862,-0.355,1.209,0.989,-35.217,124.145,-27.099,1
6.723254,-0.414,1.229,0.967,-34.973,129.028,-28.747,1
6.731383,-0.451,1.24,0.945,-30.883,134.216,-31.372,1
6.739591,-0.458,1.232,0.928,-27.709,138.488,-33.203,1
6.748044,-0.508,1.229,0.901,-26.367,144.042,-35.278,1
6.755117,-0.539,1.22,0.875,-28.32,148.864,-36.804,1
6.762678,-0.57,1.208,0.844,-32.348,153.442,-38.696,1
6.772652,-0.594,1.202,0.819,-37.536,158.02,-40.1,1
6.780045,-0.62,1.178,0.795,-43.151,162.902,-41.87,1
6.789449,-0.639,1.169,0.78,-47.973,167.663,-43.395,1
6.796711,-0.674,1.175,0.768,-52.551,171.691,-44.494,1
6.804425,-0.7,1.174,0.751,-55.541,175.476,-45.593,1
6.813735,-0.722,1.183,0.73,-57.617,179.687,-46.691,1
6.821667,-0.743,1.193,0.697,-57.861,183.532,-48.339,1
6.830753,-0.767,1.202,0.67,-58.227,187.438,-50.048,1
6.83957,-0.787,1.202,0.631,-58.837,190.612,-51.33,1
6.84696,-0.799,1.206,0.599,-61.218,194.03,-52.673,1
6.855391,-0.831,1.213,0.572,-65.124,196.899,-53.894,1
6.863865,-0.862,1.232,0.543,-72.265,200.805,-55.908,1
6.870888,-0.871,1.259,0.51,-80.81,203.857,-58.105,1
6.878301,-0.904,1.299,0.49,-93.933,207.031,-60.791,1
6.887635,-1.199,1.403,0.456,-100.708,208.862,-64.086,1
6.89642,-0.932,1.429,0.516,-97.778,212.89,-68.298,1
6.905324,-0.958,1.504,0.487,-104.064,212.036,-74.157,1
6.914284,-0.96,1.56,0.423,-103.088,217.163,-80.383,1
6.922007,-0.962,1.594,0.407,-103.698,216.857,-87.951,1
6.93054,-0.967,1.608,0.353,-100.83,220.092,-94.909,1
6.9405,-1.058,1.606,0.281,-104.98,220.581,-101.501,1
6.947766,-1.07,1.594,0.239,-114.746,223.083,-109.558,1
6.958596,-1.091,1.597,0.172,-127.197,223.51,-118.347,1
6.965303,-1.127,1.608,0.134,-130.92,225.036,-126.77,1
6.973879,-1.144,1.598,0.068,-131.591,221.801,-135.498,1
6.981695,-1.116,1.591,0.011,-129.882,222.412,-143.005,1
6.990036,-1.187,1.599,-0.046,-129.821,219.421,-151.367,1
6.997823,-1.158,1.571,-0.113,-131.835,218.261,-158.142,1
7.008664,-1.226,1.566,-0.187,-138.732,215.393,-166.564,1
7.017598,-1.161,1.548,-0.256,-144.531,212.951,-174.621,1
7.025784,-1.206,1.543,-0.345,-153.869,207.946,-182.739,1
7.034054,-1.227,1.544,-0.405,-157.653,203.674,-190.795,1
7.042166,-1.197,1.531,-0.458,-153.747,195.983,-198.669,1
7.051666,-1.197,1.508,-0.505,-145.446,189.086,-204.711,1
7.059503,-1.166,1.47,-0.569,-139.343,182.434,-211.791,1
7.068158,-1.209,1.442,-0.608,-136.169,174.865,-218.2,1
7.07538,-1.183,1.408,-0.667,-133.605,169.128,-223.571,1
7.083116,-1.193,1.356,-0.712,-133.056,161.132,-229.431,1
7.092315,-1.203,1.316,-0.764,-134.704,155.822,-234.191,1
7.100317,-1.157,1.249,-0.79,-136.84,148.62,-239.257,1
7.109413,-1.163,1.217,-0.821,-142.333,141.235,-243.896,1
7.116611,-1.154,1.198,-0.846,-145.385,134.155,-247.192,1
7.125606,-1.116,1.166,-0.87,-145.446,126.708,-250.427,1
7.132956,-1.109,1.145,-0.897,-141.357,117.675,-253.478,1
7.140566,-1.11,1.125,-0.905,-134.826,108.764,-255.615,1
7.148553,-1.059,1.072,-0.957,-128.051,101.562,-257.263,1
7.157242,-1.075,1.051,-0.981,-121.887,92.895,-258.85,1
7.165121,-1.072,1.049,-1.017,-117.553,85.815,-260.375,1
7.173983,-1.019,0.998,-1.047,-114.318,77.331,-261.718,1
7.182432,-1.028,0.96,-1.062,-111.816,71.777,-263.061,1
7.189136,-1.004,0.915,-1.092,-110.473,64.025,-264.282,1
7.198313,-1.017,0.898,-1.097,-108.337,58.044,-265.258,1
7.20571,-0.991,0.847,-1.122,-108.947,51.94,-266.601,1
7.216439,-0.989,0.793,-1.108,-112.426,45.471,-267.456,1
7.225633,-0.952,0.75,-1.115,-113.22,38.208,-268.249,1
7.232001,-0.931,0.723,-1.103,-108.276,30.517,-268.432,1
7.241349,-0.908,0.685,-1.111,-100.769,23.132,-268.676,1
7.250231,-0.916,0.654,-1.107,-89.782,16.052,-268.432,1
7.257479,-0.857,0.566,-1.114,-84.533,10.009,-268.615,1
7.265827,-0.861,0.52,-1.095,-86.608,4.943,-267.761,1
7.274575,-0.828,0.46,-1.119,-92.529,0.244,-266.723,1
7.283875,-0.812,0.407,-1.088,-100.036,-5.004,-265.747,1
7.291038,-0.802,0.35,-1.07,-106.079,-10.07,-264.587,1
7.300225,-0.798,0.279,-1.036,-110.229,-14.526,-263.488,1
7.308067,-0.794,0.22,-1.002,-112.976,-19.592,-262.207,1
7.316691,-0.78,0.166,-0.961,-111.816,-24.902,-260.864,1
7.326232,-0.755,0.107,-0.921,-106.262,-29.235,-259.155,1
7.333861,-0.705,0.069,-0.869,-88.439,-33.325,-256.774,1
7.343,-0.663,-0.013,-0.849,-77.392,-39.672,-254.577,1
7.351334,-0.656,-0.054,-0.78,-72.021,-40.588,-251.098,1
7.359836,-0.609,-0.099,-0.771,-73.791,-43.09,-248.657,1
7.368753,-0.572,-0.128,-0.726,-75.256,-44.311,-244.934,1
7.37725,-0.566,-0.143,-0.69,-74.951,-45.776,-242.614,1
7.386343,-0.547,-0.186,-0.66,-73.547,-46.508,-239.868,1
7.394049,-0.553,-0.2,-0.642,-72.57,-47.729,-237.426,1
7.402572,-0.585,-0.215,-0.607,-70.251,-48.645,-234.985,1
7.4116,-0.563,-0.241,-0.586,-67.321,-49.255,-233.276,1
7.420287,-0.563,-0.272,-0.566,-63.842,-49.743,-231.079,1
7.429621,-0.573,-0.311,-0.543,-61.157,-49.621,-228.637,1
7.438495,-0.562,-0.343,-0.534,-56.701,-49.865,-226.074,1
7.446211,-0.534,-0.368,-0.515,-49.804,-49.072,-223.449,1
7.456856,-0.515,-0.399,-0.522,-45.776,-48.583,-220.52,1
7.465909,-0.506,-0.441,-0.521,-44.555,-47.119,-217.529,1
7.474817,-0.472,-0.463,-0.523,-43.945,-45.715,-213.562,1
7.484012,-0.49,-0.479,-0.531,-45.166,-44.128,-210.51,1
7.492854,-0.523,-0.495,-0.528,-48.095,-41.687,-207.275,1
7.501835,-0.508,-0.522,-0.537,-54.748,-39.184,-203.918,1
7.509778,-0.538,-0.486,-0.548,-55.908,-36.254,-200.073,1
7.518931,-0.531,-0.52,-0.59,-54.199,-35.827,-197.448,1
7.527053,-0.607,-0.524,-0.592,-53.344,-32.958,-195.373,1
7.535139,-0.65,-0.538,-0.638,-50.17,-33.569,-193.664,1
7.543762,-0.724,-0.536,-0.659,-41.137,-33.081,-192.382,1
7.55236,-0.79,-0.532,-0.684,-28.564,-35.278,-192.382,1
7.560904,-0.779,-0.534,-0.648,-7.507,-37.231,-192.81,1
7.568208,-0.8,-0.512,-0.572,33.874,-39.978,-194.03,1
7.576944,-0.811,-0.543,-0.538,73.852,-43.518,-195.495,1
7.585034,-0.834,-0.63,-0.444,98.327,-40.771,-195.983,1
7.593412,-0.837,-0.708,-0.443,102.661,-38.452,-195.678,1
7.601166,-0.777,-0.775,-0.404,92.834,-33.264,-194.335,1
7.609849,-0.74,-0.847,-0.395,66.65,-28.442,-191.955,1
7.617124,-0.725,-0.9,-0.363,40.649,-22.827,-189.086,1
7.627857,-0.715,-0.96,-0.355,12.939,-19.897,-185.607,1
7.635026,-0.699,-1.015,-0.326,-13.732,-15.747,-180.175,1
7.645184,-0.716,-1.126,-0.324,-30.761,-14.526,-176.269,1
7.652342,-0.78,-1.252,-0.307,-54.87,-9.826,-168.64,1
7.662726,-0.764,-1.361,-0.311,-72.998,-9.155,-162.719,1
7.669585,-0.809,-1.498,-0.268,-82.397,-6.713,-153.137,1
7.67879,-0.819,-1.624,-0.259,-83.984,-6.225,-145.324,1
7.685758,-0.828,-1.748,-0.229,-83.068,-5.31,-136.535,1
7.694703,-0.787,-1.884,-0.189,-69.335,-5.126,-124.572,1
7.704175,-0.779,-2.022,-0.166,-61.767,-3.112,-113.281,1
7.712446,-0.816,-2.169,-0.15,-59.753,-2.136,-98.388,1
7.720621,-0.852,-2.292,-0.111,-45.349,-1.037,-82.824,1
7.729427,-0.895,-2.426,-0.085,-20.874,-0.549,-65.429,1
7.735949,-0.96,-2.545,-0.057,-3.601,0.549,-50.109,1
7.744337,-0.887,-2.729,-0.019,-0.305,3.906,-32.409,1
7.754607,-0.821,-2.823,-0.008,-6.042,8.544,-9.826,1
7.761124,-0.802,-2.822,0.065,9.277,12.145,13.427,1
7.770083,-0.847,-2.834,0.066,31.677,15.38,34.301,1
7.776194,-0.916,-2.875,0.059,38.696,18.737,55.969,1
7.784891,-0.988,-2.817,0.064,41.198,22.766,78.552,1
7.792381,-1.097,-2.812,0.057,38.269,26.428,100.891,1
7.801841,-1.235,-2.75,0.088,44.25,31.799,127.99,1
7.809592,-1.444,-2.69,0.109,65.429,33.142,151.794,1
7.817633,-1.631,-2.631,0.104,91.369,36.499,180.358,1
7.826188,-1.892,-2.55,0.098,113.952,38.146,209.35,1
7.833878,-2.139,-2.523,0.074,127.38,41.137,234.802,1
7.84191,-2.416,-2.478,0.061,132.446,43.579,261.169,1
7.849006,-2.698,-2.45,0.018,133.972,47.973,293.396,1
7.856645,-3.001,-2.398,0.009,127.746,51.391,321.655,1
7.864501,-3.315,-2.333,-0.023,115.051,56.457,350.891,1
7.873431,-3.649,-2.259,-0.063,99.243,61.462,380.859,1
7.880983,-4.115,-2.137,-0.095,81.542,68.542,416.686,1
7.889506,-4.5,-2.076,-0.147,59.509,74.523,448.059,1
7.898852,-4.939,-1.972,-0.189,37.719,82.824,480.285,1
7.906588,-5.492,-1.854,-0.252,16.357,91.674,519.165,1
7.916131,-6.175,-1.732,-0.309,4.638,100.036,553.71,1
7.922807,-7.095,-1.625,-0.368,-20.202,113.586,600.952,1
7.931521,-7.766,-1.431,-0.401,-9.155,120.849,637.512,1
7.940955,-8.847,-1.215,-0.42,46.752,128.54,682.8,1
7.948868,-9.826,-1.093,-0.558,95.275,124.084,730.773,1
7.957623,-11.074,-0.943,-0.691,119.567,122.741,774.597,1
7.966537,-12.308,-0.754,-0.812,136.474,110.046,834.35,1
7.973876,-13.615,-0.56,-1.027,141.296,98.754,879.882,1
7.982726,-14.9,-0.364,-1.155,135.986,81.054,923.828,1
7.990387,-15.999,-0.147,-1.285,126.037,58.41,974.67,1
7.998865,-15.999,0.144,-1.364,124.694,29.479,1023.681,1
8.006198,-15.999,0.446,-1.412,145.69,-0.61,1064.27,1
8.013943,-15.999,0.837,-1.345,198.547,-42.663,1102.783,1
8.023776,-15.999,1.32,-1.245,287.597,-99.365,1136.108,1
8.03172,-15.999,1.694,-1.089,411.499,-189.086,1167.419,1
8.038494,-15.999,1.966,-0.856,488.037,-282.226,1185.241,1
8.047629,-15.999,2.438,-0.49,566.345,-401.672,1190.918,1
8.055592,-15.999,2.829,-0.021,648.559,-514.404,1178.344,1
8.063506,-15.999,3.266,0.512,724.06,-651.916,1137.878,1
8.072475,-15.999,3.423,1.12,768.798,-768.981,1084.106,1
8.080081,-15.999,3.254,2.149,839.782,-902.893,1003.173,1
8.088875,-15.999,2.938,2.98,946.594,-1031.005,900.085,1
8.096532,-15.999,3.474,3.752,1072.204,-1119.323,779.052,1
8.105334,-15.999,3.717,3.771,1286.376,-1215.698,604.309,1
8.11334,-15.999,2.823,3.709,1412.231,-1304.26,319.641,1
8.122577,-15.999,2.175,3.516,1251.831,-1312.927,120.971,1
8.131112,-15.999,1.917,3.737,1001.586,-1271.667,-59.875,1
8.139066,-15.999,2.162,3.873,898.803,-1211.12,-182.373,1
8.146889,-15.999,2.346,3.792,909.301,-1129.333,-315.856,1
8.156468,-15.999,2.091,3.649,944.457,-1052.917,-426.208,1
8.163017,-15.999,1.348,3.067,940.368,-939.941,-539.001,1
8.170917,-15.999,0.648,2.436,864.257,-836.73,-613.22,1
8.178962,-15.999,0.387,2.127,735.656,-734.191,-664.611,1
8.187104,-15.527,0.303,2.11,586.792,-641.967,-695.434,1
8.194538,-14.668,0.224,2.003,464.477,-560.18,-710.876,1
8.20286,-13.895,0.22,1.915,379.028,-497.07,-715.576,1
8.21003,-12.968,0.179,1.959,329.895,-431.823,-711.364,1
8.218012,-12.144,0.086,1.956,315.551,-381.652,-703.186,1
8.226745,-11.048,-0.02,1.968,316.65,-321.777,-689.086,1
8.234031,-10.231,-0.2,1.896,327.575,-273.62,-675.17,1
8.24345,-9.522,-0.356,1.856,329.284,-223.144,-656.188,1
8.2507,-8.856,-0.448,1.69,322.814,-168.457,-634.155,1
8.259368,-8.416,-0.574,1.669,308.532,-116.577,-607.482,1
8.268415,-7.849,-0.684,1.475,287.536,-76.416,-584.716,1
8.276564,-7.221,-0.812,1.363,254.516,-33.264,-557.189,1
8.284667,-6.567,-0.934,1.131,217.102,-0.366,-529.602,1
8.294208,-6.142,-1.019,1.067,178.466,25.146,-505.371,1
8.301508,-5.626,-1.033,0.942,137.756,46.142,-476.806,1
8.309961,-5.263,-0.965,0.933,131.652,60.913,-452.27,1
8.317488,-4.824,-0.941,0.834,149.292,74.157,-426.086,1
8.325416,-4.339,-1.014,0.753,165.893,88.256,-404.296,1
8.333332,-3.957,-1.12,0.621,156.494,102.783,-379.638,1
8.34225,-3.632,-1.208,0.55,125.976,116.516,-358.459,1
8.35139,-3.298,-1.246,0.465,78.002,126.159,-335.266,1
8.359003,-3.016,-1.236,0.426,55.908,131.835,-315.49,1
8.366874,-2.732,-1.246,0.375,50.659,132.995,-293.457,1
8.376325,-2.462,-1.265,0.376,65.612,132.141,-271.301,1
8.384563,-2.253,-1.3,0.349,85.083,129.821,-252.075,1
8.39405,-2.128,-1.373,0.344,100.28,128.479,-229.553,1
8.402576,-1.969,-1.439,0.325,101.257,127.258,-207.031,1
8.411772,-1.755,-1.501,0.324,92.346,126.892,-182.189,1
8.420848,-1.59,-1.53,0.317,77.453,125.793,-161.254,1
8.429488,-1.463,-1.542,0.313,64.025,124.45,-143.92,1
8.437482,-1.314,-1.526,0.32,54.321,121.154,-124.633,1
8.445841,-1.141,-1.508,0.327,54.504,118.774,-108.703,1
8.453145,-1.016,-1.497,0.329,56.457,114.318,-91.064,1
8.460438,-0.883,-1.486,0.329,58.105,110.9,-76.293,1
8.469458,-0.746,-1.46,0.328,60.424,107.055,-62.011,1
8.476873,-0.571,-1.423,0.329,67.687,102.416,-45.532,1
8.484426,-0.421,-1.381,0.326,76.049,97.534,-32.043,1
8.49318,-0.274,-1.31,0.327,85.205,92.59,-18.615,1
8.500809,-0.162,-1.235,0.339,95.947,86.486,-4.15,1
8.508407,-0.1,-1.149,0.346,105.041,81.42,7.568,1
8.516311,-0.048,-1.044,0.356,114.746,76.293,18.371,1
8.525629,-0.006,-0.959,0.37,129.577,70.007,29.479,1
8.533471,0.034,-0.868,0.383,142.822,64.453,38.513,1
8.540824,0.055,-0.793,0.393,154.846,58.349,47.668,1
8.549228,0.055,-0.727,0.409,160.949,53.588,54.565,1
8.55681,0.054,-0.672,0.416,163.085,49.865,60.913,1
8.565286,0.059,-0.613,0.422,159.057,45.837,67.871,1
8.573125,0.074,-0.568,0.425,152.038,43.457,73.059,1
8.580414,0.095,-0.517,0.427,144.287,41.015,77.88,1
8.588031,0.145,-0.469,0.421,139.465,38.513,82.275,1
8.59559,0.202,-0.428,0.422,137.146,35.4,86.059,1
8.604755,0.256,-0.396,0.415,137.573,32.897,89.782,1
8.612082,0.297,-0.377,0.412,141.113,29.113,93.749,1
8.620688,0.347,-0.361,0.41,146.484,26.062,97.167,1
8.628414,0.4,-0.344,0.413,154.418,21.972,100.28,1
8.635956,0.439,-0.34,0.414,164.794,17.333,103.82,1
8.643071,0.475,-0.341,0.408,170.349,13.366,106.811,1
8.652069,0.475,-0.336,0.398,171.569,10.131,109.252,1
8.659052,0.539,-0.336,0.399,169.189,7.812,111.206,1
8.668007,0.625,-0.335,0.37,170.654,5.371,112.609,1
8.677127,0.658,-0.332,0.381,168.273,4.028,114.562,1
8.684415,0.676,-0.344,0.357,159.301,2.746,115.905,1
8.691326,0.706,-0.352,0.351,140.441,5.493,116.882,1
8.700364,0.731,-0.357,0.326,110.656,8.422,116.882,1
8.70848,0.701,-0.365,0.307,75.5,12.573,116.76,1
8.71605,0.677,-0.335,0.306,35.766,15.808,117.37,1
8.724417,0.715,-0.293,0.308,9.704,21.179,117.858,1
8.732077,0.708,-0.275,0.286,-4.272,23.864,117.614,1
8.738993,0.694,-0.265,0.282,-11.779,27.832,117.675,1
8.74851,0.694,-0.263,0.25,-19.165,29.968,117.492,1
8.756484,0.698,-0.262,0.244,-26.855,33.081,118.225,1
8.764484,0.688,-0.245,0.221,-30.273,34.057,119.323,1
8.773115,0.663,-0.228,0.235,-27.221,35.949,120.239,1
8.780629,0.687,-0.218,0.202,-19.47,35.705,121.765,1
8.78915,0.667,-0.215,0.204,-13.671,36.499,123.657,1
8.796814,0.661,-0.222,0.174,-13.122,36.682,125.427,1
8.804432,0.648,-0.221,0.173,-17.089,37.841,127.929,1
8.813009,0.633,-0.221,0.149,-26.733,39.184,131.103,1
8.819068,0.623,-0.216,0.155,-35.034,40.344,133.667,1
8.826401,0.636,-0.214,0.147,-45.288,41.931,137.207,1
8.835806,0.661,-0.199,0.148,-52.917,43.09,140.808,1
8.842939,0.669,-0.18,0.135,-54.321,43.701,144.836,1
8.852023,0.652,-0.165,0.136,-47.912,42.785,149.353,1
8.859742,0.634,-0.154,0.129,-36.376,41.442,153.503,1
8.868212,0.604,-0.135,0.125,-20.019,38.696,158.691,1
8.876448,0.584,-0.141,0.106,-6.53,35.827,163.269,1
8.884573,0.566,-0.145,0.095,3.54,32.958,168.09,1
8.890888,0.544,-0.15,0.078,10.192,29.968,174.072,1
8.899209,0.512,-0.146,0.065,11.291,27.038,179.382,1
8.907375,0.473,-0.147,0.049,9.033,24.719,184.509,1
8.915438,0.425,-0.133,0.038,5.432,21.606,190.795,1
8.923199,0.396,-0.119,0.027,2.807,19.409,195.617,1
8.931169,0.363,-0.101,0.024,1.22,16.418,201.293,1
8.940754,0.338,-0.085,0.024,1.464,14.404,206.176,1
8.949259,0.307,-0.07,0.022,2.258,12.39,210.815,1
8.955454,0.258,-0.064,0.025,3.051,10.192,216.003,1
8.962623,0.221,-0.051,0.03,3.54,8.666,220.825,1
8.970123,0.175,-0.041,0.026,3.723,7.995,225.524,1
8.978542,0.144,-0.034,0.024,2.563,6.774,229.858,1
8.985168,0.111,-0.028,0.036,1.586,6.286,234.191,1
8.994036,0.07,-0.018,0.025,-0.244,5.798,238.342,1
9.000729,0.045,-0.011,0.042,-1.647,5.737,242.309,1
9.009431,0.02,0.0,0.039,-4.577,5.859,246.276,1
9.01852,-0.03,0.0,0.048,-9.094,6.835,250.732,1
9.025782,-0.069,0.006,0.051,-16.357,8.361,254.76,1
9.034395,-0.159,0.023,0.054,-26.062,10.742,259.46,1
9.04319,-0.252,0.045,0.053,-33.935,13.732,263.671,1
9.050722,-0.327,0.061,0.054,-44.86,17.333,268.127,1
9.058126,-0.415,0.086,0.053,-55.114,21.484,271.606,1
9.068391,-0.504,0.116,0.046,-66.284,25.695,275.146,1
9.075909,-0.645,0.161,0.046,-75.866,30.639,278.808,1
9.082976,-0.762,0.211,0.044,-80.627,35.461,281.433,1
9.094055,-0.697,0.268,0.005,-84.594,39.855,282.531,1
9.100988,-0.841,0.329,0.002,-88.256,42.602,283.569,1
9.107779,-0.976,0.409,-0.057,-86.303,47.851,284.912,1
9.119142,-1.098,0.51,-0.089,-80.993,49.255,285.949,1
9.127232,-1.255,0.642,-0.174,-64.88,48.767,286.315,1
9.135994,-1.335,0.731,-0.199,-44.616,48.217,286.376,1
9.142775,-1.432,0.808,-0.262,-33.996,47.058,286.071,1
9.151528,-1.54,0.881,-0.301,-33.203,46.264,285.095,1
9.158347,-1.615,0.936,-0.332,-40.161,45.593,283.386,1
9.166526,-1.607,1.006,-0.329,-48.767,45.959,280.761,1
9.174012,-1.529,1.043,-0.277,-47.18,45.043,277.832,1
9.184365,-1.523,1.091,-0.275,-35.217,47.18,275.756,1
9.191106,-1.518,1.135,-0.291,-36.01,45.166,273.62,1
9.200168,-1.563,1.176,-0.285,-39.428,46.63,271.24,1
9.209547,-1.601,1.23,-0.264,-42.175,45.959,266.967,1
9.218182,-1.61,1.26,-0.246,-45.837,48.828,263.916,1
9.225201,-1.625,1.315,-0.292,-61.401,50.354,259.216,1
9.233395,-1.652,1.354,-0.253,-74.035,52.917,254.577,1
9.242004,-1.587,1.349,-0.216,-78.063,55.297,250.305,1
9.251007,-1.567,1.333,-0.169,-78.186,58.288,246.093,1
9.259686,-1.565,1.328,-0.166,-77.392,62.561,243.103,1
9.266025,-1.609,1.296,-0.141,-79.406,65.124,240.722,1
9.275014,-1.603,1.357,-0.17,-77.026,69.03,237.426,1
9.282481,-1.72,1.428,-0.221,-69.03,69.213,234.436,1
9.29293,-1.762,1.506,-0.308,-53.039,67.26,230.346,1
9.30069,-1.849,1.55,-0.326,-26.489,61.462,226.257,1
9.308975,-1.817,1.515,-0.335,-3.723,54.809,222.656,1
9.31656,-1.816,1.475,-0.289,1.098,49.56,220.458,1
9.324195,-1.751,1.436,-0.197,-3.601,47.729,218.933,1
9.331985,-1.709,1.454,-0.164,-11.718,47.18,217.956,1
9.339748,-1.687,1.527,-0.133,-12.145,45.471,215.942,1
9.347747,-1.71,1.499,-0.134,-8.056,43.701,214.599,1
9.354578,-1.504,1.595,-0.106,-5.126,43.029,211.181,1
9.3637,-1.515,1.645,-0.116,7.141,38.696,206.97,1
9.371327,-1.476,1.677,-0.108,25.329,36.071,203.186,1
9.378789,-1.424,1.688,-0.129,43.945,29.968,197.387,1
9.38788,-1.395,1.697,-0.114,56.701,27.038,192.443,1
9.396788,-1.344,1.713,-0.128,63.537,22.766,186.096,1
9.405575,-1.274,1.732,-0.151,63.171,20.08,179.382,1
9.412893,-1.261,1.751,-0.168,57.006,16.296,171.997,1
9.421399,-1.227,1.79,-0.173,52.429,13.732,164.428,1
9.431656,-1.183,1.806,-0.175,45.227,10.314,155.09,1
9.438973,-1.15,1.819,-0.173,34.729,8.056,145.385,1
9.448503,-1.108,1.845,-0.164,22.583,6.469,135.009,1
9.455609,-1.064,1.829,-0.147,13.854,4.821,126.77,1
9.464462,-1.009,1.8,-0.129,3.723,4.455,117.736,1
9.47344,-1.008,1.72,-0.109,-8.911,3.845,109.558,1
9.483054,-0.91,1.685,-0.079,-19.287,6.103,101.867,1
9.491517,-0.928,1.66,-0.028,-20.812,5.371,95.275,1
9.498717,-0.914,1.606,-0.039,-19.714,7.568,88.684,1
9.509038,-0.937,1.578,-0.047,-22.888,7.263,82.275,1
9.518447,-0.98,1.501,-0.069,-27.526,8.911,77.819,1
9.525917,-1.005,1.408,-0.104,-41.931,8.789,73.547,1
9.533653,-1.025,1.414,-0.099,-64.697,12.39,70.617,1
9.542267,-1.143,1.371,-0.153,-76.11,9.338,66.955,1
9.549468,-1.163,1.307,-0.117,-73.608,8.728,64.697,1
9.557305,-1.057,1.339,-0.12,-67.687,7.507,61.584,1
9.565287,-1.053,1.295,-0.115,-54.443,3.051,58.288,1
9.574344,-1.01,1.221,-0.073,-34.057,0.671,55.603,1
9.582891,-0.954,1.159,-0.056,-19.104,-2.868,53.283,1
9.59098,-0.915,1.131,0.003,-10.009,-2.99,51.635,1
9.598918,-0.923,1.058,0.009,-9.582,-4.333,49.804,1
9.606415,-0.893,0.987,0.067,-18.31,-1.464,48.339,1
9.614836,-0.846,0.898,0.07,-38.574,1.77,48.339,1
9.622312,-0.81,0.891,0.07,-61.279,5.798,46.02,1
9.631079,-0.826,0.884,0.084,-84.96,10.314,44.006,1
9.638567,-0.795,0.88,0.074,-97.473,13.244,41.259,1
9.645876,-0.791,0.855,0.073,-109.68,16.113,38.269,1
9.656538,-0.805,0.833,0.066,-118.469,18.737,35.278,1
9.662256,-0.816,0.786,0.056,-124.816,21.179,31.311,1
9.671093,-0.836,0.775,0.05,-127.014,22.888,27.893,1
9.680196,-0.878,0.743,0.036,-129.455,24.047,24.291,1
9.688076,-0.9,0.735,0.033,-130.126,25.878,20.019,1
9.697321,-0.935,0.728,0.041,-130.798,27.16,15.624,1
9.706049,-0.951,0.702,0.034,-130.92,29.235,10.986,1
9.713885,-0.952,0.676,0.039,-132.141,30.578,6.835,1
9.72305,-0.943,0.657,0.032,-133.239,32.287,3.051,1
9.73172,-0.932,0.638,0.029,-136.291,33.752,-0.793,1
9.739045,-0.861,0.61,0.015,-136.901,34.606,-4.882,1
9.748629,-0.796,0.562,0.02,-129.638,34.362,-7.751,1
9.757632,-0.964,0.546,-0.001,-134.704,36.254,-10.192,1
9.766239,-1.052,0.551,-0.017,-142.272,36.926,-12.451,1
9.773378,-1.084,0.552,-0.042,-146.484,37.536,-15.197,1
9.782583,-1.083,0.53,-0.049,-145.324,36.865,-16.967,1
9.789491,-1.062,0.521,-0.062,-140.869,36.071,-19.409,1
9.798408,-1.021,0.487,-0.074,-132.812,33.691,-21.24,1
9.805355,-1.054,0.492,-0.072,-125.061,32.592,-23.071,1
9.813925,-1.002,0.493,-0.076,-114.929,30.395,-25.085,1
9.821511,-1.075,0.48,-0.086,-103.149,28.32,-26.489,1
9.829687,-1.048,0.454,-0.098,-96.008,25.939,-27.404,1
9.83767,-0.979,0.437,-0.095,-88.867,23.62,-28.32,1
9.845169,-0.948,0.429,-0.098,-77.941,21.24,-29.174,1
9.854113,-0.935,0.423,-0.098,-68.847,18.92,-29.846,1
9.860781,-0.928,0.401,-0.104,-62.011,16.601,-30.456,1
9.869069,-0.93,0.388,-0.105,-57.617,14.953,-30.944,1
9.877413,-0.925,0.375,-0.107,-54.992,13.366,-31.433,1
9.885761,-0.931,0.363,-0.106,-54.626,11.718,-31.738,1
9.894221,-0.932,0.349,-0.105,-55.236,10.803,-31.738,1
9.901119,-0.912,0.344,-0.104,-54.626,8.911,-31.86,1
9.911783,-0.898,0.34,-0.097,-50.903,7.69,-31.921,1
9.91843,-0.874,0.336,-0.097,-43.334,5.798,-31.555,1
9.927479,-0.869,0.321,-0.097,-33.752,3.845,-31.372,1
9.934664,-0.871,0.31,-0.099,-25.695,2.197,-31.066,1
9.944869,-0.879,0.303,-0.104,-17.211,0.305,-30.334,1
9.951958,-0.899,0.294,-0.101,-10.131,-1.281,-30.151,1
9.961962,-0.904,0.28,-0.099,-6.774,-2.258,-29.235,1
9.968835,-0.893,0.273,-0.099,-6.286,-2.868,-28.442,1
9.979278,-0.879,0.262,-0.097,-7.812,-3.479,-27.404,1
9.987336,-0.892,0.264,-0.099,-9.765,-4.089,-26.367,1
9.996694,-0.913,0.259,-0.103,-13.0,-4.211,-25.146,1
