timestamp_s,ax,ay,az,gx,gy,gz,label
0.004436,0.218,0.919,-0.407,25.451,-4.821,5.859,1
0.011443,0.219,0.895,-0.402,28.137,-4.211,4.638,1
0.020363,0.218,0.878,-0.385,22.644,-2.746,3.845,1
0.026929,0.235,0.878,-0.386,15.014,-1.281,3.112,1
0.03489,0.247,0.886,-0.392,8.911,-0.183,2.624,1
0.043138,0.238,0.905,-0.4,6.774,0.0,1.708,1
0.049741,0.227,0.91,-0.411,8.056,0.122,0.61,1
0.057294,0.237,0.908,-0.419,10.681,0.305,-0.122,1
0.065991,0.247,0.906,-0.429,12.817,-0.122,-1.159,1
0.073492,0.27,0.906,-0.442,13.793,-0.244,-2.075,1
0.080721,0.268,0.906,-0.445,10.742,-0.305,-2.746,1
0.089217,0.27,0.915,-0.445,8.544,-0.305,-3.051,1
0.096819,0.305,0.911,-0.45,8.117,-0.427,-3.662,1
0.105921,0.318,0.889,-0.453,8.789,-0.732,-3.967,1
0.112773,0.285,0.891,-0.452,8.178,-0.671,-4.089,1
0.120189,0.271,0.917,-0.437,7.873,-1.281,-4.211,1
0.130195,0.267,0.909,-0.418,7.629,-1.281,-4.516,1
0.136118,0.29,0.893,-0.405,5.371,-1.342,-4.699,1
0.146563,0.282,0.843,-0.406,1.77,-0.854,-4.577,1
0.155116,0.288,0.827,-0.416,-2.807,-0.366,-4.15,1
0.162755,0.293,0.837,-0.414,-4.15,-0.244,-3.967,1
0.171447,0.289,0.834,-0.418,-4.394,-0.305,-3.662,1
0.178688,0.291,0.835,-0.422,-4.394,-0.61,-2.99,1
0.187601,0.3,0.842,-0.427,-0.427,-1.342,-2.441,1
0.195393,0.313,0.841,-0.435,4.455,-2.441,-2.38,1
0.203748,0.319,0.842,-0.431,9.704,-2.99,-1.892,1
0.211998,0.315,0.843,-0.434,13.61,-3.906,-1.281,1
0.22202,0.32,0.841,-0.433,15.869,-4.516,-0.976,1
0.230622,0.321,0.843,-0.431,16.906,-4.943,-0.366,1
0.237262,0.322,0.846,-0.43,16.418,-5.31,-0.061,1
0.245325,0.322,0.854,-0.428,16.906,-5.554,0.366,1
0.252918,0.322,0.861,-0.43,18.005,-6.286,0.671,1
0.262169,0.32,0.865,-0.428,21.728,-6.774,0.488,1
0.269194,0.327,0.871,-0.437,27.099,-7.873,0.793,1
0.277805,0.333,0.85,-0.446,32.775,-8.605,0.61,1
0.285961,0.329,0.856,-0.445,36.437,-9.765,0.671,1
0.294847,0.327,0.867,-0.435,37.841,-10.681,0.671,1
0.303061,0.329,0.878,-0.42,39.001,-11.413,0.793,1
0.31055,0.344,0.832,-0.403,40.344,-12.145,0.427,1
0.319689,0.329,0.852,-0.407,39.55,-11.901,0.976,1
0.328136,0.335,0.867,-0.398,38.94,-12.695,1.342,1
0.33647,0.349,0.886,-0.395,36.865,-12.451,1.464,1
0.344026,0.359,0.899,-0.39,30.517,-11.718,1.281,1
0.352202,0.386,0.939,-0.397,23.437,-11.23,0.915,1
0.359714,0.404,0.966,-0.406,18.554,-10.803,0.244,1
0.368488,0.427,1.0,-0.406,16.967,-11.169,-0.488,1
0.376587,0.441,1.014,-0.405,18.127,-11.047,-0.976,1
0.385528,0.448,1.035,-0.413,18.615,-11.108,-1.892,1
0.393429,0.45,1.043,-0.419,18.615,-11.23,-2.807,1
0.402253,0.454,1.066,-0.437,16.967,-11.23,-3.784,1
0.411206,0.451,1.095,-0.444,12.329,-10.192,-5.554,1
0.42009,0.439,1.104,-0.456,7.751,-9.826,-6.652,1
0.427609,0.449,1.101,-0.473,0.305,-8.911,-8.422,1
0.434756,0.443,1.104,-0.489,-6.835,-8.483,-9.948,1
0.444071,0.444,1.112,-0.496,-12.512,-7.812,-11.413,1
0.451494,0.44,1.129,-0.495,-15.747,-8.056,-13.61,1
0.458821,0.431,1.145,-0.504,-14.709,-8.239,-15.869,1
0.468173,0.435,1.163,-0.506,-13.854,-9.033,-18.127,1
0.477261,0.438,1.193,-0.507,-12.084,-9.765,-20.874,1
0.484994,0.457,1.167,-0.512,-12.084,-10.559,-22.949,1
0.492997,0.46,1.184,-0.517,-12.207,-11.535,-25.756,1
0.501678,0.459,1.189,-0.51,-13.122,-11.718,-28.076,1
0.509347,0.451,1.244,-0.529,-16.845,-12.329,-31.311,1
0.518587,0.449,1.272,-0.541,-20.812,-12.573,-34.912,1
0.528067,0.453,1.316,-0.575,-24.23,-13.122,-38.085,1
0.535486,0.472,1.36,-0.615,-25.756,-13.732,-41.076,1
0.543082,0.489,1.396,-0.668,-26.306,-14.526,-44.616,1
0.551943,0.527,1.47,-0.752,-28.93,-15.747,-48.95,1
0.559736,0.575,1.556,-0.842,-37.475,-17.15,-53.894,1
0.570066,0.637,1.639,-0.887,-48.034,-18.493,-58.898,1
0.578219,0.68,1.734,-0.925,-60.485,-21.118,-65.49,1
0.58522,0.708,1.809,-0.932,-66.345,-23.864,-71.289,1
0.593573,0.717,1.873,-0.916,-64.88,-27.77,-78.125,1
0.601938,0.722,1.861,-0.879,-58.471,-31.677,-84.411,1
0.610142,0.708,1.807,-0.804,-48.461,-36.254,-91.857,1
0.617335,0.69,1.69,-0.739,-40.954,-39.55,-97.595,1
0.624825,0.667,1.542,-0.672,-35.4,-42.541,-101.989,1
0.633299,0.644,1.421,-0.589,-28.93,-45.288,-105.957,1
0.641697,0.627,1.324,-0.493,-18.493,-47.546,-108.886,1
0.648843,0.644,1.248,-0.398,-0.854,-49.682,-111.755,1
0.65947,0.642,1.216,-0.323,14.526,-51.696,-114.196,1
0.665986,0.679,1.167,-0.285,31.494,-52.062,-117.065,1
0.673717,0.683,1.096,-0.224,36.621,-53.222,-119.567,1
0.681768,0.675,1.046,-0.234,34.606,-49.865,-120.91,1
0.688505,0.663,1.025,-0.26,25.39,-50.292,-122.802,1
0.696006,0.588,1.046,-0.269,18.493,-47.851,-125.366,1
0.706031,0.545,1.02,-0.305,9.399,-49.194,-127.746,1
0.712572,0.513,1.045,-0.289,13.427,-48.583,-131.103,1
0.721153,0.449,1.019,-0.29,14.526,-51.33,-132.69,1
0.72926,0.474,1.046,-0.269,33.508,-51.94,-138.061,1
0.737755,0.421,1.056,-0.219,50.231,-53.222,-140.625,1
0.745188,0.501,0.993,-0.261,60.241,-53.955,-143.249,1
0.753124,0.511,0.978,-0.209,59.814,-53.833,-145.996,1
0.760908,0.538,0.977,-0.215,50.292,-52.368,-148.559,1
0.767937,0.526,0.963,-0.148,40.466,-50.903,-150.573,1
0.775755,0.564,0.919,-0.149,27.038,-49.011,-151.306,1
0.78452,0.626,0.815,-0.101,-4.333,-47.912,-148.62,1
0.792718,0.633,0.857,-0.089,-13.671,-45.959,-152.404,1
0.800349,0.567,0.897,0.025,-0.61,-45.959,-153.747,1
0.808916,0.579,0.867,-0.007,20.874,-49.072,-154.174,1
0.817481,0.579,0.739,0.014,22.705,-48.522,-153.137,1
0.824988,0.708,0.787,0.062,1.953,-48.278,-153.076,1
0.832848,0.534,0.743,0.095,1.708,-47.607,-154.479,1
0.839604,0.507,0.76,0.114,10.864,-46.325,-155.761,1
0.849286,0.503,0.735,0.159,12.756,-46.63,-155.944,1
0.856618,0.449,0.645,0.151,14.709,-44.982,-156.066,1
0.863575,0.427,0.654,0.2,18.432,-42.907,-158.142,1
0.872793,0.401,0.622,0.195,16.54,-41.076,-158.447,1
0.879863,0.369,0.596,0.231,25.207,-39.672,-159.973,1
0.888489,0.345,0.553,0.224,32.958,-38.024,-159.667,1
0.895883,0.313,0.428,0.212,32.836,-36.254,-158.752,1
0.903657,0.367,0.437,0.248,39.978,-35.034,-160.034,1
0.911456,0.286,0.37,0.245,52.612,-33.203,-159.667,1
0.919924,0.304,0.336,0.25,71.96,-31.677,-159.484,1
0.927831,0.251,0.262,0.246,87.158,-30.151,-159.118,1
0.936109,0.17,0.176,0.217,94.238,-25.512,-157.104,1
0.94384,0.273,0.072,0.234,85.449,-21.545,-154.785,1
0.952674,0.315,0.007,0.21,76.416,-17.028,-151.428,1
0.961711,0.326,-0.038,0.229,66.711,-11.291,-147.277,1
0.971501,0.382,-0.068,0.205,63.903,-8.361,-143.188,1
0.978616,0.474,-0.096,0.208,71.228,-4.882,-137.634,1
0.987952,0.513,-0.114,0.192,86.914,-4.15,-132.08,1
0.996027,0.539,-0.142,0.168,105.834,-2.624,-126.281,1
1.004581,0.572,-0.181,0.15,116.76,-1.525,-121.52,1
1.012701,0.605,-0.222,0.128,120.117,0.549,-115.234,1
1.019666,0.598,-0.25,0.128,115.173,2.99,-109.985,1
1.026746,0.562,-0.261,0.11,106.323,6.225,-104.919,1
1.034425,0.561,-0.27,0.098,95.764,9.46,-99.914,1
1.042872,0.58,-0.269,0.088,89.172,12.817,-95.458,1
1.049922,0.581,-0.265,0.084,87.402,14.953,-91.918,1
1.05655,0.602,-0.278,0.072,87.707,18.249,-88.073,1
1.063438,0.613,-0.282,0.052,87.829,21.972,-83.74,1
1.071053,0.626,-0.307,0.032,82.885,25.878,-79.772,1
1.078268,0.635,-0.329,0.006,71.35,30.517,-76.11,1
1.086604,0.641,-0.337,-0.011,54.382,35.339,-72.326,1
1.09344,0.657,-0.333,-0.021,38.818,39.733,-69.091,1
1.101421,0.668,-0.316,-0.028,27.465,43.212,-65.49,1
1.113749,0.671,-0.297,-0.018,23.986,45.532,-62.988,1
1.12073,0.646,-0.274,0.0,30.09,47.729,-57.922,1
1.129035,0.622,-0.27,0.011,36.437,49.194,-55.053,1
1.137524,0.59,-0.27,0.014,40.771,49.804,-52.551,1
1.143627,0.547,-0.268,0.033,42.846,51.147,-50.292,1
1.15236,0.501,-0.272,0.053,43.945,52.673,-48.095,1
1.159039,0.474,-0.288,0.071,43.823,55.053,-45.837,1
1.167363,0.437,-0.294,0.087,40.832,56.823,-44.433,1
1.175317,0.43,-0.302,0.105,40.466,59.692,-42.297,1
1.18323,0.401,-0.315,0.129,44.372,62.866,-40.283,1
1.190151,0.4,-0.329,0.14,51.33,65.49,-37.963,1
1.198835,0.354,-0.338,0.155,61.767,68.359,-35.583,1
1.205832,0.332,-0.36,0.159,72.937,71.777,-32.775,1
1.214377,0.279,-0.389,0.168,80.81,75.378,-29.296,1
1.222383,0.346,-0.432,0.164,84.838,80.017,-25.512,1
1.229334,0.34,-0.468,0.147,79.467,84.594,-21.057,1
1.235853,0.295,-0.491,0.138,69.519,89.477,-16.113,1
1.243831,0.261,-0.513,0.124,59.326,95.092,-11.474,1
1.252167,0.234,-0.524,0.107,49.133,99.731,-6.408,1
1.259341,0.198,-0.539,0.094,38.818,104.064,-2.258,1
1.265738,0.168,-0.55,0.083,30.151,108.703,2.624,1
1.273493,0.129,-0.569,0.076,25.939,111.999,7.751,1
1.281696,0.099,-0.581,0.061,25.39,115.417,12.939,1
1.288343,0.077,-0.573,0.055,29.296,117.736,18.188,1
1.295499,0.045,-0.582,0.041,35.644,119.262,23.498,1
1.30417,0.037,-0.582,0.026,47.851,121.582,29.663,1
1.311374,-0.003,-0.572,0.02,60.668,123.657,36.437,1
1.318388,-0.038,-0.585,-0.015,70.312,125.732,43.762,1
1.326857,-0.081,-0.616,-0.045,73.547,129.211,51.696,1
1.333112,-0.174,-0.628,-0.069,71.472,132.751,60.302,1
1.340261,-0.225,-0.655,-0.078,62.011,137.146,68.969,1
1.348997,-0.285,-0.675,-0.138,43.64,142.578,77.88,1
1.355704,-0.335,-0.661,-0.156,23.071,147.827,86.669,1
1.364324,-0.393,-0.66,-0.196,1.586,153.32,95.458,1
1.372603,-0.473,-0.631,-0.19,-14.16,158.874,104.614,1
1.379328,-0.608,-0.595,-0.246,-22.399,163.757,113.464,1
1.38714,-0.695,-0.561,-0.223,-22.46,167.419,122.497,1
1.395151,-0.783,-0.527,-0.238,-12.695,170.471,133.056,1
1.40379,-0.85,-0.521,-0.239,0.915,174.011,142.578,1
1.411849,-0.971,-0.554,-0.357,-1.037,177.917,151.367,1
1.420074,-1.18,-0.556,-0.359,-9.46,182.922,159.79,1
1.426777,-1.402,-0.541,-0.456,-18.798,190.185,169.799,1
1.436275,-1.544,-0.518,-0.46,-24.658,195.495,179.138,1
1.445248,-1.55,-0.465,-0.502,-18.493,199.645,190.673,1
1.454153,-1.645,-0.406,-0.508,5.493,202.392,203.857,1
1.46109,-1.744,-0.389,-0.584,37.475,200.317,216.003,1
1.467982,-1.814,-0.386,-0.655,81.542,197.204,233.154,1
1.476768,-1.911,-0.411,-0.759,109.619,191.711,247.375,1
1.486031,-2.056,-0.44,-0.817,125.61,187.561,267.517,1
1.494335,-2.152,-0.383,-0.879,135.253,179.565,283.813,1
1.502674,-2.321,-0.306,-0.875,162.841,170.227,303.894,1
1.509582,-2.38,-0.303,-0.941,185.546,154.785,321.655,1
1.517848,-2.555,-0.353,-0.901,199.401,139.709,342.59,1
1.526491,-2.687,-0.34,-0.901,201.293,125.732,362.67,1
1.533409,-2.771,-0.269,-0.919,209.899,108.581,383.056,1
1.541975,-2.897,-0.202,-0.962,240.966,85.937,404.846,1
1.550167,-3.152,-0.154,-0.993,272.216,60.974,424.133,1
1.558414,-3.398,-0.11,-1.063,320.129,29.785,447.448,1
1.566349,-3.712,-0.067,-1.1,361.999,-4.943,466.186,1
1.575989,-3.932,-0.064,-1.124,400.878,-46.264,488.403,1
1.582853,-4.189,-0.033,-1.109,424.072,-86.242,505.615,1
1.591006,-4.539,0.065,-1.076,450.378,-136.352,522.705,1
1.59895,-4.979,0.185,-1.081,473.022,-180.603,534.179,1
1.60743,-5.433,0.284,-1.101,493.164,-225.708,542.297,1
1.615963,-6.034,0.324,-1.098,499.633,-278.808,547.607,1
1.623856,-6.552,0.37,-1.111,489.624,-324.707,548.645,1
1.631555,-7.039,0.431,-1.066,450.988,-365.661,548.217,1
1.638421,-7.34,0.576,-0.964,378.662,-406.738,547.18,1
1.646639,-7.753,0.839,-0.823,317.321,-435.363,547.668,1
1.655174,-8.173,1.187,-0.655,284.545,-463.378,548.339,1
1.662717,-8.568,1.545,-0.418,297.485,-497.924,546.875,1
1.671345,-8.817,1.831,-0.256,352.905,-533.386,540.832,1
1.680594,-9.215,1.956,-0.03,445.251,-578.674,524.353,1
1.687168,-9.573,2.014,0.1,514.892,-617.004,500.671,1
1.69542,-9.861,2.008,0.186,569.03,-655.029,467.895,1
1.703341,-9.9,1.973,0.348,606.384,-683.776,427.734,1
1.712169,-9.795,1.828,0.418,614.624,-709.411,374.45,1
1.721016,-9.77,2.002,0.684,596.313,-718.322,323.242,1
1.72804,-9.885,2.129,0.927,530.822,-705.322,260.07,1
1.736648,-9.099,1.726,0.877,436.645,-694.763,213.867,1
1.744002,-8.382,1.679,1.211,394.531,-681.152,183.044,1
1.75247,-7.881,1.776,1.337,397.705,-667.663,149.169,1
1.75974,-7.627,1.848,1.473,423.95,-651.428,111.999,1
1.767705,-7.293,1.898,1.561,474.06,-637.512,61.34,1
1.776529,-6.772,1.851,1.504,518.615,-619.812,15.563,1
1.784976,-6.236,1.706,1.49,539.001,-606.567,-30.273,1
1.793624,-5.938,1.551,1.45,545.776,-582.519,-80.688,1
1.801205,-5.804,1.439,1.498,524.23,-556.701,-121.337,1
1.809219,-5.313,1.269,1.574,451.782,-514.648,-160.949,1
1.816144,-5.016,1.192,1.627,366.76,-484.436,-186.523,1
1.825313,-4.824,1.195,1.658,298.278,-449.707,-204.04,1
1.832347,-4.415,1.269,1.679,259.094,-423.217,-222.29,1
1.841149,-4.082,1.207,1.666,261.596,-393.127,-236.267,1
1.84895,-3.837,1.107,1.589,262.329,-368.896,-252.502,1
1.857407,-3.592,0.978,1.467,256.652,-340.698,-263.488,1
1.865609,-3.381,0.847,1.365,218.505,-313.72,-274.169,1
1.874065,-3.211,0.777,1.239,174.133,-288.146,-280.273,1
1.883438,-3.122,0.75,1.211,117.37,-263.0,-284.484,1
1.890093,-2.916,0.723,1.171,71.289,-240.722,-285.949,1
1.898174,-2.696,0.677,1.226,44.799,-223.571,-285.095,1
1.906516,-2.565,0.659,1.223,31.799,-210.571,-284.301,1
1.914305,-2.47,0.629,1.274,34.912,-195.678,-282.592,1
1.923059,-2.376,0.589,1.26,39.733,-185.119,-281.005,1
1.931155,-2.28,0.515,1.281,45.166,-170.715,-278.564,1
1.939418,-2.153,0.449,1.26,44.921,-159.729,-276.428,1
1.94753,-2.004,0.364,1.274,43.579,-144.775,-272.46,1
1.955688,-1.851,0.294,1.247,36.743,-133.483,-268.432,1
1.964202,-1.68,0.244,1.243,33.203,-120.117,-263.122,1
1.972054,-1.67,0.199,1.228,27.099,-108.703,-257.385,1
1.979771,-1.511,0.156,1.216,17.395,-97.534,-251.586,1
1.988786,-1.382,0.107,1.208,4.516,-86.181,-245.239,1
1.995776,-1.249,0.068,1.193,-9.399,-74.646,-237.609,1
2.004359,-1.17,0.049,1.193,-15.319,-65.063,-230.163,1
2.01367,-1.064,0.038,1.187,-9.704,-55.419,-221.984,1
2.020802,-0.973,0.0,1.188,4.15,-46.264,-213.378,1
2.029368,-0.865,-0.038,1.153,15.319,-39.062,-206.359,1
2.037707,-0.817,-0.088,1.135,25.939,-29.357,-197.692,1
2.04655,-0.719,-0.147,1.081,31.921,-20.629,-189.086,1
2.055752,-0.666,-0.189,1.039,34.057,-12.207,-181.03,1
2.063279,-0.645,-0.212,0.999,35.034,-3.54,-172.241,1
2.072737,-0.564,-0.237,0.944,33.508,5.92,-163.391,1
2.080099,-0.491,-0.268,0.892,26.489,13.244,-156.188,1
2.087366,-0.41,-0.271,0.842,16.723,22.094,-147.888,1
2.096763,-0.341,-0.258,0.795,12.023,28.198,-141.54,1
2.10437,-0.273,-0.239,0.731,11.352,33.935,-134.094,1
2.113815,-0.186,-0.222,0.692,13.427,38.696,-128.051,1
2.120456,-0.077,-0.201,0.644,19.714,43.09,-121.52,1
2.128257,-0.055,-0.178,0.596,26.733,46.569,-115.295,1
2.137107,-0.023,-0.147,0.556,36.315,49.438,-109.924,1
2.145728,-0.006,-0.118,0.514,49.926,51.879,-104.736,1
2.152521,0.014,-0.101,0.462,64.636,54.504,-98.632,1
2.160358,0.07,-0.103,0.41,69.152,57.8,-93.688,1
2.167822,0.124,-0.104,0.373,62.622,61.401,-88.5,1
2.175912,0.211,-0.114,0.339,48.95,65.246,-83.923,1
2.185056,0.282,-0.104,0.311,27.221,69.458,-78.002,1
2.19264,0.364,-0.091,0.276,8.972,71.594,-73.242,1
2.200044,0.439,-0.056,0.26,-6.713,73.974,-68.847,1
2.208942,0.498,-0.032,0.23,-20.69,74.89,-64.27,1
2.216675,0.541,-0.002,0.21,-26.428,75.195,-60.058,1
2.224045,0.58,0.025,0.189,-25.939,74.34,-56.762,1
2.232484,0.618,0.064,0.175,-16.174,73.181,-52.856,1
2.241039,0.671,0.087,0.153,-5.187,71.166,-50.109,1
2.246942,0.707,0.084,0.138,6.713,70.617,-47.241,1
2.255963,0.776,0.104,0.115,9.826,69.946,-44.433,1
2.264674,0.839,0.104,0.119,12.329,69.885,-42.053,1
2.271733,0.871,0.104,0.094,14.16,69.213,-39.306,1
2.279154,0.933,0.107,0.073,18.127,68.664,-36.254,1
2.288399,0.983,0.124,0.063,23.315,68.115,-33.691,1
2.294604,0.97,0.139,0.036,36.193,67.138,-31.738,1
2.302009,1.103,0.145,0.033,50.048,64.636,-29.846,1
2.311025,1.158,0.135,-0.015,60.852,62.072,-26.916,1
2.317807,1.166,0.125,-0.024,67.443,59.875,-23.62,1
2.326385,1.176,0.121,-0.056,69.58,57.922,-19.897,1
2.334112,1.166,0.137,-0.064,69.946,55.969,-16.174,1
2.34217,1.167,0.137,-0.095,66.345,54.748,-13.549,1
2.350825,1.104,0.131,-0.101,57.312,54.443,-9.887,1
2.358407,1.094,0.119,-0.128,44.372,54.199,-6.774,1
2.365453,1.099,0.124,-0.113,34.301,54.809,-4.15,1
2.375083,1.117,0.137,-0.13,26.794,54.199,-2.197,1
2.381199,1.126,0.173,-0.118,27.526,53.71,-0.549,1
2.391255,1.121,0.194,-0.128,36.01,52.246,0.244,1
2.396645,1.106,0.218,-0.101,52.734,50.537,1.525,1
2.404645,1.094,0.239,-0.109,67.443,48.95,2.319,1
2.413396,1.056,0.25,-0.099,86.73,45.41,3.173,1
2.420846,1.025,0.257,-0.111,100.646,43.579,3.906,1
2.428947,0.878,0.34,-0.094,118.164,41.32,5.676,1
2.436122,0.884,0.375,-0.099,145.568,39.855,6.347,1
2.444156,0.919,0.397,-0.107,165.161,37.353,6.408,1
2.451358,0.922,0.414,-0.109,182.983,35.827,6.042,1
2.460355,0.944,0.429,-0.131,191.223,32.775,5.615,1
2.467582,0.91,0.45,-0.115,192.626,32.836,5.371,1
2.475078,0.884,0.491,-0.129,188.72,31.311,4.455,1
2.483875,0.853,0.568,-0.085,187.255,31.005,2.807,1
2.491433,0.836,0.613,-0.071,186.645,30.029,0.732,1
2.500719,0.84,0.634,-0.037,185.974,32.104,-1.464,1
2.507801,0.837,0.636,-0.043,175.781,33.081,-4.577,1
2.51659,0.875,0.626,0.009,164.062,35.827,-6.469,1
2.525565,0.893,0.602,0.023,151.123,37.231,-8.911,1
2.534723,0.927,0.583,0.054,146.423,39.733,-10.192,1
2.542291,0.979,0.575,0.068,149.658,40.344,-10.803,1
2.549426,0.985,0.558,0.08,158.02,40.771,-11.047,1
2.557106,0.913,0.55,0.092,171.752,39.55,-10.498,1
2.566155,0.968,0.534,0.1,192.626,39.001,-9.338,1
2.573805,1.019,0.511,0.095,216.735,35.034,-7.446,1
2.582762,1.038,0.48,0.092,234.497,33.569,-5.554,1
2.58963,1.028,0.44,0.089,239.379,30.822,-3.356,1
2.598169,0.985,0.414,0.108,231.384,30.273,-0.488,1
2.605225,0.921,0.41,0.126,218.872,29.907,1.892,1
2.612791,0.854,0.417,0.152,209.472,30.944,4.699,1
2.620987,0.808,0.43,0.166,200.012,31.799,7.141,1
2.628317,0.76,0.437,0.187,191.284,33.752,9.704,1
2.635834,0.728,0.446,0.217,180.908,35.583,12.451,1
2.645311,0.711,0.458,0.245,174.499,37.902,14.77,1
2.652408,0.701,0.466,0.275,169.494,40.222,17.089,1
2.659447,0.701,0.467,0.295,165.954,42.785,18.737,1
2.668761,0.694,0.472,0.309,161.193,45.043,20.69,1
2.675176,0.699,0.481,0.327,155.639,48.461,22.338,1
2.684783,0.702,0.489,0.331,145.751,51.818,24.353,1
2.691181,0.71,0.5,0.338,134.765,55.175,25.573,1
2.698123,0.742,0.509,0.345,125.305,58.654,26.428,1
2.705934,0.734,0.502,0.349,116.149,61.462,27.404,1
2.715073,0.75,0.495,0.342,106.262,64.697,28.137,1
2.723532,0.75,0.494,0.335,94.238,67.504,28.93,1
2.731081,0.743,0.506,0.314,80.932,70.373,29.296,1
2.738214,0.728,0.496,0.296,69.458,72.509,29.907,1
2.747401,0.808,0.508,0.294,59.02,73.974,30.151,1
2.75485,0.768,0.507,0.276,56.762,75.378,30.395,1
2.763355,0.739,0.518,0.263,56.884,75.073,30.944,1
2.771184,0.76,0.528,0.261,58.349,75.683,31.86,1
2.778013,0.749,0.548,0.256,61.157,75.622,31.799,1
2.785135,0.68,0.554,0.237,71.228,75.988,30.761,1
2.794254,0.648,0.552,0.216,75.195,74.829,31.738,1
2.800267,0.684,0.56,0.218,78.613,74.707,32.104,1
2.807785,0.682,0.563,0.206,79.589,74.035,32.653,1
2.814881,0.645,0.545,0.197,77.209,73.913,33.691,1
2.822387,0.702,0.504,0.181,56.518,73.547,36.743,1
2.8296,0.795,0.548,0.235,51.33,75.988,35.766,1
2.836969,0.734,0.584,0.22,59.02,76.721,35.339,1
2.844617,0.67,0.619,0.216,74.096,77.514,35.156,1
2.852135,0.662,0.623,0.171,80.688,77.27,35.888,1
2.859607,0.67,0.629,0.165,81.42,78.186,35.949,1
2.86815,0.655,0.627,0.147,77.88,78.552,36.193,1
2.876334,0.635,0.637,0.145,75.073,78.735,36.865,1
2.883089,0.637,0.58,0.114,60.974,79.162,38.696,1
2.89101,0.723,0.634,0.155,42.602,81.237,39.855,1
2.897697,0.732,0.656,0.147,37.17,82.641,39.062,1
2.905191,0.7,0.686,0.171,40.893,83.251,38.818,1
2.91393,0.696,0.695,0.161,50.659,83.801,39.062,1
2.921715,0.714,0.732,0.196,73.547,82.58,37.414,1
2.92872,0.639,0.697,0.157,92.163,82.275,37.475,1
2.936202,0.621,0.665,0.15,101.501,81.298,37.292,1
2.943415,0.603,0.626,0.133,103.088,81.787,36.865,1
2.952602,0.56,0.607,0.119,98.083,82.397,36.804,1
2.959719,0.548,0.585,0.101,91.003,83.251,37.109,1
2.967001,0.565,0.551,0.099,83.312,83.618,37.414,1
2.975031,0.582,0.553,0.089,76.843,84.838,37.78,1
2.982216,0.581,0.549,0.083,73.303,85.632,38.696,1
2.988918,0.577,0.565,0.069,73.059,87.158,39.733,1
2.998111,0.565,0.591,0.051,73.73,87.89,40.283,1
3.005342,0.564,0.621,0.024,73.059,89.416,40.954,1
3.013783,0.562,0.642,0.0,67.565,91.491,41.076,1
3.021506,0.551,0.664,-0.014,60.424,93.383,41.076,1
3.028969,0.608,0.663,-0.019,57.983,94.787,41.015,1
3.038751,0.635,0.672,-0.026,55.541,95.581,41.259,1
3.046399,0.681,0.689,-0.04,53.71,95.336,41.198,1
3.053512,0.731,0.715,-0.037,52.185,94.787,40.893,1
3.061873,0.765,0.738,-0.047,51.818,93.811,40.893,1
3.07003,0.807,0.776,-0.052,53.466,92.895,40.832,1
3.077966,0.837,0.817,-0.068,56.945,91.491,40.466,1
3.084395,0.861,0.867,-0.082,60.668,89.843,40.222,1
3.093154,0.883,0.897,-0.094,64.758,88.378,39.489,1
3.100105,0.904,0.937,-0.096,71.777,86.669,38.879,1
3.108943,0.949,0.967,-0.103,77.331,85.021,38.269,1
3.117993,0.978,1.021,-0.102,81.054,83.129,36.926,1
3.124969,0.993,1.074,-0.12,84.167,80.81,35.461,1
3.133377,1.031,1.114,-0.109,84.716,78.43,34.423,1
3.140296,1.038,1.188,-0.106,86.425,76.477,32.592,1
3.148688,1.164,1.223,-0.135,80.932,73.913,30.517,1
3.1571,1.047,1.348,-0.157,71.228,73.669,27.648,1
3.164105,1.086,1.458,-0.207,66.589,71.289,24.536,1
3.173787,1.122,1.518,-0.262,63.354,70.373,19.348,1
3.180279,1.129,1.554,-0.352,51.208,68.603,14.526,1
3.189465,1.115,1.587,-0.414,38.33,68.237,9.582,1
3.197747,1.083,1.615,-0.477,26.0,65.856,3.417,1
3.205056,1.05,1.642,-0.515,20.446,64.697,-1.77,1
3.212156,1.03,1.67,-0.557,19.409,62.683,-7.568,1
3.219469,1.011,1.691,-0.573,22.827,61.157,-13.366,1
3.226845,0.99,1.699,-0.582,30.7,60.18,-19.653,1
3.234993,0.992,1.694,-0.568,36.743,59.143,-25.878,1
3.243457,0.97,1.694,-0.553,40.771,58.471,-33.691,1
3.252214,0.948,1.691,-0.51,40.893,57.8,-40.222,1
3.260195,0.894,1.666,-0.469,44.982,55.908,-46.936,1
3.26654,0.852,1.622,-0.42,53.771,53.771,-54.138,1
3.275271,0.804,1.578,-0.392,60.913,50.598,-60.241,1
3.284453,0.741,1.505,-0.352,63.964,48.4,-65.856,1
3.29135,0.652,1.437,-0.317,60.363,46.142,-71.472,1
3.300034,0.63,1.378,-0.283,54.321,44.677,-76.782,1
3.306982,0.595,1.334,-0.237,46.752,43.884,-80.993,1
3.31642,0.785,1.163,-0.205,29.663,41.381,-85.998,1
3.325557,0.437,1.225,-0.129,26.123,41.015,-89.172,1
3.331497,0.557,1.179,-0.086,46.264,35.949,-93.078,1
3.339632,0.598,1.125,-0.049,69.885,34.118,-96.13,1
3.347685,0.562,1.067,-0.041,83.251,31.311,-98.205,1
3.355377,0.484,1.022,-0.032,82.702,31.982,-99.67,1
3.364773,0.513,0.828,-0.108,23.132,31.555,-92.773,1
3.371225,0.66,0.968,0.025,-7.995,34.729,-97.9,1
3.380065,0.429,1.064,0.024,-26.184,36.315,-101.379,1
3.388497,0.332,1.075,0.053,-14.16,33.508,-105.346,1
3.395737,0.37,1.11,0.068,14.648,30.395,-108.703,1
3.404703,0.437,1.123,0.095,44.372,28.747,-113.647,1
3.412117,0.369,1.088,0.062,61.279,28.076,-117.126,1
3.419638,0.409,1.049,0.082,65.917,27.832,-120.971,1
3.42865,0.421,1.021,0.073,67.993,29.785,-124.084,1
3.436305,0.415,0.98,0.086,60.729,32.531,-127.258,1
3.444021,0.424,0.95,0.074,55.114,35.278,-129.76,1
3.451887,0.43,0.922,0.098,46.447,37.414,-132.019,1
3.461657,0.435,0.914,0.09,39.855,39.611,-133.667,1
3.469301,0.464,0.936,0.109,43.273,41.259,-135.986,1
3.476749,0.469,0.929,0.093,44.067,42.358,-138.244,1
3.48607,0.496,0.902,0.075,40.405,44.372,-140.869,1
3.493661,0.545,0.872,0.059,33.386,46.63,-143.188,1
3.501793,0.562,0.853,0.048,27.221,49.255,-145.385,1
3.509865,0.595,0.829,0.041,25.024,51.086,-147.46,1
3.517197,0.551,0.796,0.02,19.897,53.283,-149.719,1
3.524641,0.517,0.765,0.012,16.296,55.541,-151.855,1
3.533388,0.451,0.738,0.008,16.479,57.373,-153.869,1
3.540848,0.382,0.708,0.01,19.348,58.532,-156.127,1
3.548969,0.334,0.668,0.017,26.672,59.997,-158.63,1
3.555263,0.294,0.599,0.014,33.63,61.645,-160.278,1
3.563113,0.258,0.519,0.008,35.278,64.025,-161.987,1
3.572187,0.225,0.425,0.011,31.005,66.711,-162.414,1
3.58022,0.188,0.319,0.018,22.583,69.763,-162.719,1
3.588127,0.153,0.226,0.018,8.605,73.547,-162.414,1
3.594792,0.126,0.144,0.022,-4.089,76.904,-161.865,1
3.603842,0.112,0.071,0.028,-12.939,79.772,-161.437,1
3.611374,0.059,0.003,0.038,-17.211,81.726,-160.949,1
3.618878,0.015,-0.063,0.043,-16.601,84.594,-160.461,1
3.627992,-0.024,-0.151,0.053,-11.413,86.242,-159.851,1
3.636503,-0.057,-0.251,0.061,0.427,88.623,-158.264,1
3.645046,-0.096,-0.35,0.069,15.808,90.82,-155.578,1
3.653062,-0.109,-0.413,0.084,34.301,94.177,-151.794,1
3.660756,-0.142,-0.492,0.075,51.94,96.313,-147.338,1
3.667784,-0.203,-0.58,0.084,66.833,101.379,-140.991,1
3.676916,-0.264,-0.658,0.078,70.8,105.59,-135.253,1
3.684396,-0.33,-0.723,0.077,70.007,111.328,-128.967,1
3.693332,-0.382,-0.819,0.054,59.02,118.347,-120.117,1
3.699721,-0.389,-0.89,0.052,43.273,124.572,-112.487,1
3.708726,-0.492,-0.959,0.011,26.123,131.347,-104.675,1
3.715625,-0.547,-1.013,0.0,11.291,137.329,-94.97,1
3.7245,-0.575,-1.056,-0.014,11.108,142.028,-86.181,1
3.733539,-0.592,-1.113,-0.056,22.094,146.423,-74.584,1
3.743538,-0.586,-1.191,-0.095,36.193,150.939,-61.645,1
3.749964,-0.6,-1.25,-0.134,40.466,155.212,-47.729,1
3.760669,-0.639,-1.289,-0.181,36.743,159.057,-34.912,1
3.769596,-0.688,-1.374,-0.237,25.329,165.283,-20.324,1
3.777933,-0.811,-1.407,-0.26,6.713,171.142,-1.464,1
3.786431,-0.911,-1.414,-0.285,-3.967,175.537,12.512,1
3.794825,-1.015,-1.401,-0.312,-10.925,180.053,28.869,1
3.803686,-1.189,-1.357,-0.333,-10.498,183.471,43.273,1
3.811858,-1.268,-1.291,-0.365,-2.99,186.95,62.011,1
3.818621,-1.358,-1.257,-0.392,12.817,188.232,76.66,1
3.827369,-1.437,-1.239,-0.428,32.714,189.392,92.59,1
3.837126,-1.576,-1.272,-0.452,50.415,190.246,113.037,1
3.845733,-1.637,-1.313,-0.472,55.297,192.199,131.713,1
3.852938,-1.742,-1.345,-0.498,44.799,195.312,158.02,1
3.860089,-1.91,-1.263,-0.482,38.269,197.937,177.49,1
3.868682,-2.128,-1.228,-0.479,38.696,198.181,198.303,1
3.877128,-2.366,-1.156,-0.51,77.758,196.838,224.365,1
3.885507,-2.657,-1.016,-0.55,150.512,190.856,252.441,1
3.895124,-2.708,-1.101,-0.678,229.614,180.725,281.188,1
3.903739,-3.009,-1.164,-0.829,307.312,163.574,317.871,1
3.91157,-3.337,-1.257,-0.909,331.542,145.629,358.886,1
3.920188,-3.575,-1.219,-0.959,327.453,127.563,400.634,1
3.92852,-3.955,-1.145,-0.894,324.035,110.412,438.049,1
3.937368,-4.286,-1.084,-0.989,336.364,84.716,474.731,1
3.945322,-4.566,-0.981,-0.942,381.896,49.926,519.104,1
3.952578,-5.117,-0.812,-0.974,454.101,9.704,564.88,1
3.960279,-5.64,-0.859,-0.983,470.275,-34.973,603.515,1
3.968624,-6.038,-0.678,-1.087,518.493,-77.453,639.404,1
3.976327,-6.981,-0.547,-0.916,541.442,-144.348,675.964,1
3.984752,-7.544,-0.332,-1.09,588.684,-196.105,702.819,1
3.992024,-8.457,-0.248,-0.967,611.022,-265.319,725.341,1
3.999717,-9.243,0.075,-1.024,605.224,-325.988,737.487,1
4.008629,-10.263,0.326,-0.967,588.501,-392.456,741.21,1
4.017291,-11.09,0.562,-0.981,561.706,-440.185,738.769,1
4.023836,-11.937,0.858,-0.867,502.502,-498.046,728.698,1
4.033943,-12.51,1.187,-0.728,434.753,-534.118,716.796,1
4.041186,-13.015,1.52,-0.454,338.5,-588.867,696.411,1
4.050984,-13.298,1.808,-0.132,291.015,-618.347,682.434,1
4.058585,-13.637,2.024,0.135,274.414,-659.667,663.146,1
4.06693,-14.04,2.085,0.448,289.672,-694.274,646.606,1
4.075872,-14.678,2.27,0.742,332.885,-730.712,628.356,1
4.083444,-15.314,2.37,0.918,415.71,-763.61,601.501,1
4.091131,-15.854,2.463,1.222,505.31,-791.137,561.096,1
4.099424,-15.758,2.305,1.323,561.828,-814.941,509.033,1
4.108719,-14.975,2.259,1.715,594.177,-830.261,442.199,1
4.11557,-13.656,2.266,1.839,606.933,-838.439,374.938,1
4.123172,-12.792,2.333,2.003,628.479,-842.651,290.405,1
4.13195,-12.121,2.441,2.039,676.025,-843.078,211.364,1
4.142085,-11.233,2.395,2.127,753.295,-835.449,127.38,1
4.149255,-10.349,2.137,2.054,854.614,-821.411,8.056,1
4.15786,-9.849,1.877,1.987,891.235,-788.391,-96.191,1
4.166752,-9.408,1.604,1.846,871.093,-753.906,-178.283,1
4.17397,-8.753,1.307,1.735,806.945,-697.57,-258.056,1
4.18343,-7.609,0.916,1.531,742.37,-645.69,-311.645,1
4.189939,-6.905,0.664,1.413,678.1,-581.359,-357.36,1
4.199454,-6.246,0.487,1.274,622.985,-529.785,-385.986,1
4.206446,-5.822,0.358,1.216,560.119,-477.233,-408.325,1
4.214982,-5.469,0.189,1.206,452.697,-418.457,-424.926,1
4.22333,-5.143,0.116,1.238,334.411,-369.079,-431.762,1
4.229803,-4.942,0.139,1.28,222.961,-331.481,-433.227,1
4.23866,-4.814,0.203,1.365,152.343,-300.109,-430.175,1
4.246378,-4.643,0.261,1.442,127.624,-278.442,-425.781,1
4.254505,-4.422,0.23,1.502,146.179,-254.821,-421.386,1
4.262526,-4.221,0.134,1.538,175.353,-232.116,-418.273,1
4.270256,-4.056,0.024,1.577,198.791,-209.594,-415.405,1
4.278372,-3.836,-0.114,1.561,206.848,-183.349,-411.682,1
4.286288,-3.585,-0.247,1.545,205.688,-157.958,-406.555,1
4.295494,-3.324,-0.372,1.524,193.725,-135.253,-399.597,1
4.303128,-2.973,-0.52,1.528,175.353,-107.727,-387.512,1
4.314066,-2.628,-0.583,1.521,158.325,-84.045,-374.084,1
4.321946,-2.26,-0.665,1.493,145.385,-60.791,-358.52,1
4.330915,-1.998,-0.749,1.494,141.357,-38.94,-341.979,1
4.339025,-1.745,-0.813,1.444,133.422,-20.629,-324.401,1
4.345651,-1.631,-0.821,1.426,130.249,-2.685,-309.692,1
4.353261,-1.48,-0.838,1.347,124.877,10.314,-294.86,1
4.362026,-1.378,-0.849,1.354,126.342,25.573,-279.663,1
4.369374,-1.253,-0.844,1.235,127.685,39.001,-261.84,1
4.377038,-1.108,-0.841,1.212,133.178,51.33,-247.558,1
4.387145,-1.002,-0.834,1.125,138.0,60.241,-233.032,1
4.394621,-0.953,-0.831,1.087,141.357,72.753,-214.904,1
4.40126,-0.84,-0.815,0.989,133.667,80.017,-200.866,1
4.409699,-0.774,-0.797,0.983,125.854,88.989,-186.584,1
4.418513,-0.686,-0.766,0.873,112.243,96.313,-170.715,1
4.427006,-0.648,-0.742,0.858,97.29,104.187,-157.409,1
4.434229,-0.565,-0.676,0.778,87.829,108.032,-142.272,1
4.443322,-0.445,-0.664,0.765,99.426,112.365,-130.554,1
4.452121,-0.357,-0.575,0.685,113.464,113.891,-116.333,1
4.460437,-0.284,-0.567,0.633,129.089,116.882,-102.783,1
4.469305,-0.167,-0.555,0.565,132.629,116.21,-89.904,1
4.476462,-0.09,-0.565,0.536,125.488,117.98,-78.918,1
4.485297,-0.052,-0.537,0.504,112.609,118.408,-68.42,1
4.492689,-0.01,-0.497,0.49,107.177,120.544,-56.701,1
4.50038,0.009,-0.462,0.46,104.858,120.3,-47.851,1
4.508555,0.041,-0.431,0.435,102.478,121.276,-39.123,1
4.51635,0.044,-0.416,0.398,95.336,120.666,-31.127,1
4.524247,0.086,-0.392,0.38,86.669,121.215,-22.399,1
4.533508,0.17,-0.366,0.362,79.04,119.873,-15.869,1
4.541598,0.224,-0.339,0.348,73.486,119.14,-8.85,1
4.549276,0.258,-0.302,0.342,72.692,117.187,-3.784,1
4.557234,0.289,-0.272,0.322,75.439,115.966,1.525,1
4.566304,0.325,-0.244,0.319,79.65,114.013,5.126,1
4.572143,0.345,-0.234,0.296,86.914,112.609,9.094,1
4.580873,0.374,-0.223,0.271,92.834,110.473,12.023,1
4.587847,0.397,-0.213,0.251,97.29,109.191,14.77,1
4.596633,0.434,-0.202,0.228,96.984,107.849,17.639,1
4.605161,0.451,-0.187,0.21,94.787,107.238,19.47,1
4.61238,0.445,-0.157,0.188,93.566,106.079,20.629,1
4.619723,0.449,-0.128,0.171,95.336,105.346,21.24,1
4.629024,0.509,-0.113,0.171,99.426,103.881,21.911,1
4.636649,0.508,-0.093,0.155,101.745,103.515,22.46,1
4.643485,0.516,-0.061,0.164,102.416,103.149,22.888,1
4.652538,0.52,-0.045,0.154,101.135,103.332,23.376,1
4.659869,0.552,-0.029,0.153,98.388,103.454,23.62,1
4.668485,0.573,-0.009,0.141,94.909,104.064,23.864,1
4.674826,0.572,0.007,0.137,88.745,104.98,23.742,1
4.685144,0.578,0.025,0.121,79.345,106.262,23.681,1
4.690719,0.596,0.03,0.124,68.908,106.872,23.498,1
4.699485,0.637,0.035,0.109,58.105,107.177,23.376,1
4.707627,0.652,0.051,0.112,48.278,107.116,22.827,1
4.71449,0.674,0.072,0.105,44.982,106.689,21.972,1
4.721953,0.648,0.087,0.103,48.339,105.468,20.996,1
4.729169,0.704,0.098,0.095,56.518,104.003,20.507,1
4.738055,0.744,0.123,0.087,67.993,102.172,20.69,1
4.746214,0.8,0.152,0.078,82.214,100.83,20.751,1
4.754867,0.836,0.164,0.068,99.853,98.999,21.301,1
4.762658,0.85,0.165,0.053,113.708,97.839,21.789,1
4.770856,0.85,0.154,0.031,122.192,98.144,22.521,1
4.778993,0.841,0.136,-0.005,121.826,99.487,23.01,1
4.786962,0.837,0.125,-0.032,111.206,102.172,23.803,1
4.794804,0.845,0.124,-0.07,94.787,105.224,23.254,1
4.802812,0.833,0.125,-0.086,74.951,108.581,22.338,1
4.811065,0.826,0.128,-0.12,52.612,110.778,20.751,1
4.817778,0.804,0.138,-0.126,32.531,113.525,19.287,1
4.825075,0.805,0.152,-0.144,16.601,114.868,17.211,1
4.834147,0.821,0.164,-0.156,13.183,115.417,15.991,1
4.840979,0.836,0.194,-0.16,20.69,115.905,15.014,1
4.848789,0.859,0.197,-0.169,35.888,115.356,14.282,1
4.856605,0.862,0.208,-0.19,57.617,113.952,13.916,1
4.863365,0.849,0.216,-0.209,78.979,112.304,13.793,1
4.871583,0.893,0.215,-0.223,104.919,110.351,14.404,1
4.880232,0.864,0.217,-0.253,131.896,107.543,16.052,1
4.887476,0.855,0.22,-0.272,149.841,105.957,17.15,1
4.895985,0.829,0.225,-0.282,165.527,103.088,18.371,1
4.903616,0.772,0.244,-0.33,176.452,102.783,19.714,1
4.91037,0.74,0.272,-0.315,184.631,100.585,19.653,1
4.918891,0.704,0.285,-0.316,189.575,99.853,20.263,1
4.926895,0.652,0.305,-0.328,191.528,99.426,20.507,1
4.934255,0.625,0.35,-0.33,194.458,100.28,20.751,1
4.94326,0.612,0.365,-0.331,197.692,99.121,20.874,1
4.950726,0.625,0.375,-0.336,201.599,98.815,21.972,1
4.95854,0.632,0.383,-0.342,204.284,97.839,23.071,1
4.966185,0.631,0.394,-0.353,203.979,96.74,24.658,1
4.974651,0.639,0.412,-0.36,199.035,95.52,26.367,1
4.981217,0.673,0.423,-0.376,191.955,94.421,27.77,1
4.990379,0.715,0.456,-0.367,186.828,93.566,28.991,1
4.999229,0.738,0.491,-0.373,185.363,92.956,30.456,1
5.00599,0.733,0.539,-0.374,187.622,93.261,30.883,1
5.013284,0.708,0.579,-0.382,189.27,92.773,31.372,1
5.021818,0.68,0.62,-0.384,188.354,93.261,31.921,1
5.029125,0.677,0.66,-0.4,185.058,93.444,31.982,1
5.0364,0.658,0.693,-0.408,177.856,94.116,31.677,1
5.043803,0.658,0.733,-0.44,166.198,94.97,31.616,1
5.053131,0.668,0.77,-0.457,147.583,95.703,30.578,1
5.06039,0.679,0.814,-0.495,131.042,96.618,29.418,1
5.069363,0.664,0.877,-0.529,116.516,96.801,27.465,1
5.076949,0.652,0.931,-0.553,106.018,96.984,24.597,1
5.083971,0.641,0.972,-0.563,102.233,96.618,21.789,1
5.092741,0.612,1.013,-0.58,102.6,97.229,18.92,1
5.103352,0.633,1.033,-0.578,105.163,96.679,14.892,1
5.110362,0.624,1.048,-0.599,106.811,96.374,11.291,1
5.119369,0.632,1.049,-0.588,103.759,96.252,8.117,1
5.126651,0.66,1.042,-0.616,99.304,95.52,5.065,1
5.135108,0.646,1.061,-0.628,95.153,96.069,1.708,1
5.143399,0.643,1.045,-0.64,91.064,95.153,-1.342,1
5.150206,0.636,1.02,-0.663,87.524,95.092,-3.845,1
5.158207,0.6,0.991,-0.667,84.106,93.566,-6.896,1
5.167494,0.585,0.957,-0.707,81.298,93.566,-9.216,1
5.175909,0.553,0.945,-0.713,77.087,92.346,-11.657,1
5.183467,0.544,0.922,-0.741,71.838,93.139,-14.404,1
5.192261,0.518,0.902,-0.749,63.842,91.735,-16.723,1
5.198372,0.526,0.889,-0.741,62.866,91.613,-18.737,1
5.207535,0.527,0.877,-0.743,64.697,89.782,-20.446,1
5.21737,0.528,0.872,-0.713,75.805,87.036,-22.216,1
5.224461,0.55,0.824,-0.747,87.463,86.425,-22.949,1
5.231045,0.508,0.773,-0.762,93.383,83.618,-23.986,1
5.24073,0.519,0.726,-0.782,96.252,84.472,-23.986,1
5.247347,0.514,0.694,-0.77,91.613,84.594,-24.169,1
5.256225,0.537,0.663,-0.777,84.533,84.35,-24.169,1
5.263725,0.515,0.647,-0.768,71.838,84.899,-23.986,1
5.272874,0.487,0.645,-0.755,63.476,83.923,-24.108,1
5.280167,0.479,0.649,-0.734,59.997,83.862,-24.658,1
5.28802,0.461,0.642,-0.737,60.119,83.129,-24.719,1
5.295933,0.421,0.635,-0.75,58.654,82.397,-25.085,1
5.30378,0.385,0.624,-0.77,54.809,80.993,-25.817,1
5.311927,0.364,0.631,-0.787,55.419,79.895,-25.939,1
5.318962,0.384,0.623,-0.798,59.997,77.819,-26.245,1
5.328054,0.387,0.611,-0.825,67.138,75.866,-26.428,1
5.336678,0.452,0.595,-0.826,72.692,73.669,-26.306,1
5.344113,0.479,0.58,-0.855,76.416,71.289,-26.0,1
5.352668,0.518,0.58,-0.87,80.505,68.969,-25.024,1
5.361582,0.589,0.587,-0.889,84.716,66.04,-24.23,1
5.368939,0.588,0.57,-0.905,89.111,62.988,-23.315,1
5.378206,0.565,0.558,-0.912,89.904,60.852,-22.155,1
5.387528,0.557,0.538,-0.921,89.721,58.105,-20.751,1
5.395359,0.551,0.507,-0.954,81.481,56.03,-18.737,1
5.403047,0.574,0.504,-0.935,70.434,53.955,-16.906,1
5.411771,0.583,0.529,-0.93,66.284,51.635,-15.502,1
5.42061,0.552,0.537,-0.925,67.993,48.95,-13.977,1
5.428124,0.56,0.547,-0.926,71.228,45.776,-12.756,1
5.434902,0.572,0.571,-0.924,75.988,43.09,-12.207,1
5.442907,0.565,0.57,-0.927,81.115,39.367,-12.023,1
5.452506,0.541,0.57,-0.919,86.547,36.56,-11.657,1
5.459617,0.547,0.554,-0.908,88.317,33.386,-10.681,1
5.46725,0.57,0.528,-0.9,86.181,30.517,-9.216,1
5.475182,0.593,0.525,-0.885,82.885,28.198,-7.751,1
5.482661,0.604,0.526,-0.875,80.444,25.939,-6.347,1
5.492397,0.616,0.535,-0.86,79.711,23.742,-4.882,1
5.500201,0.616,0.54,-0.845,79.467,20.996,-3.356,1
5.508035,0.605,0.544,-0.828,78.369,18.31,-2.258,1
5.5168,0.579,0.556,-0.812,75.866,16.235,-0.793,1
5.523875,0.561,0.593,-0.802,72.753,14.038,-0.549,1
5.531686,0.561,0.654,-0.793,74.401,11.352,-1.403,1
5.540719,0.544,0.679,-0.787,78.613,7.995,-1.77,1
5.548107,0.545,0.687,-0.781,80.017,5.004,-1.77,1
5.555781,0.575,0.701,-0.773,76.965,2.685,-2.014,1
5.563173,0.589,0.713,-0.752,68.176,0.122,-2.319,1
5.571413,0.568,0.737,-0.753,61.706,-1.281,-2.807,1
5.580812,0.585,0.764,-0.737,54.809,-3.845,-4.089,1
5.589016,0.611,0.785,-0.738,52.917,-6.225,-4.638,1
5.59662,0.59,0.802,-0.708,51.818,-8.3,-5.493,1
5.605723,0.604,0.815,-0.707,48.706,-10.681,-6.408,1
5.615064,0.605,0.812,-0.696,45.776,-12.756,-7.385,1
5.621735,0.612,0.812,-0.677,43.518,-14.831,-8.056,1
5.631044,0.62,0.807,-0.667,44.921,-16.479,-8.544,1
5.63762,0.618,0.805,-0.648,45.41,-17.944,-9.46,1
5.645937,0.635,0.792,-0.645,45.043,-19.653,-10.192,1
5.654829,0.63,0.788,-0.624,44.25,-20.446,-10.986,1
5.662951,0.644,0.781,-0.615,42.48,-21.911,-11.169,1
5.669879,0.656,0.774,-0.582,41.809,-21.85,-11.779,1
5.680373,0.681,0.781,-0.567,41.992,-22.766,-12.268,1
5.687895,0.694,0.772,-0.541,40.832,-22.155,-12.451,1
5.695641,0.7,0.773,-0.528,35.888,-21.484,-13.061,1
5.704592,0.709,0.772,-0.52,28.381,-20.019,-13.244,1
5.712103,0.713,0.787,-0.514,17.822,-18.615,-13.916,1
5.72194,0.734,0.796,-0.51,5.126,-17.15,-14.709,1
5.730689,0.761,0.803,-0.497,-11.657,-14.892,-15.808,1
5.737696,0.782,0.808,-0.481,-24.291,-13.366,-16.296,1
5.745358,0.809,0.827,-0.463,-34.423,-11.962,-17.333,1
5.754328,0.814,0.834,-0.455,-41.015,-10.437,-18.676,1
5.762289,0.823,0.86,-0.432,-50.231,-7.873,-19.897,1
5.769965,0.827,0.862,-0.422,-61.889,-5.92,-21.484,1
5.778919,0.851,0.875,-0.413,-75.134,-3.601,-23.193,1
5.787598,0.881,0.889,-0.388,-88.989,-1.586,-24.963,1
5.795866,0.878,0.912,-0.374,-96.984,0.305,-26.916,1
5.804121,0.864,0.91,-0.357,-105.346,1.342,-29.235,1
5.81153,0.872,0.915,-0.346,-110.778,2.441,-31.127,1
5.821044,0.885,0.916,-0.321,-114.501,3.112,-33.508,1
5.828774,0.907,0.94,-0.306,-113.83,4.028,-35.4,1
5.836569,0.932,0.985,-0.28,-105.407,2.685,-37.963,1
5.845372,0.944,1.042,-0.254,-87.158,1.342,-40.222,1
5.853071,0.954,1.064,-0.236,-60.119,-1.22,-43.212,1
5.861443,0.949,1.059,-0.244,-37.78,-2.746,-46.264,1
5.86939,0.95,1.049,-0.263,-24.902,-4.516,-48.706,1
5.878584,0.952,1.053,-0.264,-18.127,-5.126,-51.025,1
5.887555,0.938,1.068,-0.288,-15.991,-6.225,-54.138,1
5.896205,0.928,1.122,-0.304,-14.282,-6.408,-57.312,1
5.904182,0.878,1.208,-0.334,-5.981,-8.605,-61.401,1
5.912842,0.83,1.277,-0.363,11.962,-11.352,-66.101,1
5.921553,0.809,1.325,-0.404,34.851,-15.319,-71.105,1
5.92922,0.816,1.351,-0.432,53.161,-18.249,-75.439,1
5.936636,0.792,1.358,-0.445,67.932,-21.667,-80.505,1
5.94471,0.784,1.358,-0.452,74.89,-24.047,-85.266,1
5.953221,0.758,1.367,-0.455,84.472,-25.756,-89.538,1
5.960112,0.776,1.351,-0.471,90.026,-28.076,-94.055,1
5.96916,0.747,1.336,-0.479,90.393,-28.991,-98.205,1
5.97847,0.74,1.312,-0.498,83.801,-30.578,-103.759,1
5.986382,0.7,1.31,-0.502,79.467,-31.127,-108.337,1
5.995569,0.673,1.281,-0.518,78.674,-33.386,-112.976,1
6.003766,0.644,1.232,-0.522,80.078,-34.179,-116.821,1
6.012095,0.626,1.179,-0.524,77.575,-35.644,-121.459,1
6.01892,0.602,1.115,-0.52,72.937,-35.095,-125.793,1
6.029413,0.625,1.042,-0.506,66.528,-35.522,-129.089,1
6.03788,0.633,0.978,-0.508,66.345,-35.644,-132.507,1
6.045501,0.642,0.899,-0.487,69.213,-36.56,-135.62,1
6.052774,0.633,0.833,-0.483,72.021,-36.987,-137.634,1
6.060102,0.666,0.77,-0.465,72.692,-37.109,-139.099,1
6.068291,0.767,0.686,-0.453,65.856,-35.766,-140.014,1
6.076902,0.73,0.644,-0.44,57.067,-35.583,-141.296,1
6.084004,0.705,0.637,-0.403,54.016,-34.057,-142.15,1
6.09251,0.702,0.601,-0.392,52.673,-34.301,-143.31,1
6.1017,0.644,0.597,-0.348,60.363,-33.63,-144.104,1
6.110428,0.608,0.567,-0.323,70.495,-34.667,-145.385,1
6.118683,0.561,0.524,-0.3,83.312,-34.423,-146.423,1
6.12808,0.551,0.462,-0.249,89.538,-34.057,-147.216,1
6.136235,0.541,0.405,-0.241,92.529,-33.264,-147.277,1
6.144202,0.548,0.35,-0.185,92.224,-31.555,-147.338,1
6.152493,0.558,0.306,-0.175,85.998,-28.381,-146.789,1
6.16005,0.517,0.274,-0.142,81.115,-25.634,-146.118,1
6.168479,0.523,0.25,-0.136,74.401,-22.644,-145.568,1
6.176011,0.481,0.24,-0.11,70.007,-19.348,-144.897,1
6.18489,0.492,0.222,-0.112,66.711,-16.723,-145.019,1
6.194373,0.475,0.207,-0.097,63.903,-13.61,-145.08,1
6.200237,0.462,0.191,-0.099,62.744,-12.023,-145.08,1
6.208905,0.445,0.173,-0.079,63.903,-9.948,-145.141,1
6.217472,0.419,0.154,-0.067,68.176,-8.056,-145.385,1
6.224255,0.397,0.094,-0.056,68.542,-5.737,-145.08,1
6.232978,0.374,0.018,-0.063,56.518,-2.319,-141.845,1
6.241509,0.459,-0.019,-0.05,38.33,3.784,-137.817,1
6.24985,0.533,-0.018,-0.056,25.39,8.85,-136.352,1
6.257459,0.539,-0.024,-0.06,14.038,12.878,-135.803,1
6.265576,0.495,-0.007,-0.076,8.483,15.808,-135.437,1
6.275981,0.458,-0.002,-0.072,11.657,17.028,-135.498,1
6.283098,0.44,-0.019,-0.082,22.216,18.127,-135.07,1
6.292234,0.442,-0.053,-0.079,37.17,18.432,-134.887,1
6.299612,0.429,-0.09,-0.089,51.635,19.531,-134.46,1
6.30736,0.437,-0.137,-0.078,65.124,20.874,-134.094,1
6.316534,0.444,-0.183,-0.08,78.002,23.132,-132.873,1
6.325535,0.426,-0.226,-0.064,87.707,27.099,-131.469,1
6.332281,0.395,-0.258,-0.063,92.224,30.639,-130.187,1
6.339902,0.33,-0.303,-0.046,92.651,34.851,-128.112,1
6.348437,0.288,-0.337,-0.05,85.754,39.855,-125.61,1
6.35743,0.23,-0.369,-0.04,73.425,45.227,-122.375,1
6.366572,0.188,-0.397,-0.038,53.833,50.72,-118.835,1
6.375531,0.141,-0.422,-0.053,35.095,56.03,-115.051,1
6.383664,0.109,-0.45,-0.05,20.263,60.546,-111.328,1
6.390801,0.097,-0.478,-0.054,13.183,63.537,-108.154,1
6.399777,0.107,-0.517,-0.051,13.0,66.223,-103.271,1
6.407105,0.117,-0.562,-0.054,18.859,68.298,-99.182,1
6.414317,0.108,-0.612,-0.055,28.198,70.251,-93.872,1
6.423278,0.129,-0.665,-0.057,38.208,72.326,-88.012,1
6.431016,0.135,-0.722,-0.062,49.011,75.805,-80.2,1
6.438096,0.131,-0.769,-0.076,55.419,78.125,-74.401,1
6.445109,0.103,-0.819,-0.084,60.058,81.542,-65.49,1
6.454627,0.066,-0.86,-0.097,59.631,85.876,-57.8,1
6.461346,0.031,-0.899,-0.105,55.725,89.904,-49.56,1
6.470918,-0.002,-0.924,-0.107,49.133,94.787,-39.367,1
6.477522,-0.046,-0.945,-0.101,44.982,98.449,-30.822,1
6.487112,-0.052,-0.966,-0.093,41.442,102.111,-21.85,1
6.494392,-0.078,-0.972,-0.086,36.987,106.384,-11.047,1
6.504496,-0.128,-0.961,-0.069,34.912,110.412,0.183,1
6.511962,-0.195,-0.942,-0.06,35.583,114.44,11.962,1
6.520327,-0.302,-0.905,-0.066,41.87,117.492,23.437,1
6.527637,-0.416,-0.875,-0.101,49.804,120.361,33.264,1
6.536544,-0.552,-0.875,-0.127,54.992,123.291,43.029,1
6.543773,-0.686,-0.89,-0.158,55.114,127.929,52.612,1
6.553077,-0.814,-0.911,-0.187,45.593,134.155,63.537,1
6.561213,-0.938,-0.932,-0.208,32.043,140.808,72.998,1
6.569425,-1.072,-0.941,-0.221,13.183,148.742,84.167,1
6.5778,-1.174,-0.888,-0.197,4.882,155.09,94.604,1
6.584997,-1.317,-0.862,-0.199,12.084,161.926,106.689,1
6.592603,-1.346,-0.846,-0.203,28.198,166.015,117.675,1
6.603076,-1.438,-0.838,-0.237,44.921,169.86,132.69,1
6.609102,-1.57,-0.825,-0.254,63.049,173.339,148.681,1
6.618131,-1.627,-0.823,-0.299,75.195,175.231,163.574,1
6.627083,-1.735,-0.824,-0.335,82.031,178.222,179.016,1
6.635824,-1.839,-0.822,-0.364,83.801,180.114,198.425,1
6.643946,-1.998,-0.808,-0.399,83.557,182.434,218.872,1
6.652038,-2.163,-0.785,-0.426,77.636,183.776,240.173,1
6.661663,-2.324,-0.789,-0.452,68.725,185.241,263.061,1
6.668742,-2.414,-0.817,-0.458,58.105,187.194,284.79,1
6.677156,-2.56,-0.857,-0.48,49.072,189.819,307.983,1
6.684784,-2.655,-0.79,-0.447,50.781,192.871,335.632,1
6.69353,-2.916,-0.758,-0.437,68.725,192.749,361.206,1
6.700591,-3.33,-0.705,-0.458,103.21,190.917,388.854,1
6.709632,-3.599,-0.664,-0.462,162.292,183.044,422.729,1
6.717342,-3.987,-0.631,-0.508,240.539,168.64,459.167,1
6.726758,-4.367,-0.613,-0.544,304.565,150.817,492.187,1
6.736389,-4.878,-0.584,-0.627,366.638,122.619,532.104,1
6.743584,-5.386,-0.555,-0.663,407.714,91.857,574.096,1
6.751647,-5.865,-0.506,-0.697,431.03,55.419,616.394,1
6.761623,-6.319,-0.436,-0.699,445.556,20.874,650.817,1
6.770223,-6.946,-0.317,-0.709,468.322,-23.742,689.575,1
6.778624,-7.715,-0.185,-0.685,496.826,-74.462,725.219,1
6.787588,-8.69,-0.06,-0.683,524.23,-131.652,757.019,1
6.794792,-9.768,0.074,-0.685,537.414,-193.847,782.897,1
6.804003,-10.993,0.335,-0.692,530.944,-258.972,801.208,1
6.811331,-11.828,0.592,-0.636,518.432,-317.26,810.241,1
6.821784,-12.589,0.88,-0.478,503.478,-383.666,814.88,1
6.829014,-13.389,1.173,-0.237,514.221,-450.073,813.72,1
6.836891,-14.267,1.474,-0.049,543.64,-508.911,804.626,1
6.844645,-14.874,1.625,0.139,570.373,-577.819,784.423,1
6.852211,-15.394,1.763,0.351,576.599,-633.422,760.62,1
6.860383,-15.731,1.921,0.575,595.031,-687.988,724.853,1
6.869535,-15.999,2.036,0.875,607.116,-735.046,681.884,1
6.878539,-15.999,2.361,1.201,601.44,-776.55,620.056,1
6.885696,-15.635,2.196,1.437,574.707,-799.133,549.438,1
6.892685,-15.255,2.314,1.477,552.734,-811.584,498.413,1
6.899622,-15.082,2.462,1.615,575.805,-822.814,438.72,1
6.907909,-14.623,2.572,1.596,640.441,-832.031,366.577,1
6.916818,-14.34,2.643,1.752,729.797,-844.726,283.142,1
6.925333,-12.66,2.384,1.788,820.495,-843.811,190.429,1
6.932007,-11.254,1.965,1.785,838.195,-836.914,81.909,1
6.939754,-10.42,1.649,1.762,793.762,-812.805,-2.38,1
6.948652,-9.617,1.442,1.734,729.858,-779.724,-75.805,1
6.957361,-8.89,1.329,1.703,664.123,-740.051,-138.916,1
6.965056,-8.356,1.231,1.637,602.172,-689.208,-200.256,1
6.973112,-7.969,1.097,1.5,558.471,-645.507,-243.591,1
6.980046,-7.463,0.919,1.356,511.779,-599.243,-277.954,1
6.987309,-6.851,0.735,1.204,438.171,-549.133,-309.326,1
6.996553,-6.318,0.619,1.168,368.835,-507.08,-328.369,1
7.003313,-5.912,0.521,1.126,296.325,-470.214,-341.491,1
7.012215,-5.435,0.462,1.167,234.252,-434.692,-348.876,1
7.020614,-4.988,0.443,1.181,168.09,-396.85,-354.003,1
7.029057,-4.729,0.45,1.224,137.207,-370.666,-355.346,1
7.039444,-4.467,0.426,1.218,115.722,-346.008,-355.468,1
7.047576,-4.229,0.407,1.228,108.825,-322.509,-354.614,1
7.055975,-4.037,0.377,1.225,110.229,-303.222,-352.6,1
7.063908,-3.768,0.329,1.235,121.459,-283.752,-350.158,1
7.072338,-3.528,0.257,1.258,135.803,-267.639,-348.144,1
7.079651,-3.291,0.186,1.246,150.39,-249.511,-345.336,1
7.087848,-3.084,0.091,1.246,160.217,-232.238,-341.247,1
7.095275,-2.814,0.002,1.227,162.78,-212.89,-336.547,1
7.104205,-2.603,-0.076,1.222,157.409,-189.941,-329.772,1
7.11169,-2.367,-0.157,1.188,145.141,-172.241,-323.425,1
7.119673,-2.157,-0.231,1.189,122.802,-150.146,-314.636,1
7.127938,-1.953,-0.283,1.177,102.722,-132.812,-306.03,1
7.137553,-1.774,-0.321,1.145,78.002,-113.159,-295.227,1
7.148494,-1.633,-0.333,1.141,58.227,-95.764,-284.118,1
7.159799,-1.5,-0.313,1.099,52.429,-77.514,-269.165,1
7.168743,-1.393,-0.329,1.074,55.725,-62.744,-256.103,1
7.180458,-1.272,-0.334,1.029,57.739,-50.354,-243.896,1
7.187429,-1.174,-0.339,0.986,56.823,-36.315,-230.163,1
7.196107,-1.076,-0.355,0.96,54.87,-28.503,-221.618,1
7.202787,-0.991,-0.368,0.949,53.222,-19.714,-213.012,1
7.21056,-0.872,-0.378,0.924,51.513,-13.061,-204.589,1
7.219314,-0.886,-0.399,0.9,47.973,-5.187,-195.007,1
7.228096,-0.757,-0.372,0.82,34.79,1.953,-185.607,1
7.236144,-0.508,-0.356,0.834,40.405,7.934,-179.321,1
7.242978,-0.491,-0.364,0.791,43.273,11.657,-171.997,1
7.252591,-0.424,-0.369,0.786,44.494,17.272,-164.428,1
7.259582,-0.308,-0.378,0.75,45.837,21.362,-156.616,1
7.268546,-0.272,-0.38,0.76,49.438,26.367,-149.414,1
7.277911,-0.236,-0.403,0.729,49.621,30.09,-142.517,1
7.28698,-0.184,-0.373,0.728,52.185,35.4,-134.521,1
7.292627,-0.127,-0.401,0.698,60.729,38.391,-126.831,1
7.303468,-0.175,-0.434,0.681,68.115,40.71,-119.323,1
7.310559,-0.131,-0.406,0.622,55.541,44.677,-110.229,1
7.319473,0.053,-0.413,0.626,54.748,46.02,-105.773,1
7.326559,0.1,-0.435,0.597,54.87,47.546,-98.999,1
7.335037,0.129,-0.453,0.608,56.335,49.56,-92.285,1
7.342357,0.235,-0.483,0.572,59.387,50.048,-84.35,1
7.35078,0.291,-0.491,0.57,65.673,51.635,-78.063,1
7.358357,0.343,-0.501,0.541,69.213,51.879,-71.96,1
7.3659,0.392,-0.506,0.541,72.204,52.673,-65.979,1
7.37528,0.431,-0.504,0.509,73.913,53.161,-59.753,1
7.381583,0.454,-0.493,0.5,78.735,53.833,-52.795,1
7.390662,0.402,-0.48,0.466,79.711,54.199,-46.02,1
7.397162,0.446,-0.457,0.451,77.819,54.321,-40.527,1
7.407757,0.516,-0.45,0.428,80.871,54.626,-36.682,1
7.414325,0.509,-0.463,0.411,82.641,54.931,-30.334,1
7.42198,0.537,-0.465,0.391,81.604,55.236,-24.719,1
7.429385,0.592,-0.462,0.376,81.787,55.725,-19.836,1
7.438713,0.624,-0.446,0.37,83.007,54.931,-14.221,1
7.446946,0.623,-0.445,0.344,82.336,55.053,-9.46,1
7.455308,0.609,-0.424,0.335,76.416,55.847,-3.112,1
7.462416,0.61,-0.405,0.321,72.387,55.847,2.258,1
7.471162,0.595,-0.364,0.316,74.523,55.908,7.934,1
7.478844,0.565,-0.324,0.299,82.092,54.87,13.0,1
7.48653,0.538,-0.291,0.303,91.43,54.87,16.113,1
7.4954,0.525,-0.271,0.285,103.942,53.771,19.958,1
7.502725,0.49,-0.252,0.293,113.464,54.199,22.644,1
7.511183,0.469,-0.255,0.278,121.215,54.809,24.475,1
7.519159,0.456,-0.252,0.289,124.511,56.701,26.367,1
7.526306,0.475,-0.256,0.272,123.352,58.532,28.076,1
7.533076,0.469,-0.259,0.269,117.797,61.95,30.212,1
7.541753,0.46,-0.254,0.248,109.558,64.392,31.433,1
7.550031,0.417,-0.246,0.231,98.51,68.42,32.348,1
7.557648,0.415,-0.235,0.214,88.256,71.472,33.081,1
7.566529,0.423,-0.231,0.205,78.247,74.401,33.874,1
7.575286,0.444,-0.223,0.183,67.443,77.636,34.301,1
7.584127,0.457,-0.197,0.173,60.668,80.2,35.278,1
7.592771,0.494,-0.166,0.158,62.194,82.092,36.01,1
7.601707,0.553,-0.162,0.153,70.007,83.007,37.292,1
7.610988,0.619,-0.174,0.135,76.843,84.228,38.696,1
7.618132,0.658,-0.176,0.128,79.406,85.632,40.161,1
7.625699,0.69,-0.161,0.126,81.665,87.89,42.236,1
7.633149,0.728,-0.165,0.106,80.749,88.5,44.128,1
7.642678,0.762,-0.173,0.108,77.575,90.576,46.142,1
7.650382,0.801,-0.185,0.085,67.077,92.041,48.4,1
7.658459,0.82,-0.181,0.092,56.457,94.055,50.964,1
7.666855,0.788,-0.152,0.09,49.682,94.848,53.833,1
7.674602,0.815,-0.136,0.082,49.987,96.557,56.945,1
7.681957,0.771,-0.111,0.076,51.086,97.778,60.302,1
7.690428,0.801,-0.118,0.055,47.668,97.351,63.293,1
7.697718,0.843,-0.126,0.067,40.527,99.853,66.894,1
7.705954,0.847,-0.126,0.034,28.93,99.975,69.885,1
7.713719,0.758,-0.113,0.049,19.531,102.172,74.096,1
7.720731,0.678,-0.094,0.027,11.657,101.44,77.087,1
7.729008,0.615,-0.069,0.03,8.3,102.783,79.162,1
7.737402,0.578,-0.068,0.016,5.187,103.698,80.444,1
7.745261,0.549,-0.054,0.028,3.479,105.224,81.848,1
7.75563,0.555,-0.044,0.012,4.821,106.262,83.374,1
7.762472,0.502,-0.032,0.02,4.028,108.337,85.632,1
7.769167,0.599,-0.035,0.0,7.812,109.313,86.914,1
7.778071,0.526,-0.025,0.014,11.413,111.145,88.134,1
7.786643,0.607,-0.038,-0.034,18.798,114.318,88.989,1
7.794458,0.55,-0.032,0.005,24.23,114.746,89.782,1
7.8018,0.552,-0.014,-0.035,34.057,117.675,91.674,1
7.810812,0.401,0.016,0.0,43.334,119.873,94.97,1
7.817372,0.334,0.019,-0.086,52.795,123.657,97.656,1
7.826839,0.243,0.03,-0.046,58.166,124.145,100.341,1
7.832943,0.427,0.025,-0.117,72.57,127.746,104.37,1
7.840612,0.377,0.037,-0.007,85.205,131.286,109.069,1
7.849125,0.417,0.031,-0.167,92.59,130.981,112.121,1
7.856895,0.279,0.046,-0.032,98.754,134.704,117.858,1
7.865641,0.267,0.044,-0.206,98.632,131.286,121.337,1
7.872758,0.307,0.087,-0.101,107.238,137.451,126.342,1
7.881715,0.446,0.138,-0.231,115.661,137.146,132.934,1
7.889048,0.746,0.226,-0.207,130.187,141.784,141.479,1
7.896635,1.078,0.254,-0.318,141.479,142.883,153.747,1
7.904355,1.216,0.268,-0.278,156.127,149.292,164.367,1
7.912444,1.301,0.256,-0.377,174.255,148.437,173.767,1
7.919739,1.384,0.198,-0.279,201.965,149.047,182.556,1
7.927501,1.252,0.178,-0.292,229.614,145.263,189.27,1
7.934687,0.656,0.192,-0.291,248.901,141.662,197.448,1
7.941872,0.252,0.204,-0.269,244.445,134.765,205.749,1
7.949147,0.024,0.225,-0.245,226.501,132.08,214.233,1
7.958598,0.047,0.234,-0.301,196.472,125.976,220.764,1
7.966699,0.063,0.293,-0.271,166.259,124.877,226.501,1
7.973801,0.039,0.399,-0.334,135.498,122.436,230.529,1
7.980925,-0.041,0.532,-0.338,110.534,120.91,234.13,1
7.988201,-0.116,0.701,-0.363,100.097,119.628,236.145,1
7.995757,-0.216,0.874,-0.386,96.984,116.271,237.365,1
8.004505,-0.265,1.065,-0.408,103.332,111.755,236.755,1
8.013631,-0.308,1.234,-0.441,108.886,105.346,234.619,1
8.020598,-0.352,1.333,-0.457,114.624,99.121,230.895,1
8.030011,-0.378,1.431,-0.458,112.243,93.688,226.867,1
8.037229,-0.402,1.538,-0.471,106.262,89.355,222.717,1
8.043841,-0.386,1.581,-0.459,96.801,85.876,217.651,1
8.051319,-0.33,1.604,-0.451,84.594,83.557,212.646,1
8.059756,-0.259,1.644,-0.463,66.65,82.397,206.97,1
8.066775,-0.249,1.719,-0.458,44.433,80.749,199.645,1
8.074667,-0.235,1.805,-0.447,35.766,79.589,193.725,1
8.081358,-0.215,1.882,-0.443,35.644,76.904,186.035,1
8.089411,-0.203,1.951,-0.443,45.166,73.791,177.978,1
8.098294,-0.189,2.02,-0.446,57.983,69.03,169.921,1
8.104217,-0.166,2.038,-0.436,73.242,63.659,160.095,1
8.112884,-0.131,2.036,-0.423,81.481,59.753,153.442,1
8.123411,-0.103,2.018,-0.403,89.111,54.931,144.958,1
8.130285,-0.056,1.98,-0.376,91.552,50.476,137.207,1
8.138261,-0.02,1.933,-0.353,91.003,47.546,131.408,1
8.145671,0.0,1.904,-0.344,85.571,44.921,124.999,1
8.153093,0.003,1.886,-0.325,77.026,43.64,119.812,1
8.161732,0.012,1.866,-0.312,66.65,42.724,114.562,1
8.168987,0.015,1.843,-0.291,57.617,41.442,109.558,1
8.176686,0.009,1.821,-0.258,54.077,40.161,104.309,1
8.187461,0.002,1.787,-0.237,58.166,37.78,98.754,1
8.193181,0.01,1.732,-0.213,68.298,35.278,93.2,1
8.201407,0.035,1.678,-0.19,77.636,33.142,89.416,1
8.209223,0.048,1.637,-0.19,83.984,31.127,85.998,1
8.217346,0.032,1.6,-0.194,82.519,29.968,82.641,1
8.22461,0.027,1.574,-0.194,73.425,29.663,79.406,1
8.232849,0.033,1.522,-0.193,58.41,30.029,75.988,1
8.241782,0.033,1.488,-0.193,38.818,31.188,72.631,1
8.252011,0.025,1.44,-0.188,20.263,32.165,68.908,1
8.258706,0.032,1.384,-0.171,7.202,32.287,65.612,1
8.267257,0.04,1.337,-0.161,3.601,31.982,62.988,1
8.273978,0.042,1.29,-0.138,8.544,30.761,60.852,1
8.281566,0.05,1.259,-0.137,22.399,28.564,58.532,1
8.289251,0.049,1.237,-0.137,35.034,26.611,57.067,1
8.298033,0.03,1.208,-0.149,42.663,25.634,55.419,1
8.306262,0.011,1.187,-0.159,42.236,25.146,53.588,1
8.313121,-0.014,1.169,-0.165,36.132,25.39,52.062,1
8.322324,-0.027,1.166,-0.167,24.658,26.123,49.987,1
8.331124,-0.038,1.169,-0.169,15.38,27.221,47.973,1
8.337928,-0.056,1.171,-0.163,6.408,28.259,45.593,1
8.346465,-0.064,1.165,-0.158,1.77,28.93,43.395,1
8.353406,-0.082,1.166,-0.157,0.183,29.235,41.32,1
8.362022,-0.115,1.168,-0.157,0.549,29.296,39.306,1
8.371643,-0.144,1.171,-0.155,3.051,29.235,37.536,1
8.379344,-0.15,1.159,-0.154,5.615,29.174,35.644,1
8.387853,-0.171,1.154,-0.157,4.455,29.968,34.118,1
8.395795,-0.198,1.145,-0.161,-1.647,30.395,32.897,1
8.403635,-0.214,1.143,-0.169,-11.291,31.921,31.738,1
8.411578,-0.239,1.145,-0.167,-21.667,33.203,30.578,1
8.420651,-0.26,1.145,-0.162,-31.005,33.813,29.113,1
8.426877,-0.286,1.152,-0.155,-34.362,34.729,28.137,1
8.43578,-0.302,1.15,-0.156,-33.203,34.484,27.038,1
8.443552,-0.304,1.137,-0.152,-28.93,34.118,26.062,1
8.452699,-0.299,1.136,-0.156,-22.155,33.081,25.451,1
8.460906,-0.323,1.144,-0.162,-17.639,32.47,24.536,1
8.469303,-0.349,1.157,-0.165,-14.099,31.677,24.047,1
8.477317,-0.369,1.166,-0.157,-13.122,30.944,23.071,1
8.487336,-0.381,1.182,-0.16,-13.732,30.639,22.033,1
8.494711,-0.414,1.184,-0.155,-17.272,30.273,20.568,1
8.502632,-0.429,1.19,-0.146,-22.033,30.395,18.859,1
8.511486,-0.439,1.187,-0.125,-25.024,30.212,17.395,1
8.519057,-0.438,1.174,-0.11,-27.282,30.578,16.052,1
8.528908,-0.449,1.164,-0.092,-26.794,30.944,14.526,1
8.536673,-0.456,1.154,-0.1,-21.728,30.7,13.305,1
8.544081,-0.453,1.143,-0.104,-15.686,30.09,12.39,1
8.552187,-0.454,1.123,-0.107,-11.352,29.907,11.413,1
8.562209,-0.453,1.098,-0.114,-11.657,29.968,10.803,1
8.569102,-0.429,1.065,-0.115,-17.028,30.944,10.009,1
8.577908,-0.416,1.052,-0.121,-22.827,31.494,9.033,1
8.585452,-0.414,1.043,-0.117,-27.648,32.104,8.544,1
8.594247,-0.409,1.032,-0.116,-30.334,32.836,7.934,1
8.60136,-0.408,1.017,-0.111,-31.188,32.897,7.812,1
8.610433,-0.422,1.007,-0.11,-31.005,33.264,7.873,1
8.618961,-0.436,1.004,-0.103,-30.883,33.569,8.422,1
8.62659,-0.43,0.99,-0.105,-29.846,33.996,8.789,1
8.635196,-0.416,0.979,-0.101,-28.259,34.118,9.643,1
8.642954,-0.393,0.963,-0.101,-28.015,34.606,10.131,1
8.653105,-0.373,0.953,-0.112,-29.846,34.973,10.314,1
8.661544,-0.35,0.933,-0.118,-32.897,35.461,10.253,1
8.66861,-0.32,0.915,-0.128,-36.682,35.522,9.887,1
8.676598,-0.297,0.904,-0.13,-38.818,35.339,9.582,1
8.685573,-0.286,0.897,-0.132,-37.902,34.729,9.033,1
8.694613,-0.276,0.896,-0.134,-33.813,33.935,8.239,1
8.703521,-0.263,0.89,-0.14,-28.991,33.203,7.568,1
8.711168,-0.259,0.879,-0.148,-23.986,31.921,6.408,1
8.719295,-0.271,0.875,-0.152,-21.972,31.433,5.676,1
8.72832,-0.287,0.875,-0.16,-22.094,30.395,4.699,1
8.737198,-0.306,0.88,-0.164,-24.23,29.907,3.54,1
8.743777,-0.323,0.891,-0.168,-26.55,29.174,2.136,1
8.751944,-0.343,0.909,-0.167,-25.939,28.015,1.525,1
8.760642,-0.368,0.922,-0.172,-22.277,26.794,0.122,1
8.769122,-0.392,0.929,-0.174,-16.662,25.268,-1.037,1
8.777254,-0.421,0.931,-0.182,-12.329,23.681,-2.38,1
8.7876,-0.458,0.933,-0.183,-8.605,22.399,-3.906,1
8.794863,-0.505,0.937,-0.187,-5.615,20.996,-5.554,1
8.804135,-0.55,0.935,-0.192,-4.516,20.019,-6.652,1
8.812493,-0.569,0.925,-0.192,-3.784,18.676,-7.873,1
8.82159,-0.565,0.914,-0.198,-3.356,18.066,-9.216,1
8.828827,-0.567,0.901,-0.212,-3.051,17.395,-9.948,1
8.836784,-0.565,0.882,-0.214,-4.516,17.211,-10.437,1
8.845867,-0.554,0.867,-0.214,-7.568,16.967,-10.375,1
8.853671,-0.554,0.858,-0.221,-11.291,17.028,-10.498,1
8.862549,-0.554,0.851,-0.218,-14.831,16.418,-10.314,1
8.870836,-0.539,0.842,-0.215,-15.502,15.686,-10.131,1
8.878106,-0.533,0.835,-0.214,-13.427,14.953,-9.704,1
8.887426,-0.534,0.84,-0.213,-7.507,13.549,-8.422,1
8.894853,-0.542,0.843,-0.219,-2.685,12.329,-7.751,1
8.90536,-0.523,0.831,-0.221,1.037,11.596,-6.835,1
8.912645,-0.5,0.817,-0.226,1.525,10.864,-6.164,1
8.920269,-0.492,0.817,-0.22,0.488,10.742,-5.554,1
8.929606,-0.471,0.808,-0.214,-0.793,10.437,-4.882,1
8.936772,-0.458,0.796,-0.206,-0.793,10.009,-4.211,1
8.945597,-0.445,0.789,-0.195,0.183,9.765,-4.028,1
8.952387,-0.445,0.783,-0.19,2.258,9.704,-3.173,1
8.960703,-0.466,0.793,-0.197,5.554,9.338,-2.685,1
8.96814,-0.476,0.797,-0.191,9.033,8.789,-2.075,1
8.976624,-0.466,0.793,-0.196,11.291,8.605,-1.892,1
8.984661,-0.449,0.781,-0.202,11.352,8.178,-1.708,1
8.993475,-0.441,0.767,-0.199,9.033,7.873,-1.342,1
9.001094,-0.434,0.76,-0.195,5.432,7.69,-0.976,1
9.008777,-0.425,0.747,-0.193,3.662,7.69,-0.305,1
9.017308,-0.402,0.741,-0.188,2.136,7.385,0.671,1
9.025385,-0.39,0.728,-0.19,0.488,7.568,1.77,1
9.033994,-0.385,0.722,-0.198,-3.784,7.629,3.051,1
9.041749,-0.389,0.729,-0.186,-10.131,8.178,4.943,1
9.051979,-0.386,0.742,-0.191,-15.747,8.056,6.591,1
9.05912,-0.373,0.764,-0.185,-17.272,7.446,8.3,1
9.067306,-0.357,0.772,-0.187,-15.686,6.774,9.399,1
9.074184,-0.353,0.793,-0.182,-10.925,5.92,10.192,1
9.083088,-0.35,0.806,-0.177,-3.356,4.638,11.23,1
9.092206,-0.36,0.814,-0.176,4.333,3.417,11.718,1
9.101354,-0.367,0.824,-0.174,10.375,2.685,12.39,1
9.107963,-0.367,0.825,-0.177,13.671,1.892,12.573,1
9.116929,-0.363,0.824,-0.17,14.587,1.525,12.817,1
9.125332,-0.354,0.817,-0.171,14.526,1.281,13.366,1
9.131832,-0.343,0.808,-0.169,14.343,1.342,13.916,1
9.139389,-0.349,0.808,-0.176,13.61,1.22,14.343,1
9.148569,-0.347,0.822,-0.174,12.939,1.098,14.648,1
9.156008,-0.343,0.831,-0.18,12.573,1.159,15.258,1
9.165087,-0.344,0.84,-0.182,12.512,0.976,15.624,1
9.173238,-0.343,0.852,-0.185,11.535,0.732,15.808,1
9.180486,-0.342,0.853,-0.184,10.803,0.427,16.052,1
9.189375,-0.335,0.851,-0.186,10.131,-0.122,15.869,1
9.198546,-0.336,0.861,-0.186,10.192,-0.488,15.991,1
9.206366,-0.346,0.868,-0.178,10.925,-1.098,15.991,1
9.214956,-0.339,0.871,-0.18,13.427,-2.014,15.869,1
9.222484,-0.33,0.875,-0.182,18.005,-3.051,15.747,1
9.230686,-0.33,0.878,-0.174,25.085,-4.333,15.747,1
9.238831,-0.339,0.875,-0.172,31.311,-5.187,15.747,1
9.246267,-0.343,0.875,-0.171,35.339,-5.92,15.38,1
9.255398,-0.355,0.87,-0.168,36.804,-6.347,15.624,1
9.262378,-0.349,0.862,-0.172,34.362,-5.92,15.563,1
9.270155,-0.358,0.864,-0.174,29.602,-5.859,15.563,1
9.279398,-0.372,0.869,-0.16,23.742,-5.249,15.624,1
9.287624,-0.39,0.869,-0.156,18.371,-4.272,15.686,1
9.295748,-0.403,0.871,-0.141,13.061,-2.99,16.052,1
9.303884,-0.4,0.879,-0.144,10.07,-1.953,16.174,1
9.311569,-0.395,0.875,-0.142,10.131,-1.281,16.113,1
9.319808,-0.401,0.886,-0.141,11.413,-0.793,15.808,1
9.327407,-0.396,0.889,-0.14,13.732,-0.61,15.502,1
9.337046,-0.401,0.893,-0.145,15.502,0.0,15.136,1
9.344624,-0.403,0.891,-0.154,15.93,0.488,14.526,1
9.352734,-0.41,0.895,-0.16,15.441,0.854,14.16,1
9.361496,-0.423,0.893,-0.161,13.977,1.342,13.732,1
9.368788,-0.443,0.908,-0.169,10.925,2.319,13.366,1
9.377314,-0.464,0.915,-0.167,8.483,2.746,13.427,1
9.384055,-0.471,0.913,-0.171,6.408,3.356,13.061,1
9.391397,-0.482,0.915,-0.161,5.187,4.089,13.183,1
9.400474,-0.486,0.919,-0.159,4.76,4.272,13.244,1
9.40811,-0.497,0.92,-0.159,4.15,4.76,13.244,1
9.415897,-0.5,0.916,-0.158,3.173,5.187,13.305,1
9.422919,-0.509,0.914,-0.153,1.525,5.432,13.305,1
9.432225,-0.52,0.911,-0.151,-0.061,5.615,13.366,1
9.439339,-0.529,0.909,-0.148,-1.525,5.737,13.244,1
9.446923,-0.531,0.9,-0.147,-2.197,5.676,13.854,1
9.454736,-0.535,0.897,-0.142,-2.502,5.371,14.404,1
9.462852,-0.541,0.896,-0.138,-2.624,5.065,15.136,1
9.470221,-0.556,0.894,-0.134,-1.892,4.333,15.869,1
9.478303,-0.555,0.892,-0.126,0.61,3.906,17.028,1
9.485912,-0.545,0.886,-0.125,5.371,3.051,18.188,1
9.494733,-0.539,0.881,-0.121,10.925,2.136,19.104,1
9.501866,-0.528,0.873,-0.117,15.93,1.403,20.263,1
9.510187,-0.528,0.868,-0.115,18.737,0.793,21.484,1
9.518783,-0.528,0.86,-0.11,18.188,0.366,22.521,1
9.526765,-0.541,0.867,-0.104,14.709,0.61,23.254,1
9.535455,-0.536,0.866,-0.1,10.559,0.671,23.437,1
9.543449,-0.547,0.873,-0.089,5.493,1.464,23.803,1
9.552701,-0.562,0.887,-0.086,0.244,1.953,23.498,1
9.559597,-0.571,0.891,-0.078,-4.333,2.685,23.071,1
9.567182,-0.583,0.887,-0.063,-9.46,3.845,22.338,1
9.575602,-0.58,0.878,-0.056,-13.183,4.394,21.728,1
9.582697,-0.575,0.874,-0.044,-13.732,4.821,21.24,1
9.59109,-0.574,0.861,-0.034,-10.742,4.882,20.69,1
9.601812,-0.57,0.846,-0.026,-4.699,4.577,20.446,1
9.607216,-0.567,0.829,-0.029,2.075,4.272,19.836,1
9.61694,-0.571,0.817,-0.026,5.798,3.906,19.897,1
9.62441,-0.594,0.815,-0.031,7.995,3.601,19.592,1
9.633201,-0.597,0.809,-0.029,7.69,3.723,19.47,1
9.64076,-0.59,0.796,-0.026,6.835,3.845,19.47,1
9.648783,-0.589,0.786,-0.028,4.699,4.089,19.714,1
9.656255,-0.599,0.784,-0.03,3.967,4.455,19.836,1
9.66567,-0.598,0.783,-0.03,4.638,4.089,20.08,1
9.672791,-0.596,0.78,-0.023,6.347,4.211,20.446,1
9.679909,-0.594,0.776,-0.022,7.141,4.211,20.446,1
9.689673,-0.598,0.774,-0.023,6.896,4.76,20.629,1
9.69698,-0.602,0.779,-0.028,3.967,5.004,20.568,1
9.706215,-0.616,0.785,-0.02,0.61,5.371,20.69,1
9.714888,-0.621,0.785,-0.029,-3.479,5.432,20.507,1
9.722081,-0.629,0.802,-0.024,-5.187,5.859,20.507,1
9.728909,-0.632,0.812,-0.018,-4.577,5.615,20.568,1
9.737005,-0.632,0.81,-0.016,-2.807,5.737,20.751,1
9.746154,-0.615,0.81,-0.021,2.136,5.126,20.874,1
9.752843,-0.61,0.811,-0.024,6.835,4.882,21.301,1
9.760376,-0.606,0.803,-0.036,9.216,4.272,21.606,1
9.768569,-0.605,0.793,-0.037,9.155,4.211,21.667,1
9.776941,-0.596,0.785,-0.043,6.774,4.211,22.277,1
9.783668,-0.59,0.78,-0.042,4.211,4.272,22.583,1
9.79181,-0.587,0.774,-0.045,2.258,3.967,22.949,1
9.800403,-0.578,0.78,-0.04,0.61,3.967,23.681,1
9.806506,-0.579,0.782,-0.041,0.122,3.601,24.353,1
9.815187,-0.573,0.775,-0.038,-0.61,3.417,24.963,1
9.82304,-0.576,0.78,-0.034,-2.075,3.417,25.39,1
9.832128,-0.59,0.795,-0.026,-2.502,3.356,25.756,1
9.839995,-0.591,0.8,-0.019,-0.183,2.929,25.695,1
9.847423,-0.601,0.812,-0.017,4.089,2.441,25.695,1
9.856813,-0.604,0.818,-0.019,8.361,2.197,25.207,1
9.862878,-0.614,0.811,-0.021,10.131,2.136,25.024,1
9.871936,-0.614,0.819,-0.02,11.596,2.258,24.475,1
9.879461,-0.625,0.821,-0.022,11.291,2.563,23.864,1
9.887855,-0.615,0.816,-0.022,8.056,2.99,23.254,1
9.896606,-0.616,0.813,-0.018,3.295,4.089,22.766,1
9.903626,-0.612,0.812,-0.021,-2.014,4.699,22.216,1
9.912564,-0.615,0.816,-0.013,-7.568,5.859,21.301,1
9.919758,-0.617,0.817,-0.017,-10.986,6.53,20.812,1
9.92886,-0.618,0.823,-0.005,-11.718,6.835,20.202,1
9.939271,-0.612,0.831,-0.008,-9.582,6.713,19.653,1
9.945986,-0.613,0.836,-0.002,-5.187,6.408,18.615,1
9.955271,-0.617,0.835,-0.002,-1.77,6.225,17.944,1
9.963917,-0.624,0.833,-0.007,0.732,6.347,17.333,1
9.971939,-0.629,0.826,-0.009,1.647,6.347,16.845,1
9.978947,-0.635,0.832,-0.006,0.732,6.469,16.235,1
9.987463,-0.634,0.825,-0.007,-0.305,6.652,15.624,1
9.996397,-0.622,0.825,-0.005,-1.953,6.896,15.38,1
