timestamp_s,ax,ay,az,gx,gy,gz,label
0.004695,0.306,1.175,-0.055,-12.817,-4.028,-15.502,1
0.013402,0.391,1.217,-0.023,-12.512,-5.187,-17.7,1
0.021783,0.508,1.271,0.023,-11.291,-6.774,-22.521,1
0.029767,0.469,1.332,0.069,-11.352,-6.286,-27.221,1
0.03643,0.443,1.36,0.088,-14.709,-5.92,-31.982,1
0.045419,0.435,1.387,0.104,-19.836,-4.821,-36.804,1
0.052148,0.433,1.387,0.087,-27.16,-4.15,-41.32,1
0.059965,0.407,1.374,0.071,-34.362,-3.234,-46.386,1
0.06802,0.396,1.316,0.041,-41.564,-2.075,-50.17,1
0.076957,0.385,1.35,0.052,-47.485,-1.464,-53.1,1
0.083819,0.331,1.307,0.044,-55.48,0.0,-55.175,1
0.091787,0.309,1.264,0.041,-62.744,0.732,-56.335,1
0.10049,0.291,1.291,0.038,-69.091,2.258,-57.373,1
0.108098,0.282,1.214,0.035,-75.866,2.99,-58.471,1
0.115931,0.264,1.206,0.039,-82.031,3.784,-59.143,1
0.124097,0.282,1.211,0.033,-88.256,4.211,-59.875,1
0.132399,0.259,1.237,0.047,-92.712,4.882,-61.34,1
0.139894,0.237,1.258,0.05,-96.618,4.943,-62.499,1
0.147469,0.134,1.261,0.053,-98.815,5.493,-62.988,1
0.155337,0.178,1.292,0.066,-97.656,6.958,-63.781,1
0.163207,0.246,1.221,0.004,-92.59,7.324,-66.711,1
0.172185,0.024,1.248,-0.009,-95.947,3.479,-67.016,1
0.181589,-0.05,1.191,0.035,-100.097,8.117,-63.415,1
0.189074,0.151,1.203,-0.11,-104.675,4.699,-64.27,1
0.199031,0.154,1.15,-0.07,-100.097,5.554,-64.208,1
0.206505,0.126,1.12,-0.116,-94.787,5.187,-62.927,1
0.215325,0.108,1.133,-0.154,-93.017,2.075,-62.377,1
0.222402,0.058,1.137,-0.124,-92.529,1.77,-61.462,1
0.231854,0.06,1.152,-0.119,-90.209,3.112,-60.791,1
0.239446,0.041,1.15,-0.144,-89.111,2.99,-60.791,1
0.248424,0.002,1.152,-0.222,-86.242,1.464,-61.218,1
0.256081,-0.101,1.208,-0.24,-83.251,-0.244,-61.767,1
0.26496,-0.09,1.222,-0.276,-75.805,-0.366,-62.133,1
0.272575,0.113,1.25,-0.319,-72.143,-2.197,-63.293,1
0.281789,0.294,1.275,-0.324,-74.951,-2.624,-65.063,1
0.289246,0.38,1.297,-0.319,-88.806,-3.173,-67.993,1
0.296165,0.43,1.341,-0.294,-101.684,-2.685,-69.946,1
0.304433,0.47,1.359,-0.3,-113.708,-2.38,-71.716,1
0.311901,0.5,1.359,-0.293,-121.337,-1.892,-73.12,1
0.321195,0.535,1.36,-0.308,-124.084,-1.342,-74.157,1
0.328444,0.562,1.383,-0.328,-119.75,-1.098,-75.988,1
0.337314,0.574,1.407,-0.384,-110.656,-1.22,-78.063,1
0.343968,0.543,1.404,-0.451,-99.182,-2.441,-80.2,1
0.351102,0.522,1.401,-0.503,-91.064,-4.638,-83.19,1
0.358476,0.49,1.383,-0.558,-87.585,-6.835,-85.998,1
0.366378,0.488,1.366,-0.584,-88.317,-9.704,-88.439,1
0.373404,0.505,1.337,-0.589,-89.538,-12.756,-90.332,1
0.381397,0.547,1.326,-0.583,-86.791,-15.869,-91.918,1
0.388221,0.59,1.346,-0.567,-77.758,-19.042,-94.116,1
0.396294,0.611,1.373,-0.544,-62.194,-21.545,-96.435,1
0.404898,0.594,1.394,-0.536,-43.151,-24.353,-99.121,1
0.413593,0.571,1.424,-0.541,-21.362,-27.343,-102.416,1
0.422374,0.577,1.472,-0.542,-4.638,-30.029,-105.468,1
0.431159,0.615,1.514,-0.521,13.122,-33.447,-110.412,1
0.438118,0.646,1.518,-0.45,31.799,-36.01,-115.356,1
0.446229,0.632,1.495,-0.393,48.034,-37.78,-119.873,1
0.454988,0.603,1.446,-0.338,61.401,-38.635,-124.023,1
0.463652,0.565,1.313,-0.257,73.486,-38.513,-128.417,1
0.470756,0.563,1.134,-0.177,79.65,-36.987,-131.286,1
0.480394,0.585,0.971,-0.136,77.697,-34.24,-132.507,1
0.486802,0.587,0.822,-0.104,68.542,-31.738,-132.751,1
0.495618,0.645,0.633,-0.125,51.147,-27.404,-132.141,1
0.504346,0.593,0.565,-0.192,13.854,-23.864,-129.76,1
0.512547,0.655,0.441,-0.181,-12.207,-21.24,-127.685,1
0.519862,0.595,0.472,-0.183,-30.761,-18.615,-124.877,1
0.528547,0.557,0.439,-0.155,-34.851,-18.92,-122.802,1
0.537691,0.498,0.433,-0.142,-26.367,-17.639,-119.995,1
0.545432,0.45,0.431,-0.135,-14.587,-19.348,-117.675,1
0.552991,0.437,0.407,-0.126,-5.432,-18.981,-115.356,1
0.561431,0.44,0.445,-0.137,4.455,-19.653,-114.074,1
0.570589,0.425,0.471,-0.121,12.695,-19.348,-112.731,1
0.579446,0.395,0.498,-0.139,16.662,-19.897,-112.182,1
0.588665,0.395,0.506,-0.128,17.639,-19.042,-111.328,1
0.598063,0.376,0.526,-0.13,17.333,-18.371,-111.267,1
0.604851,0.345,0.541,-0.122,16.906,-17.883,-110.717,1
0.612151,0.333,0.56,-0.132,17.211,-16.845,-111.022,1
0.621017,0.336,0.563,-0.137,17.211,-17.15,-111.267,1
0.628655,0.361,0.565,-0.129,22.216,-17.761,-111.389,1
0.635611,0.382,0.57,-0.131,32.47,-18.737,-110.778,1
0.64395,0.429,0.555,-0.115,49.377,-19.47,-110.595,1
0.651016,0.427,0.541,-0.121,69.274,-20.263,-110.107,1
0.659206,0.44,0.522,-0.122,81.787,-20.935,-109.252,1
0.66771,0.446,0.507,-0.119,88.867,-20.629,-108.154,1
0.675352,0.454,0.495,-0.116,90.637,-19.836,-107.299,1
0.684853,0.456,0.477,-0.118,88.867,-18.249,-106.018,1
0.691076,0.471,0.473,-0.117,86.242,-17.395,-104.37,1
0.698761,0.471,0.47,-0.112,84.228,-16.601,-103.698,1
0.707233,0.489,0.45,-0.103,84.777,-15.991,-102.6,1
0.715857,0.47,0.208,-0.151,76.232,-15.563,-97.9,1
0.724053,0.686,0.382,-0.072,71.289,-15.136,-97.045,1
0.732797,0.663,0.424,-0.045,95.764,-18.127,-97.717,1
0.739445,0.524,0.389,-0.015,121.765,-15.502,-95.52,1
0.748189,0.56,0.369,-0.083,131.958,-17.639,-94.482,1
0.75699,0.558,0.38,-0.012,130.004,-14.221,-92.407,1
0.76339,0.577,0.334,-0.075,118.225,-13.0,-91.613,1
0.771977,0.561,0.284,-0.029,90.332,-10.803,-86.425,1
0.779925,0.744,0.346,-0.059,69.885,-8.178,-87.036,1
0.788584,0.606,0.447,0.047,76.354,-6.103,-87.646,1
0.797604,0.562,0.415,-0.059,85.815,-6.408,-86.791,1
0.805191,0.604,0.479,0.034,97.351,-6.591,-87.036,1
0.812564,0.661,0.454,-0.016,112.487,-6.286,-87.036,1
0.821265,0.635,0.402,0.007,120.239,-6.469,-87.219,1
0.829492,0.684,0.228,-0.042,101.074,-5.676,-81.909,1
0.837905,0.845,0.374,0.016,92.041,-2.746,-83.129,1
0.84651,0.798,0.351,0.032,102.661,-2.136,-85.449,1
0.854425,0.733,0.338,0.04,113.159,0.366,-84.411,1
0.861284,0.812,0.312,0.015,114.318,0.915,-84.411,1
0.869136,0.82,0.289,0.039,108.337,4.516,-84.106,1
0.877882,0.829,0.27,0.009,95.581,6.713,-83.74,1
0.885342,0.823,0.257,0.023,82.153,9.277,-83.862,1
0.893702,0.861,0.24,0.001,66.894,12.207,-83.618,1
0.900124,0.894,0.233,0.003,56.396,13.427,-83.679,1
0.909133,0.915,0.24,0.001,49.56,15.075,-83.618,1
0.918036,0.917,0.248,0.006,47.424,15.441,-83.923,1
0.92536,0.833,0.154,-0.024,43.518,17.089,-82.092,1
0.933276,0.888,0.203,-0.016,26.855,17.7,-79.956,1
0.941109,0.942,0.23,-0.006,21.667,20.568,-80.383,1
0.949396,0.888,0.239,-0.001,24.291,21.545,-81.42,1
0.957485,0.877,0.279,0.0,39.489,25.207,-83.007,1
0.965904,0.785,0.252,0.0,57.312,25.695,-85.205,1
0.973333,0.754,0.207,-0.003,73.669,28.32,-85.266,1
0.982333,0.79,0.187,-0.009,81.848,29.541,-85.754,1
0.990611,0.805,0.168,-0.013,84.899,33.081,-86.181,1
0.997872,0.782,0.146,-0.034,80.017,36.254,-86.669,1
1.00549,0.732,0.087,-0.041,63.659,40.344,-86.364,1
1.013496,0.725,0.072,-0.057,38.208,44.006,-85.51,1
1.022583,0.77,0.08,-0.056,15.869,48.583,-86.181,1
1.029833,0.759,0.083,-0.044,-1.098,50.903,-87.158,1
1.036689,0.757,0.098,-0.037,-9.277,54.077,-88.256,1
1.044373,0.793,0.117,-0.028,-7.69,54.992,-89.843,1
1.052212,0.803,0.121,-0.026,3.723,55.603,-91.308,1
1.060547,0.827,0.12,-0.037,20.141,54.992,-92.895,1
1.068099,0.8,0.079,-0.029,38.146,55.541,-94.055,1
1.074882,0.834,0.068,-0.045,52.246,55.175,-95.275,1
1.082914,0.815,0.04,-0.052,64.147,56.579,-96.069,1
1.090988,0.797,0.014,-0.077,69.885,57.189,-96.435,1
1.097848,0.784,-0.012,-0.069,73.303,58.715,-96.618,1
1.106693,0.776,-0.032,-0.09,74.523,60.607,-96.191,1
1.112883,0.794,-0.048,-0.095,72.937,62.744,-95.764,1
1.119998,0.807,-0.054,-0.092,71.411,65.49,-95.825,1
1.127918,0.729,-0.052,-0.12,68.847,68.054,-96.069,1
1.134846,0.717,-0.048,-0.124,65.429,69.702,-96.679,1
1.141874,0.741,-0.052,-0.159,60.607,72.082,-98.266,1
1.149836,0.728,-0.055,-0.187,56.091,73.852,-99.426,1
1.156758,0.736,-0.073,-0.21,53.894,75.5,-101.135,1
1.164507,0.73,-0.071,-0.229,55.114,75.988,-102.05,1
1.171255,0.752,-0.101,-0.244,60.241,77.148,-102.722,1
1.178877,0.741,-0.138,-0.25,58.044,78.491,-102.783,1
1.18753,0.736,-0.171,-0.272,51.879,81.542,-102.6,1
1.194557,0.773,-0.217,-0.317,40.039,84.106,-101.928,1
1.203083,0.775,-0.25,-0.346,16.967,87.951,-101.074,1
1.210695,0.698,-0.267,-0.377,-9.46,91.247,-100.036,1
1.219107,0.681,-0.276,-0.397,-36.682,95.642,-99.182,1
1.226199,0.581,-0.272,-0.425,-60.974,99.121,-98.51,1
1.234963,0.577,-0.28,-0.447,-82.702,102.05,-97.839,1
1.242948,0.547,-0.265,-0.46,-88.134,103.393,-97.106,1
1.251186,0.494,-0.278,-0.472,-87.707,103.21,-96.557,1
1.259565,0.463,-0.28,-0.488,-77.148,103.332,-95.397,1
1.266715,0.424,-0.323,-0.527,-73.12,101.501,-94.177,1
1.274429,0.409,-0.334,-0.531,-69.58,101.074,-92.773,1
1.282511,0.355,-0.355,-0.564,-69.763,98.876,-91.003,1
1.290466,0.322,-0.376,-0.57,-71.716,98.51,-89.477,1
1.297328,0.288,-0.378,-0.597,-70.312,96.435,-88.073,1
1.305412,0.256,-0.411,-0.608,-68.542,95.214,-87.158,1
1.313946,0.188,-0.436,-0.621,-69.213,92.834,-86.364,1
1.321986,0.186,-0.478,-0.634,-69.091,91.918,-85.754,1
1.330103,0.113,-0.513,-0.616,-68.786,88.562,-83.923,1
1.336627,0.134,-0.567,-0.622,-49.133,87.097,-82.519,1
1.34509,0.122,-0.665,-0.642,-38.574,83.312,-80.688,1
1.352804,0.006,-0.726,-0.627,-31.311,83.374,-77.697,1
1.361096,0.133,-0.809,-0.65,-30.212,81.726,-74.584,1
1.369039,0.023,-0.883,-0.655,-37.78,80.505,-70.678,1
1.377248,0.062,-0.956,-0.683,-49.987,81.604,-66.04,1
1.38416,-0.038,-0.994,-0.661,-62.255,79.162,-62.133,1
1.392083,-0.01,-1.048,-0.67,-66.04,80.261,-57.556,1
1.400696,-0.057,-1.091,-0.67,-67.199,76.354,-52.49,1
1.409384,-0.11,-1.128,-0.621,-60.241,75.622,-47.607,1
1.416354,-0.114,-1.215,-0.671,-54.138,74.035,-42.602,1
1.424549,-0.161,-1.276,-0.627,-48.95,72.326,-35.644,1
1.433685,-0.24,-1.34,-0.629,-48.156,72.57,-29.296,1
1.441581,-0.288,-1.424,-0.612,-51.574,71.533,-22.705,1
1.450855,-0.312,-1.491,-0.623,-56.274,72.204,-13.854,1
1.459118,-0.398,-1.532,-0.61,-57.8,70.007,-5.004,1
1.466722,-0.427,-1.614,-0.63,-54.626,68.786,5.432,1
1.473613,-0.447,-1.664,-0.636,-47.851,64.636,14.587,1
1.482496,-0.489,-1.738,-0.633,-34.729,60.607,24.719,1
1.491681,-0.533,-1.803,-0.624,-10.986,53.588,37.597,1
1.499748,-0.583,-1.876,-0.613,18.798,46.813,51.757,1
1.505816,-0.64,-1.961,-0.606,39.672,40.954,64.941,1
1.514111,-0.73,-2.041,-0.597,46.508,38.085,78.979,1
1.523379,-0.812,-2.091,-0.604,39.123,36.804,93.688,1
1.531976,-0.936,-2.108,-0.593,19.836,36.437,111.267,1
1.540094,-1.039,-2.105,-0.587,-3.906,38.085,129.089,1
1.548306,-1.156,-2.045,-0.582,-20.141,38.635,144.104,1
1.556357,-1.214,-1.927,-0.578,-26.123,40.039,160.766,1
1.565372,-1.318,-1.946,-0.581,-22.644,35.766,177.734,1
1.573153,-1.466,-1.947,-0.58,-19.287,38.269,195.617,1
1.581744,-1.557,-1.923,-0.613,-21.85,34.729,210.754,1
1.589862,-1.658,-1.872,-0.578,-17.944,36.254,226.745,1
1.599011,-1.781,-1.779,-0.624,-5.676,32.958,245.544,1
1.605347,-1.964,-1.664,-0.61,8.3,31.921,261.108,1
1.614267,-2.036,-1.575,-0.672,18.31,28.625,276.977,1
1.621302,-2.25,-1.461,-0.668,26.0,25.573,295.776,1
1.630111,-2.538,-1.326,-0.666,32.043,22.705,311.157,1
1.63829,-2.553,-1.266,-0.674,29.663,18.859,328.979,1
1.646594,-2.76,-1.21,-0.675,30.456,16.54,348.937,1
1.654635,-2.912,-1.13,-0.677,25.268,12.817,366.821,1
1.660976,-3.108,-1.082,-0.676,13.427,10.864,386.169,1
1.669793,-3.342,-1.024,-0.703,-3.173,10.131,405.944,1
1.677966,-3.65,-0.908,-0.684,-18.127,9.094,428.527,1
1.684729,-3.909,-0.826,-0.685,-26.977,7.934,449.34,1
1.693168,-4.269,-0.765,-0.679,-31.555,7.019,470.336,1
1.702194,-4.674,-0.689,-0.685,-20.507,5.31,496.582,1
1.710265,-5.137,-0.599,-0.68,6.042,-0.183,519.287,1
1.719391,-5.609,-0.583,-0.753,37.475,-9.277,548.095,1
1.727758,-6.103,-0.553,-0.813,58.532,-19.714,573.608,1
1.734968,-6.715,-0.522,-0.905,87.097,-37.048,608.337,1
1.743124,-7.355,-0.572,-0.968,88.867,-53.039,635.498,1
1.752614,-7.979,-0.664,-1.092,61.95,-65.063,664.794,1
1.761147,-8.837,-0.612,-1.173,34.484,-81.298,701.293,1
1.768993,-9.641,-0.434,-1.168,79.956,-103.271,732.604,1
1.775494,-10.438,-0.207,-1.17,198.608,-142.272,761.413,1
1.785274,-11.181,-0.068,-1.152,364.929,-209.35,790.771,1
1.792388,-12.108,0.169,-1.104,480.102,-289.855,812.377,1
1.7992,-13.082,0.487,-1.001,525.085,-361.145,821.777,1
1.807877,-14.157,0.851,-0.875,525.024,-427.307,823.73,1
1.814552,-15.242,1.222,-0.649,523.132,-488.586,818.054,1
1.823607,-15.999,1.49,-0.467,528.686,-550.415,806.579,1
1.83054,-15.999,1.775,-0.238,557.556,-613.281,787.963,1
1.840575,-15.999,2.104,0.064,622.131,-698.974,753.051,1
1.847048,-15.999,2.436,0.48,713.561,-779.846,708.129,1
1.856331,-15.999,2.687,0.831,851.684,-883.789,628.967,1
1.863964,-15.999,2.841,1.218,960.144,-962.646,536.804,1
1.870597,-15.999,2.775,1.453,1033.203,-1028.503,425.72,1
1.878892,-15.999,2.499,1.827,1039.306,-1070.007,303.527,1
1.88743,-15.999,2.296,2.419,925.292,-1080.81,164.428,1
1.895733,-15.999,2.467,2.723,777.526,-1064.209,54.321,1
1.902799,-15.999,2.805,3.063,654.052,-1025.878,-44.555,1
1.911016,-15.999,2.104,5.383,424.438,-941.65,-132.202,1
1.918771,-15.999,3.813,2.923,334.655,-950.073,-192.626,1
1.927749,-15.999,3.21,3.547,595.275,-863.037,-248.413,1
1.936143,-15.999,2.577,2.993,740.478,-863.342,-347.534,1
1.945419,-15.209,1.856,3.126,832.458,-756.957,-434.509,1
1.953926,-13.589,1.219,2.757,818.054,-690.49,-511.169,1
1.960529,-12.325,0.784,2.742,797.546,-583.313,-555.358,1
1.968326,-11.218,0.16,2.404,676.574,-510.62,-587.646,1
1.976926,-10.134,-0.169,2.283,450.805,-389.526,-597.168,1
1.985249,-9.511,-0.056,1.896,261.413,-342.285,-596.679,1
1.993039,-9.079,0.256,2.065,189.88,-291.931,-589.66,1
2.003556,-8.665,0.368,1.853,210.876,-265.38,-586.792,1
2.010023,-8.376,0.291,1.937,297.973,-225.769,-582.946,1
2.017515,-7.941,-0.035,1.817,352.783,-194.03,-580.688,1
2.028365,-7.433,-0.368,1.745,362.487,-143.615,-570.251,1
2.035762,-6.902,-0.687,1.604,333.984,-100.463,-554.565,1
2.044693,-6.435,-0.904,1.53,287.17,-57.8,-534.423,1
2.052322,-5.896,-1.068,1.425,244.873,-26.428,-512.084,1
2.061285,-5.418,-1.2,1.396,230.651,-1.892,-490.661,1
2.068815,-4.887,-1.393,1.28,210.815,23.254,-465.087,1
2.077983,-4.273,-1.537,1.181,178.222,43.212,-441.406,1
2.08787,-3.833,-1.62,1.059,131.835,60.546,-413.513,1
2.097069,-3.442,-1.608,1.002,107.543,72.448,-385.07,1
2.104322,-3.082,-1.578,0.918,118.957,80.139,-358.459,1
2.111576,-2.847,-1.508,0.865,138.305,86.791,-336.608,1
2.119134,-2.739,-1.467,0.763,153.991,92.956,-312.438,1
2.128467,-2.468,-1.451,0.713,159.667,98.815,-292.053,1
2.136382,-2.191,-1.406,0.66,158.325,105.529,-271.484,1
2.143803,-2.13,-1.323,0.575,149.597,110.412,-248.779,1
2.151731,-1.972,-1.224,0.569,140.197,115.661,-229.736,1
2.159285,-1.763,-1.107,0.495,131.347,119.262,-212.463,1
2.168556,-1.617,-1.009,0.479,118.286,123.107,-193.664,1
2.175903,-1.489,-0.913,0.427,106.994,125.427,-179.016,1
2.185277,-1.268,-0.797,0.411,98.388,126.586,-163.269,1
2.192238,-1.182,-0.71,0.375,94.604,128.234,-150.695,1
2.200166,-1.113,-0.62,0.353,89.782,127.99,-137.451,1
2.209287,-1.015,-0.569,0.339,86.608,128.906,-126.586,1
2.217693,-0.916,-0.522,0.318,82.153,129.15,-114.807,1
2.226152,-0.821,-0.491,0.295,75.439,130.249,-105.407,1
2.234077,-0.7,-0.448,0.269,66.955,130.432,-97.045,1
2.241464,-0.62,-0.423,0.242,58.837,130.737,-89.477,1
2.24947,-0.525,-0.384,0.222,52.429,128.967,-81.176,1
2.256706,-0.472,-0.354,0.206,50.72,127.197,-73.669,1
2.265991,-0.373,-0.34,0.18,46.813,124.877,-67.504,1
2.273556,-0.291,-0.317,0.187,38.94,123.229,-61.462,1
2.283081,-0.175,-0.3,0.168,34.912,120.117,-56.091,1
2.290668,-0.08,-0.262,0.18,37.536,117.309,-50.354,1
2.2973,0.017,-0.226,0.172,46.508,113.037,-46.081,1
2.306263,0.025,-0.218,0.182,59.265,109.985,-41.87,1
2.313039,0.04,-0.208,0.163,69.396,106.567,-37.78,1
2.321478,0.096,-0.225,0.161,77.392,103.576,-34.057,1
2.328489,0.17,-0.241,0.155,82.336,100.952,-29.602,1
2.337141,0.257,-0.257,0.15,85.693,98.693,-25.939,1
2.344099,0.352,-0.276,0.149,86.242,96.191,-21.423,1
2.35202,0.433,-0.282,0.145,84.472,94.543,-17.395,1
2.3607,0.518,-0.28,0.148,81.176,93.261,-13.305,1
2.368321,0.572,-0.265,0.158,79.284,91.369,-9.643,1
2.377088,0.635,-0.245,0.153,81.909,88.928,-5.615,1
2.384203,0.69,-0.228,0.153,85.876,86.181,-2.319,1
2.393239,0.758,-0.21,0.149,93.566,82.58,1.77,1
2.401491,0.797,-0.195,0.145,99.792,79.345,4.882,1
2.409114,0.854,-0.183,0.153,105.407,76.904,7.751,1
2.41761,0.92,-0.17,0.146,108.154,73.425,11.169,1
2.426042,0.965,-0.152,0.159,106.628,71.166,14.587,1
2.432974,0.984,-0.125,0.16,104.553,68.786,16.845,1
2.441995,0.979,-0.086,0.173,103.454,67.626,18.554,1
2.449703,0.953,-0.061,0.171,101.623,66.65,20.263,1
2.458066,0.936,-0.038,0.171,96.618,66.406,21.606,1
2.465614,0.933,-0.02,0.162,91.125,66.162,22.277,1
2.474126,0.916,0.007,0.159,84.716,66.223,23.193,1
2.482523,0.947,0.026,0.149,79.772,66.101,24.23,1
2.490185,0.983,0.044,0.151,75.805,65.368,24.475,1
2.497288,1.014,0.063,0.14,75.744,64.758,25.085,1
2.50636,1.032,0.078,0.138,78.796,63.598,25.451,1
2.513954,1.065,0.098,0.144,85.815,62.316,25.573,1
2.521257,1.111,0.107,0.131,97.106,60.974,26.367,1
2.528948,1.126,0.126,0.142,108.52,59.753,26.794,1
2.538082,1.135,0.127,0.138,116.699,58.41,27.465,1
2.545793,1.149,0.137,0.143,122.314,58.044,28.198,1
2.553529,1.149,0.127,0.135,121.643,57.678,28.625,1
2.560421,1.135,0.145,0.133,116.271,58.471,28.869,1
2.567498,1.122,0.191,0.123,115.6,59.204,29.296,1
2.576336,1.129,0.216,0.126,120.239,58.166,29.357,1
2.583026,1.077,0.244,0.116,131.896,57.739,29.113,1
2.591406,1.073,0.271,0.109,143.92,56.091,28.015,1
2.598344,1.062,0.289,0.111,157.409,55.358,27.099,1
2.607492,1.048,0.297,0.101,167.907,54.138,26.123,1
2.61507,1.03,0.309,0.117,177.978,54.138,25.573,1
2.622169,1.022,0.319,0.122,186.706,54.321,24.902,1
2.629155,1.006,0.339,0.134,194.946,55.236,24.353,1
2.637494,0.953,0.349,0.119,199.707,56.823,23.986,1
2.644175,0.918,0.383,0.133,200.195,58.166,23.437,1
2.651736,0.888,0.405,0.119,199.584,60.058,22.766,1
2.660467,0.868,0.431,0.121,199.218,61.157,22.399,1
2.667606,0.85,0.463,0.114,199.645,62.866,22.033,1
2.676934,0.818,0.499,0.114,199.157,63.354,21.85,1
2.683492,0.805,0.515,0.107,197.265,65.307,21.301,1
2.693014,0.804,0.538,0.093,193.298,66.101,21.362,1
2.700976,0.803,0.566,0.098,188.476,67.077,20.935,1
2.70934,0.785,0.58,0.076,187.438,68.176,20.812,1
2.716794,0.736,0.571,0.045,182.189,70.251,20.751,1
2.72385,0.727,0.574,0.016,165.161,72.021,20.202,1
2.731167,0.685,0.597,0.007,153.503,75.012,20.08,1
2.739022,0.675,0.613,-0.027,144.47,76.477,19.348,1
2.749061,0.665,0.623,-0.029,138.366,77.941,18.92,1
2.756757,0.679,0.619,-0.074,131.286,79.589,18.493,1
2.764282,0.678,0.626,-0.082,122.192,80.932,18.188,1
2.771964,0.671,0.645,-0.099,112.976,83.618,17.7,1
2.779437,0.674,0.653,-0.111,104.858,84.533,16.54,1
2.78665,0.645,0.68,-0.125,95.642,87.28,15.502,1
2.796565,0.67,0.702,-0.152,86.608,88.684,14.221,1
2.80458,0.656,0.703,-0.156,81.359,90.82,12.512,1
2.812231,0.627,0.713,-0.191,70.373,92.834,10.498,1
2.819257,0.637,0.724,-0.202,58.41,93.872,8.483,1
2.826283,0.654,0.73,-0.226,52.124,95.642,6.225,1
2.834179,0.649,0.75,-0.23,49.255,95.458,4.272,1
2.8428,0.666,0.722,-0.244,56.335,93.566,1.831,1
2.851575,0.67,0.769,-0.235,74.035,93.261,-0.488,1
2.860558,0.689,0.732,-0.288,74.951,91.186,-2.38,1
2.869577,0.721,0.719,-0.281,70.312,90.881,-3.662,1
2.876255,0.729,0.716,-0.291,65.856,89.843,-5.554,1
2.884051,0.722,0.702,-0.291,63.964,88.562,-7.08,1
2.892693,0.731,0.695,-0.298,67.871,86.791,-8.605,1
2.90203,0.723,0.685,-0.291,75.134,84.35,-9.948,1
2.908939,0.714,0.662,-0.291,85.571,81.909,-11.23,1
2.919715,0.705,0.627,-0.291,93.994,79.772,-12.573,1
2.928005,0.713,0.593,-0.296,101.135,77.819,-13.366,1
2.935806,0.721,0.565,-0.302,106.689,76.171,-13.916,1
2.943998,0.731,0.537,-0.315,109.619,74.584,-14.465,1
2.951291,0.742,0.5,-0.329,105.957,74.035,-14.465,1
2.960037,0.749,0.486,-0.347,96.13,73.852,-14.282,1
2.969465,0.743,0.464,-0.372,80.993,73.669,-14.892,1
2.975904,0.732,0.47,-0.387,69.885,72.753,-15.258,1
2.98484,0.745,0.472,-0.395,66.894,71.35,-15.747,1
2.993448,0.759,0.467,-0.413,77.392,67.993,-16.235,1
3.001963,0.776,0.463,-0.404,102.294,63.11,-16.296,1
3.008418,0.78,0.448,-0.399,131.408,59.143,-15.563,1
3.016113,0.838,0.421,-0.397,157.958,56.213,-14.343,1
3.023443,0.84,0.372,-0.4,169.25,54.87,-12.878,1
3.032514,0.827,0.346,-0.417,161.315,56.823,-11.352,1
3.041185,0.805,0.334,-0.424,135.009,59.02,-10.131,1
3.050016,0.778,0.338,-0.432,109.802,61.889,-9.277,1
3.057881,0.829,0.359,-0.445,86.791,65.185,-9.033,1
3.064872,0.8,0.385,-0.451,82.092,64.392,-9.216,1
3.074478,0.812,0.395,-0.445,90.087,64.697,-9.033,1
3.081213,0.843,0.396,-0.479,106.994,61.523,-8.789,1
3.08895,0.845,0.398,-0.463,126.037,59.57,-8.178,1
3.096348,0.852,0.392,-0.482,143.554,57.8,-7.263,1
3.105373,0.853,0.391,-0.487,148.986,56.884,-6.103,1
3.113617,0.844,0.396,-0.501,143.493,57.434,-4.76,1
3.121456,0.828,0.408,-0.504,132.385,58.044,-4.272,1
3.129431,0.821,0.435,-0.512,121.093,59.143,-3.967,1
3.138711,0.823,0.456,-0.512,112.182,59.509,-3.601,1
3.146553,0.832,0.478,-0.519,111.022,59.387,-3.967,1
3.155199,0.852,0.491,-0.53,116.271,58.044,-4.455,1
3.162912,0.875,0.494,-0.531,120.178,56.945,-4.272,1
3.17128,0.901,0.492,-0.531,122.497,56.274,-4.211,1
3.178836,0.91,0.508,-0.538,120.483,55.603,-3.967,1
3.187571,0.915,0.529,-0.536,118.652,55.664,-4.028,1
3.195396,0.899,0.555,-0.532,120.056,54.992,-4.211,1
3.202567,0.915,0.591,-0.514,126.953,54.26,-4.455,1
3.211389,0.843,0.59,-0.52,125.732,55.236,-4.333,1
3.219426,0.837,0.615,-0.538,108.825,55.969,-5.126,1
3.227588,0.817,0.644,-0.523,94.238,57.8,-6.286,1
3.234754,0.823,0.663,-0.525,91.247,57.617,-7.812,1
3.242018,0.776,0.685,-0.517,90.576,57.617,-9.216,1
3.24961,0.814,0.704,-0.522,91.43,56.64,-10.07,1
3.256636,0.823,0.717,-0.515,94.97,56.091,-11.596,1
3.264515,0.838,0.728,-0.536,96.069,55.297,-12.878,1
3.273439,0.844,0.746,-0.529,95.275,54.016,-14.282,1
3.281733,0.846,0.771,-0.526,96.252,53.283,-15.319,1
3.289565,0.835,0.792,-0.531,96.313,51.757,-16.723,1
3.296705,0.817,0.819,-0.52,95.947,51.147,-18.005,1
3.304704,0.807,0.841,-0.523,95.581,49.133,-19.653,1
3.313998,0.796,0.863,-0.508,96.801,47.79,-21.545,1
3.319698,0.797,0.871,-0.511,98.327,46.264,-23.132,1
3.329186,0.812,0.871,-0.509,96.191,44.86,-25.329,1
3.337226,0.827,0.865,-0.519,88.012,43.579,-27.404,1
3.345633,0.841,0.864,-0.517,78.063,42.541,-28.93,1
3.352378,0.867,0.86,-0.51,70.617,41.809,-30.639,1
3.360738,0.878,0.848,-0.51,65.551,40.71,-32.348,1
3.36932,0.895,0.849,-0.503,63.781,39.367,-33.996,1
3.37618,0.9,0.867,-0.499,70.495,37.048,-35.522,1
3.385547,0.89,0.888,-0.495,84.106,34.606,-37.048,1
3.391266,0.873,0.892,-0.494,98.388,31.982,-38.269,1
3.399688,0.866,0.881,-0.492,106.75,30.578,-39.855,1
3.408119,0.838,0.872,-0.496,104.492,30.09,-41.503,1
3.415266,0.829,0.86,-0.496,93.994,30.761,-43.334,1
3.423046,0.813,0.852,-0.496,80.81,31.372,-44.86,1
3.43083,0.815,0.83,-0.498,68.115,31.433,-46.569,1
3.438528,0.824,0.795,-0.503,55.358,31.433,-47.973,1
3.446483,0.851,0.775,-0.504,42.48,31.005,-49.499,1
3.454212,0.844,0.747,-0.505,32.043,30.944,-50.109,1
3.461462,0.871,0.758,-0.547,20.996,30.883,-51.208,1
3.472065,0.871,0.723,-0.538,12.207,28.991,-52.124,1
3.477673,0.881,0.776,-0.577,12.573,31.677,-51.94,1
3.485335,0.894,0.799,-0.669,15.38,27.709,-54.138,1
3.494186,0.847,0.754,-0.602,15.991,27.709,-55.603,1
3.501863,0.83,0.729,-0.638,17.883,27.16,-56.274,1
3.510435,0.761,0.73,-0.609,20.874,24.536,-58.41,1
3.518943,0.769,0.695,-0.643,20.568,24.841,-59.875,1
3.525544,0.779,0.666,-0.637,13.732,22.399,-61.462,1
3.534922,0.782,0.642,-0.597,6.347,22.949,-62.438,1
3.541554,0.733,0.66,-0.614,5.798,20.446,-63.598,1
3.549225,0.729,0.676,-0.596,10.986,19.958,-64.27,1
3.556548,0.729,0.702,-0.637,19.042,17.883,-65.368,1
3.567888,0.728,0.706,-0.622,29.602,15.441,-66.894,1
3.573157,0.759,0.687,-0.636,41.992,13.061,-68.115,1
3.582607,0.765,0.677,-0.613,50.964,10.803,-69.152,1
3.59106,0.798,0.645,-0.606,56.884,9.948,-70.007,1
3.598976,0.796,0.629,-0.606,57.495,7.446,-71.105,1
3.606428,0.812,0.605,-0.581,58.471,4.638,-72.082,1
3.614193,0.803,0.583,-0.555,61.828,2.929,-72.448,1
3.622249,0.765,0.568,-0.541,67.26,0.976,-72.326,1
3.630477,0.725,0.558,-0.548,72.998,-0.854,-72.448,1
3.639981,0.723,0.571,-0.522,89.355,-3.845,-71.899,1
3.647974,0.69,0.566,-0.51,118.53,-4.577,-73.547,1
3.65536,0.632,0.542,-0.474,150.939,-5.981,-73.73,1
3.663673,0.601,0.495,-0.455,176.025,-5.432,-73.364,1
3.67142,0.609,0.247,-0.505,179.992,-4.821,-71.777,1
3.679045,0.687,0.285,-0.411,145.935,2.075,-65.429,1
3.687564,0.884,0.295,-0.495,118.591,0.183,-66.528,1
3.6946,0.94,0.332,-0.387,107.36,4.76,-67.81,1
3.702411,0.999,0.337,-0.459,100.891,2.685,-67.871,1
3.710071,1.023,0.397,-0.394,108.581,3.295,-68.115,1
3.719146,1.052,0.401,-0.459,121.337,1.281,-67.626,1
3.72576,1.074,0.413,-0.431,135.681,0.183,-66.467,1
3.733669,1.061,0.352,-0.479,137.023,-0.122,-64.147,1
3.742786,1.057,0.443,-0.444,125.915,0.854,-63.598,1
3.750326,0.995,0.451,-0.461,113.464,2.38,-64.086,1
3.760877,0.997,0.473,-0.454,99.67,2.99,-64.27,1
3.766771,1.024,0.512,-0.472,78.796,4.455,-65.002,1
3.776435,1.024,0.543,-0.464,58.532,6.103,-65.429,1
3.783513,1.056,0.58,-0.483,38.879,5.432,-66.223,1
3.790923,1.023,0.627,-0.467,30.151,5.126,-66.894,1
3.798641,1.056,0.666,-0.49,26.794,2.807,-67.932,1
3.807712,0.958,0.721,-0.47,30.395,0.915,-69.519,1
3.816409,0.917,0.737,-0.498,40.344,-2.929,-71.594,1
3.823495,0.895,0.736,-0.446,50.537,-4.577,-73.181,1
3.832285,0.843,0.734,-0.467,59.326,-6.408,-74.951,1
3.840208,0.822,0.723,-0.418,66.894,-8.85,-77.453,1
3.84792,0.775,0.695,-0.398,73.547,-9.033,-78.979,1
3.854988,0.774,0.686,-0.367,78.186,-10.498,-80.505,1
3.864318,0.729,0.672,-0.332,82.519,-10.131,-81.848,1
3.872703,0.707,0.64,-0.32,81.97,-10.498,-83.923,1
3.880163,0.684,0.606,-0.289,78.735,-9.521,-85.083,1
3.888323,0.673,0.566,-0.285,73.12,-8.972,-86.242,1
3.896628,0.661,0.533,-0.257,64.819,-7.751,-87.28,1
3.904527,0.642,0.49,-0.26,56.091,-6.713,-88.134,1
3.912248,0.626,0.451,-0.245,44.555,-5.126,-88.684,1
3.921485,0.632,0.42,-0.246,35.583,-3.845,-88.684,1
3.927537,0.661,0.39,-0.242,29.968,-2.868,-88.989,1
3.93531,0.688,0.357,-0.23,26.916,-2.014,-89.05,1
3.943907,0.695,0.326,-0.22,24.108,-1.77,-88.867,1
3.95132,0.721,0.297,-0.192,21.057,-0.915,-88.745,1
3.960172,0.736,0.292,-0.189,21.484,-0.244,-88.073,1
3.967645,0.724,0.287,-0.17,22.949,0.427,-87.951,1
3.975528,0.711,0.271,-0.171,22.033,0.976,-87.707,1
3.9838,0.729,0.266,-0.158,20.141,1.708,-87.341,1
3.990369,0.744,0.26,-0.151,18.188,2.38,-86.791,1
3.998361,0.763,0.25,-0.14,15.624,3.479,-86.547,1
4.007503,0.774,0.23,-0.132,11.169,5.004,-86.242,1
4.01529,0.784,0.222,-0.123,6.774,5.798,-85.937,1
4.024308,0.769,0.21,-0.116,3.784,6.774,-85.266,1
4.031081,0.771,0.2,-0.111,1.22,7.812,-85.021,1
4.039204,0.77,0.189,-0.105,-0.427,8.728,-84.899,1
4.047543,0.774,0.174,-0.104,-0.854,9.643,-84.899,1
4.055487,0.776,0.164,-0.098,0.549,10.864,-85.144,1
4.063114,0.796,0.156,-0.094,4.882,11.352,-84.96,1
4.072041,0.81,0.164,-0.094,11.779,11.535,-85.205,1
4.081835,0.816,0.157,-0.098,22.033,11.901,-85.632,1
4.089445,0.796,0.165,-0.098,29.907,12.695,-86.242,1
4.098441,0.784,0.166,-0.097,34.118,13.488,-87.402,1
4.107872,0.78,0.163,-0.1,36.804,14.892,-88.806,1
4.115757,0.779,0.158,-0.104,36.315,16.235,-90.026,1
4.124319,0.771,0.152,-0.097,35.522,17.883,-91.796,1
4.131975,0.771,0.143,-0.102,35.461,19.47,-93.566,1
4.13941,0.77,0.137,-0.092,36.315,21.24,-95.397,1
4.147689,0.761,0.12,-0.104,37.292,22.338,-97.229,1
4.15538,0.736,0.062,-0.108,34.545,23.742,-98.144,1
4.163054,0.721,-0.006,-0.114,22.033,26.245,-98.327,1
4.170896,0.78,0.025,-0.088,10.559,29.052,-101.013,1
4.179139,0.709,0.043,-0.081,7.141,30.883,-103.149,1
4.186248,0.646,0.038,-0.074,6.225,33.447,-105.895,1
4.195063,0.619,0.023,-0.066,4.882,35.339,-108.703,1
4.203093,0.585,0.007,-0.071,3.112,38.391,-111.999,1
4.210051,0.515,-0.032,-0.088,-2.685,41.137,-114.501,1
4.217834,0.443,-0.072,-0.085,-10.681,44.128,-116.76,1
4.227992,0.424,-0.122,-0.102,-19.775,46.63,-119.567,1
4.237485,0.363,-0.189,-0.101,-29.235,49.499,-122.802,1
4.244376,0.308,-0.26,-0.077,-35.034,52.673,-125.244,1
4.251727,0.273,-0.321,-0.055,-33.264,55.236,-127.197,1
4.260283,0.167,-0.399,-0.04,-26.611,59.143,-128.234,1
4.269142,0.093,-0.482,-0.03,-21.362,63.049,-128.601,1
4.277246,0.041,-0.557,-0.027,-18.737,67.687,-128.54,1
4.285847,-0.037,-0.651,-0.011,-20.324,72.265,-127.746,1
4.294977,-0.054,-0.727,-0.012,-20.751,77.819,-126.159,1
4.304263,-0.108,-0.821,-0.008,-24.963,83.129,-123.535,1
4.31081,-0.135,-0.927,-0.03,-30.395,88.928,-120.3,1
4.321751,-0.171,-1.037,-0.041,-41.809,94.726,-116.027,1
4.329053,-0.227,-1.139,-0.04,-62.133,100.341,-110.351,1
4.337804,-0.279,-1.246,-0.06,-82.946,105.59,-104.125,1
4.346936,-0.281,-1.342,-0.055,-104.248,110.412,-96.862,1
4.354373,-0.301,-1.434,-0.064,-119.384,113.83,-89.843,1
4.364502,-0.332,-1.535,-0.061,-134.826,118.286,-79.65,1
4.373176,-0.356,-1.597,-0.079,-144.165,121.154,-69.03,1
4.380798,-0.402,-1.645,-0.06,-135.07,123.962,-57.434,1
4.388935,-0.414,-1.744,-0.076,-116.455,125.61,-46.874,1
4.398096,-0.432,-1.834,-0.067,-93.872,127.685,-32.653,1
4.405364,-0.511,-1.908,-0.078,-72.998,129.882,-19.775,1
4.413145,-0.586,-2.014,-0.071,-53.344,133.483,-2.99,1
4.421265,-0.64,-2.098,-0.108,-46.997,138.244,12.634,1
4.430162,-0.748,-2.167,-0.149,-59.082,144.836,31.249,1
4.439748,-0.922,-2.149,-0.177,-76.416,151.0,48.522,1
4.446831,-0.921,-2.182,-0.198,-81.176,157.226,65.185,1
4.45554,-0.979,-2.106,-0.157,-77.27,157.531,85.51,1
4.463213,-1.13,-2.155,-0.255,-39.123,163.085,104.675,1
4.472824,-1.199,-2.202,-0.247,-16.296,164.306,122.436,1
4.480706,-1.425,-2.171,-0.327,-11.23,167.968,144.531,1
4.488631,-1.65,-2.129,-0.347,-6.225,171.386,166.137,1
4.497303,-1.897,-2.019,-0.379,7.263,173.767,185.058,1
4.506289,-2.137,-1.943,-0.457,25.756,174.499,204.406,1
4.513767,-2.399,-1.79,-0.438,60.852,172.851,226.562,1
4.521446,-2.593,-1.783,-0.552,91.003,171.447,251.953,1
4.530326,-2.821,-1.776,-0.577,104.858,168.701,274.719,1
4.537378,-3.046,-1.713,-0.666,104.492,167.968,298.828,1
4.546367,-3.258,-1.648,-0.687,100.28,164.123,327.392,1
4.555186,-3.456,-1.575,-0.722,118.835,160.644,358.642,1
4.563022,-3.686,-1.557,-0.778,141.601,151.733,386.779,1
4.571306,-3.957,-1.61,-0.841,161.743,143.371,418.212,1
4.58261,-4.314,-1.566,-0.912,180.847,129.15,456.787,1
4.588425,-4.927,-1.689,-1.017,174.316,111.145,503.234,1
4.597701,-5.437,-1.696,-1.057,161.56,98.754,540.405,1
4.605062,-6.088,-1.617,-1.15,169.433,78.186,584.289,1
4.615104,-6.732,-1.512,-1.19,204.101,54.748,622.009,1
4.622123,-7.545,-1.392,-1.241,254.455,18.798,665.405,1
4.629965,-8.476,-1.331,-1.229,283.386,-21.423,708.984,1
4.638327,-9.278,-1.151,-1.181,306.274,-59.692,745.727,1
4.646483,-10.19,-0.999,-1.147,333.74,-103.149,780.029,1
4.654916,-11.233,-0.847,-1.041,343.017,-154.602,818.115,1
4.663733,-12.26,-0.634,-0.917,341.125,-199.035,847.656,1
4.671874,-13.498,-0.369,-0.803,325.805,-250.366,877.441,1
4.679647,-14.891,-0.022,-0.694,313.598,-301.025,902.648,1
4.688887,-15.999,0.273,-0.538,311.523,-346.435,920.593,1
4.696755,-15.999,0.588,-0.367,339.66,-402.77,937.927,1
4.706173,-15.999,0.809,-0.161,389.77,-469.726,947.814,1
4.714915,-15.999,1.058,0.06,443.42,-531.921,949.035,1
4.72229,-15.999,1.398,0.402,539.855,-616.943,936.95,1
4.730461,-15.999,1.662,0.771,639.465,-696.899,912.536,1
4.737661,-15.999,1.803,1.205,734.924,-794.189,862.121,1
4.746248,-15.999,1.933,1.716,768.31,-867.492,806.518,1
4.753011,-15.999,2.113,2.101,793.579,-931.213,740.966,1
4.761443,-15.999,2.267,2.393,848.51,-990.478,662.963,1
4.769236,-15.999,2.683,2.614,967.59,-1045.471,562.377,1
4.777207,-15.999,2.629,2.577,1138.61,-1104.98,404.846,1
4.784223,-15.999,2.648,2.762,1258.606,-1132.995,247.009,1
4.792596,-15.999,2.536,2.599,1282.898,-1125.671,66.711,1
4.800942,-15.999,2.124,2.439,1124.206,-1077.514,-97.656,1
4.809522,-15.999,2.036,2.77,910.4,-1002.99,-246.032,1
4.816907,-15.999,1.833,2.676,808.654,-927.795,-343.994,1
4.82704,-15.999,1.55,2.653,732.177,-849.548,-431.823,1
4.833389,-15.676,1.232,2.65,652.038,-750.244,-498.168,1
4.841591,-14.518,0.912,2.307,551.452,-676.818,-539.001,1
4.850222,-13.774,0.813,2.144,443.054,-607.36,-564.758,1
4.858326,-12.875,0.816,2.082,348.51,-548.889,-580.383,1
4.866154,-12.026,0.714,1.97,287.109,-486.816,-590.576,1
4.873054,-11.179,0.608,1.888,266.479,-445.8,-594.36,1
4.882494,-10.36,0.453,1.829,271.057,-403.686,-594.36,1
4.89,-9.49,0.283,1.672,279.113,-360.107,-592.407,1
4.897229,-9.027,0.18,1.651,288.757,-323.059,-591.125,1
4.905454,-8.567,0.018,1.608,284.484,-283.63,-586.975,1
4.913374,-8.069,-0.176,1.593,258.422,-243.835,-580.2,1
4.921819,-7.67,-0.341,1.499,198.364,-197.753,-568.664,1
4.930775,-7.189,-0.459,1.461,131.53,-161.743,-553.039,1
4.939487,-6.748,-0.535,1.402,80.749,-135.192,-536.987,1
4.948487,-6.12,-0.579,1.334,43.334,-110.961,-514.099,1
4.956986,-5.661,-0.613,1.281,43.823,-97.656,-495.239,1
4.965778,-5.169,-0.654,1.247,72.326,-84.533,-473.754,1
4.973029,-4.74,-0.711,1.206,108.703,-71.777,-455.078,1
4.982429,-4.384,-0.783,1.161,138.549,-55.175,-432.739,1
4.990666,-3.906,-0.858,1.115,159.545,-32.043,-410.644,1
4.999059,-3.616,-0.959,1.12,153.198,-13.916,-392.456,1
5.006576,-3.182,-1.031,1.033,130.554,7.934,-371.826,1
5.01619,-2.881,-1.088,1.057,106.323,23.742,-353.82,1
5.023106,-2.549,-1.143,1.006,85.876,40.527,-333.984,1
5.030979,-2.415,-1.181,1.023,73.364,51.879,-316.833,1
5.038726,-2.239,-1.214,1.0,73.73,62.072,-300.231,1
5.046937,-2.131,-1.244,1.009,82.153,70.8,-282.897,1
5.055907,-1.987,-1.281,0.947,81.237,81.726,-262.329,1
5.063334,-1.871,-1.29,0.92,70.129,88.745,-244.689,1
5.070764,-1.691,-1.282,0.875,60.485,96.374,-227.6,1
5.078512,-1.463,-1.273,0.819,56.884,101.257,-211.303,1
5.087303,-1.255,-1.259,0.749,52.429,106.14,-191.894,1
5.094562,-1.081,-1.197,0.687,53.894,108.215,-176.696,1
5.101983,-0.998,-1.172,0.647,53.283,109.313,-161.682,1
5.109648,-0.91,-1.104,0.629,53.222,111.083,-147.399,1
5.11754,-0.857,-1.055,0.613,55.114,112.304,-131.896,1
5.126538,-0.779,-1.012,0.589,54.565,114.074,-119.262,1
5.136119,-0.683,-0.964,0.547,47.363,116.027,-105.346,1
5.144853,-0.54,-0.903,0.518,40.161,117.553,-92.163,1
5.154047,-0.425,-0.856,0.479,38.024,117.614,-79.833,1
5.161594,-0.341,-0.798,0.44,38.757,117.126,-69.763,1
5.169448,-0.232,-0.736,0.415,45.349,115.112,-57.922,1
5.178296,-0.156,-0.675,0.398,55.175,113.586,-49.133,1
5.187308,-0.084,-0.622,0.378,66.528,111.328,-39.916,1
5.195716,-0.041,-0.588,0.355,71.777,109.619,-32.104,1
5.202705,-0.008,-0.525,0.344,76.11,108.459,-23.925,1
5.212377,0.029,-0.48,0.322,78.674,106.994,-17.822,1
5.219276,0.107,-0.439,0.318,78.735,106.14,-11.474,1
5.227595,0.192,-0.409,0.287,74.34,104.858,-6.835,1
5.238061,0.298,-0.361,0.283,65.551,104.064,-1.464,1
5.245858,0.398,-0.322,0.27,56.335,102.966,3.173,1
5.253868,0.512,-0.261,0.279,50.292,101.806,6.835,1
5.26304,0.546,-0.203,0.279,47.058,100.646,10.437,1
5.270403,0.61,-0.161,0.273,45.471,99.06,13.122,1
5.277761,0.636,-0.134,0.268,43.151,98.144,14.465,1
5.285095,0.702,-0.107,0.254,41.564,96.923,15.563,1
5.293872,0.732,-0.068,0.26,38.635,96.13,16.174,1
5.301111,0.798,-0.044,0.245,38.574,94.299,16.418,1
5.310019,0.83,-0.023,0.241,37.658,92.895,16.052,1
5.317406,0.887,0.003,0.22,35.522,90.27,15.258,1
5.325705,0.943,0.027,0.215,33.874,89.05,15.441,1
5.335159,1.024,0.05,0.192,33.386,86.853,15.502,1
5.343227,1.069,0.081,0.176,35.644,84.106,16.052,1
5.350487,1.094,0.132,0.145,41.198,80.444,16.174,1
5.358789,1.118,0.161,0.137,50.537,76.11,16.052,1
5.366144,1.123,0.195,0.117,61.279,72.753,16.052,1
5.374704,1.184,0.219,0.098,71.655,68.847,15.319,1
5.382493,1.183,0.231,0.087,79.345,66.894,14.282,1
5.390281,1.181,0.241,0.066,83.19,63.781,12.878,1
5.39682,1.203,0.262,0.051,85.388,62.866,12.023,1
5.405307,1.197,0.282,0.041,86.181,60.913,10.742,1
5.412125,1.18,0.297,0.033,87.585,60.18,9.521,1
5.418659,1.174,0.312,0.001,89.05,58.837,7.934,1
5.426684,1.166,0.325,-0.005,90.942,57.373,7.08,1
5.433937,1.155,0.338,-0.022,94.543,55.725,6.225,1
5.442874,1.143,0.351,-0.028,99.792,54.016,4.638,1
5.451331,1.12,0.354,-0.039,105.163,52.673,3.234,1
5.458625,1.091,0.346,-0.047,110.107,51.574,0.915,1
5.466476,1.088,0.33,-0.059,112.731,51.086,-1.586,1
5.47595,1.091,0.311,-0.074,113.22,50.231,-4.272,1
5.483301,1.07,0.289,-0.071,112.06,49.743,-6.286,1
5.492501,1.028,0.272,-0.053,110.412,49.56,-8.422,1
5.500418,1.029,0.247,-0.035,109.924,50.781,-10.192,1
5.50587,1.039,0.223,0.016,114.99,51.269,-10.681,1
5.514747,1.101,0.183,0.027,121.154,54.321,-11.047,1
5.524018,1.116,0.18,0.04,120.727,56.64,-12.695,1
5.531241,1.107,0.15,0.028,113.891,59.387,-13.977,1
5.539017,0.999,0.166,0.057,101.196,64.575,-14.404,1
5.546517,0.997,0.162,0.056,109.802,63.537,-12.634,1
5.554144,0.943,0.196,0.084,130.31,63.354,-10.131,1
5.563179,0.954,0.196,0.076,156.25,62.561,-7.934,1
5.570461,0.959,0.196,0.071,187.805,60.974,-4.211,1
5.580466,0.993,0.175,0.048,203.186,59.692,-1.159,1
5.587602,0.933,0.186,0.042,210.205,60.119,1.342,1
5.595268,0.894,0.192,0.023,216.491,59.57,3.662,1
5.603477,0.877,0.166,0.03,217.468,62.072,6.591,1
5.610769,0.879,0.177,-0.013,220.153,63.415,9.46,1
5.618322,0.883,0.172,-0.014,215.148,66.04,11.84,1
5.627253,0.842,0.224,-0.06,212.097,67.993,14.892,1
5.634746,0.831,0.257,-0.09,207.397,69.763,17.456,1
5.641989,0.809,0.324,-0.116,204.528,70.251,19.409,1
5.649532,0.774,0.42,-0.143,211.059,70.129,21.24,1
5.657374,0.739,0.543,-0.179,224.853,67.687,22.277,1
5.664496,0.705,0.599,-0.182,248.718,64.208,23.254,1
5.673184,0.712,0.708,-0.211,280.7,62.744,23.62,1
5.680571,0.699,0.734,-0.247,296.813,58.166,24.353,1
5.688746,0.705,0.706,-0.263,285.034,59.448,26.367,1
5.698392,0.664,0.849,-0.284,248.901,59.753,26.428,1
5.705924,0.62,0.894,-0.298,207.824,61.34,25.085,1
5.713255,0.595,0.976,-0.31,176.818,63.293,23.925,1
5.720689,0.627,1.044,-0.336,165.283,61.828,21.911,1
5.728282,0.643,0.961,-0.345,158.508,60.424,22.277,1
5.73553,0.741,1.176,-0.356,176.94,60.119,16.357,1
5.744424,0.607,1.201,-0.354,193.359,55.114,13.916,1
5.751485,0.626,1.216,-0.385,201.904,55.908,11.718,1
5.758778,0.646,1.249,-0.424,195.129,52.673,7.995,1
5.766406,0.647,1.252,-0.398,182.495,54.26,4.699,1
5.77365,0.671,1.266,-0.425,166.87,54.382,1.098,1
5.781587,0.689,1.282,-0.399,153.442,54.504,-2.38,1
5.790241,0.706,1.292,-0.392,144.348,54.809,-5.798,1
5.798429,0.686,1.276,-0.392,136.657,54.26,-8.972,1
5.805296,0.698,1.065,-0.416,117.37,54.748,-10.192,1
5.814354,0.794,1.407,-0.385,120.422,59.57,-18.005,1
5.821497,0.611,1.326,-0.424,128.601,52.062,-20.385,1
5.82915,0.733,1.258,-0.424,151.489,55.236,-22.399,1
5.838081,0.75,1.222,-0.468,166.015,50.048,-25.756,1
5.84565,0.746,1.15,-0.45,182.678,51.269,-27.893,1
5.854378,0.732,1.123,-0.507,192.077,48.461,-29.907,1
5.863215,0.669,1.085,-0.485,205.627,48.278,-31.066,1
5.871272,0.667,1.05,-0.543,222.717,49.194,-32.104,1
5.880068,0.627,0.994,-0.53,229.431,47.973,-34.24,1
5.888111,0.615,0.946,-0.533,223.999,50.72,-34.912,1
5.894285,0.587,0.915,-0.546,211.608,52.307,-36.682,1
5.904855,0.588,0.879,-0.524,197.021,56.823,-37.658,1
5.911737,0.61,0.851,-0.537,183.715,59.02,-39.123,1
5.920563,0.631,0.812,-0.521,176.757,60.791,-39.489,1
5.929557,0.667,0.768,-0.527,177.612,61.096,-39.794,1
5.938105,0.702,0.721,-0.521,182.067,60.913,-39.184,1
5.94473,0.741,0.677,-0.525,183.105,60.607,-38.085,1
5.953123,0.72,0.642,-0.526,178.955,61.34,-36.682,1
5.959941,0.742,0.602,-0.535,167.297,62.622,-35.461,1
5.97029,0.738,0.58,-0.528,152.221,64.331,-34.606,1
5.978868,0.753,0.567,-0.542,133.667,66.528,-33.264,1
5.985922,0.772,0.562,-0.555,117.126,68.298,-32.531,1
5.993663,0.783,0.571,-0.571,105.895,68.969,-31.677,1
6.001581,0.783,0.592,-0.579,104.431,68.176,-31.066,1
6.010311,0.783,0.613,-0.583,111.145,66.65,-30.456,1
6.018403,0.783,0.633,-0.581,125.732,63.781,-29.968,1
6.025481,0.783,0.639,-0.586,139.465,61.157,-29.602,1
6.034732,0.784,0.636,-0.581,148.62,59.02,-29.052,1
6.041509,0.783,0.625,-0.579,151.428,57.617,-28.381,1
6.049589,0.791,0.623,-0.576,146.911,56.823,-27.648,1
6.057496,0.785,0.623,-0.577,138.061,56.518,-27.282,1
6.066626,0.784,0.629,-0.585,126.281,56.335,-27.282,1
6.074608,0.78,0.643,-0.589,114.746,55.725,-27.16,1
6.08183,0.789,0.654,-0.594,109.924,54.565,-27.526,1
6.091054,0.794,0.677,-0.592,110.656,52.307,-27.648,1
6.098609,0.792,0.691,-0.587,117.065,49.926,-28.198,1
6.106626,0.789,0.694,-0.59,122.924,48.095,-28.808,1
6.113943,0.789,0.701,-0.58,127.929,46.63,-29.357,1
6.123499,0.79,0.698,-0.581,129.821,45.41,-30.395,1
6.130402,0.795,0.699,-0.581,127.563,45.41,-31.188,1
6.138214,0.793,0.7,-0.576,121.582,45.532,-31.982,1
6.147081,0.793,0.701,-0.581,109.497,46.63,-33.447,1
6.154717,0.797,0.703,-0.583,95.336,47.729,-34.667,1
6.162872,0.807,0.707,-0.588,80.505,48.522,-36.132,1
6.171414,0.813,0.708,-0.589,72.57,48.461,-37.292,1
6.179449,0.831,0.699,-0.594,69.458,47.79,-38.452,1
6.186342,0.847,0.694,-0.597,70.312,46.386,-39.55,1
6.19465,0.851,0.693,-0.603,72.998,44.982,-40.222,1
6.203992,0.86,0.684,-0.606,77.697,43.212,-40.893,1
6.211563,0.859,0.689,-0.606,80.81,41.32,-41.381,1
6.220006,0.851,0.684,-0.606,81.726,40.283,-41.931,1
6.228077,0.835,0.687,-0.602,80.261,39.245,-42.663,1
6.237026,0.827,0.678,-0.6,77.026,38.635,-43.701,1
6.244487,0.82,0.683,-0.595,72.753,38.269,-44.677,1
6.251141,0.814,0.677,-0.591,68.786,37.658,-45.349,1
6.259339,0.81,0.672,-0.587,65.49,36.926,-46.386,1
6.266394,0.816,0.666,-0.581,63.903,35.888,-47.119,1
6.275092,0.813,0.66,-0.577,63.537,34.973,-48.034,1
6.282315,0.812,0.653,-0.573,65.185,33.264,-48.889,1
6.289711,0.804,0.645,-0.563,68.664,31.677,-49.743,1
6.298653,0.808,0.626,-0.554,73.181,29.968,-50.231,1
6.307715,0.817,0.615,-0.536,77.148,28.686,-51.33,1
6.315213,0.827,0.595,-0.525,77.453,28.259,-51.818,1
6.324221,0.826,0.572,-0.52,70.983,28.869,-52.795,1
6.331844,0.837,0.555,-0.514,60.241,29.235,-53.466,1
6.339264,0.845,0.543,-0.508,47.607,30.273,-54.626,1
6.347085,0.855,0.546,-0.502,39.733,30.456,-55.603,1
6.355077,0.863,0.539,-0.502,35.461,30.273,-56.823,1
6.362539,0.868,0.529,-0.504,33.203,29.724,-57.678,1
6.371566,0.871,0.52,-0.501,33.081,28.869,-58.898,1
6.379197,0.879,0.504,-0.505,34.912,27.404,-59.509,1
6.387014,0.889,0.494,-0.503,37.597,25.939,-60.241,1
6.3963,0.906,0.476,-0.501,41.381,23.986,-60.852,1
6.404444,0.917,0.464,-0.497,46.386,22.521,-61.157,1
6.412649,0.926,0.455,-0.507,48.4,21.423,-61.523,1
6.420329,0.927,0.438,-0.515,47.729,20.263,-61.706,1
6.42868,0.918,0.435,-0.523,45.104,18.859,-61.889,1
6.435294,0.92,0.437,-0.526,43.823,17.822,-62.499,1
6.442736,0.915,0.435,-0.53,43.884,16.906,-62.499,1
6.450379,0.912,0.43,-0.535,44.067,14.831,-62.744,1
6.457955,0.905,0.43,-0.534,45.104,13.793,-63.11,1
6.46528,0.914,0.429,-0.532,48.156,12.023,-63.171,1
6.472835,0.925,0.425,-0.527,54.565,10.253,-63.354,1
6.481673,0.932,0.426,-0.524,62.011,8.178,-63.476,1
6.489428,0.932,0.421,-0.522,68.603,6.225,-63.232,1
6.498105,0.932,0.417,-0.519,71.35,5.31,-63.476,1
6.505604,0.927,0.416,-0.513,70.19,4.638,-63.476,1
6.514289,0.921,0.415,-0.508,66.528,4.394,-63.72,1
6.521924,0.914,0.425,-0.508,61.889,4.272,-64.025,1
6.5298,0.917,0.425,-0.502,57.983,3.845,-64.208,1
6.53858,0.918,0.423,-0.497,54.565,3.54,-65.002,1
6.545443,0.923,0.421,-0.491,52.734,2.746,-65.551,1
6.554697,0.924,0.419,-0.477,52.917,1.708,-65.795,1
6.563182,0.92,0.411,-0.472,55.297,0.427,-65.917,1
6.571029,0.927,0.402,-0.454,56.579,-0.366,-66.04,1
6.580274,0.937,0.396,-0.437,54.748,-1.037,-66.223,1
6.587646,0.951,0.399,-0.432,51.452,-1.647,-66.772,1
6.594833,0.939,0.406,-0.423,44.067,-2.258,-67.138,1
6.603722,0.911,0.428,-0.414,41.503,-3.417,-67.932,1
6.611337,0.887,0.449,-0.399,43.945,-5.065,-68.969,1
6.619143,0.876,0.443,-0.403,46.63,-6.286,-70.007,1
6.628448,0.887,0.431,-0.4,47.546,-8.056,-71.289,1
6.637408,0.884,0.427,-0.389,46.691,-9.46,-72.265,1
6.647364,0.89,0.414,-0.376,46.325,-11.291,-72.998,1
6.653885,0.885,0.417,-0.361,46.325,-12.39,-73.974,1
6.662195,0.881,0.41,-0.359,45.776,-13.549,-74.401,1
6.669054,0.887,0.404,-0.344,44.86,-14.648,-75.439,1
6.678589,0.895,0.411,-0.34,45.898,-15.93,-76.171,1
6.687632,0.915,0.4,-0.328,47.302,-17.761,-77.392,1
6.694821,0.874,0.52,-0.366,56.03,-13.916,-76.66,1
6.703494,0.874,0.473,-0.396,60.913,-23.803,-79.528,1
6.711366,0.828,0.471,-0.322,72.143,-18.981,-79.589,1
6.719038,0.849,0.479,-0.416,76.232,-23.132,-80.749,1
6.727856,0.832,0.479,-0.376,77.453,-23.559,-83.19,1
6.735676,0.833,0.412,-0.36,70.19,-23.681,-84.716,1
6.744716,0.801,0.413,-0.347,55.175,-22.949,-86.181,1
6.753369,0.823,0.381,-0.344,31.738,-22.46,-84.716,1
6.762276,0.876,0.314,-0.316,14.282,-23.132,-84.96,1
6.772782,0.807,0.29,-0.261,-3.356,-21.362,-84.716,1
6.780581,0.782,0.19,-0.275,-28.32,-24.108,-85.815,1
6.789423,0.702,0.139,-0.113,-47.79,-20.446,-84.655,1
6.797195,0.756,0.18,-0.145,-54.138,-21.423,-84.106,1
6.804627,0.854,0.207,-0.09,-33.264,-22.338,-83.129,1
6.812509,1.015,0.288,-0.128,6.408,-24.047,-83.007,1
6.821796,1.124,0.294,-0.144,69.519,-30.944,-84.472,1
6.829608,1.031,0.217,-0.163,123.779,-32.653,-85.51,1
6.837507,0.974,0.151,-0.191,142.944,-32.47,-85.998,1
6.84501,0.926,0.087,-0.228,138.122,-29.602,-87.28,1
6.854311,0.886,0.036,-0.238,113.891,-26.855,-88.378,1
6.861465,0.862,0.017,-0.228,81.909,-21.301,-88.562,1
6.869854,0.847,0.03,-0.229,50.17,-17.15,-88.806,1
6.87642,0.803,0.056,-0.226,23.437,-12.573,-89.294,1
6.885841,0.747,0.095,-0.232,11.352,-10.803,-90.759,1
6.894756,0.684,0.142,-0.222,12.451,-9.033,-93.261,1
6.902715,0.686,0.157,-0.238,21.972,-8.85,-95.458,1
6.91202,0.701,0.149,-0.235,36.682,-8.544,-98.022,1
6.920431,0.754,0.148,-0.263,52.429,-9.277,-99.914,1
6.92777,0.773,0.134,-0.259,64.208,-10.62,-101.684,1
6.936478,0.748,0.118,-0.24,75.866,-10.925,-102.905,1
6.945425,0.735,0.133,-0.23,90.27,-11.352,-104.187,1
6.951423,0.739,0.106,-0.217,102.05,-12.023,-106.689,1
6.959489,0.733,0.083,-0.187,109.985,-10.009,-108.032,1
6.967656,0.734,0.068,-0.192,115.234,-9.094,-109.68,1
6.976208,0.741,0.062,-0.183,120.3,-7.873,-111.145,1
6.984537,0.732,0.065,-0.176,126.953,-6.713,-112.731,1
6.991114,0.687,0.053,-0.173,137.39,-6.347,-114.685,1
6.998579,0.613,0.054,-0.172,147.827,-4.15,-116.21,1
7.007461,0.537,0.057,-0.189,151.794,-3.356,-118.347,1
7.014497,0.449,0.049,-0.175,154.907,-1.708,-120.971,1
7.022935,0.354,0.034,-0.171,154.602,0.427,-124.023,1
7.030967,0.332,0.019,-0.154,154.418,3.906,-127.197,1
7.038436,0.34,-0.03,-0.142,149.108,7.446,-130.187,1
7.047639,0.242,-0.069,-0.155,135.009,12.023,-132.263,1
7.055217,0.103,-0.108,-0.114,114.074,15.014,-134.887,1
7.063857,0.11,-0.189,-0.099,93.017,21.484,-135.375,1
7.071171,0.162,-0.246,-0.07,59.997,28.015,-136.718,1
7.078914,0.172,-0.333,-0.075,22.827,35.156,-137.634,1
7.087889,0.168,-0.373,-0.058,-22.827,41.076,-138.366,1
7.096789,0.202,-0.463,-0.051,-69.885,49.011,-139.587,1
7.104569,0.229,-0.538,-0.035,-105.468,53.588,-140.319,1
7.11149,0.19,-0.591,-0.031,-122.741,57.556,-140.808,1
7.120201,0.233,-0.658,-0.038,-125.549,60.424,-140.991,1
7.127752,0.276,-0.742,-0.043,-110.351,62.499,-139.892,1
7.135374,0.264,-0.813,-0.051,-87.768,63.537,-137.695,1
7.144103,0.208,-0.886,-0.066,-62.011,63.842,-134.887,1
7.153437,0.168,-0.973,-0.067,-33.508,64.88,-130.92,1
7.160209,0.18,-1.104,-0.098,-4.455,67.26,-124.389,1
7.167885,0.202,-1.245,-0.134,1.159,70.678,-117.98,1
7.177107,0.226,-1.354,-0.148,-9.46,75.622,-111.083,1
7.186325,0.26,-1.441,-0.158,-33.63,83.312,-100.28,1
7.193071,0.247,-1.499,-0.184,-53.833,88.806,-91.735,1
7.200923,0.219,-1.527,-0.19,-67.077,94.116,-83.557,1
7.210615,0.162,-1.57,-0.193,-75.378,98.266,-73.913,1
7.218168,0.083,-1.605,-0.195,-77.392,102.478,-65.307,1
7.226802,0.026,-1.641,-0.193,-77.697,106.018,-54.809,1
7.235675,-0.037,-1.679,-0.172,-74.768,109.619,-45.593,1
7.244055,-0.076,-1.707,-0.157,-67.993,112.365,-34.362,1
7.251768,-0.165,-1.739,-0.139,-59.753,116.271,-22.766,1
7.260121,-0.272,-1.767,-0.122,-54.565,119.75,-10.742,1
7.267926,-0.363,-1.783,-0.103,-50.292,123.352,-0.61,1
7.276301,-0.479,-1.801,-0.072,-48.828,128.234,12.084,1
7.285602,-0.57,-1.815,-0.046,-50.964,133.056,23.437,1
7.292448,-0.685,-1.818,-0.028,-50.476,139.099,36.804,1
7.301623,-0.785,-1.808,-0.009,-45.104,143.676,48.522,1
7.308515,-0.857,-1.812,-0.002,-37.963,148.376,60.546,1
7.317775,-0.939,-1.793,0.029,-32.836,154.418,75.317,1
7.324406,-1.031,-1.785,0.028,-28.991,158.996,87.829,1
7.333484,-1.132,-1.77,0.059,-24.353,164.245,101.684,1
7.340431,-1.232,-1.744,0.048,-17.883,170.288,117.492,1
7.349289,-1.332,-1.749,0.059,-12.573,175.476,131.958,1
7.356757,-1.479,-1.752,0.049,-12.817,183.471,149.536,1
7.366065,-1.63,-1.729,0.063,-14.587,189.758,164.672,1
7.372442,-1.757,-1.687,0.066,-11.596,196.777,180.725,1
7.381463,-1.892,-1.647,0.074,-4.882,202.514,197.387,1
7.390711,-1.985,-1.66,0.063,-1.159,208.068,218.078,1
7.398055,-2.184,-1.542,0.046,10.314,217.468,239.44,1
7.405832,-2.334,-1.484,0.043,33.447,219.604,258.056,1
7.414921,-2.545,-1.439,-0.003,66.284,225.341,282.043,1
7.422689,-2.837,-1.397,-0.078,89.965,226.318,303.833,1
7.43165,-3.15,-1.357,-0.128,109.924,229.003,330.993,1
7.439232,-3.51,-1.33,-0.204,119.812,229.431,355.468,1
7.447133,-3.858,-1.285,-0.258,125.244,230.285,385.62,1
7.45549,-4.232,-1.244,-0.325,129.089,230.224,412.536,1
7.464037,-4.667,-1.202,-0.377,133.056,229.003,445.922,1
7.474121,-5.077,-1.177,-0.428,132.751,227.661,475.524,1
7.480243,-5.661,-1.159,-0.456,124.145,225.646,511.779,1
7.487828,-6.155,-1.108,-0.51,119.445,223.999,543.64,1
7.497443,-6.824,-1.027,-0.542,118.652,219.848,575.561,1
7.506197,-7.423,-0.931,-0.575,131.042,213.134,613.708,1
7.513955,-8.18,-0.785,-0.615,164.794,199.89,652.77,1
7.522436,-8.923,-0.596,-0.643,221.252,178.344,693.603,1
7.531517,-9.583,-0.487,-0.643,298.828,151.184,729.431,1
7.539052,-10.447,-0.392,-0.728,378.356,105.834,773.254,1
7.546023,-11.294,-0.264,-0.796,431.945,58.959,809.509,1
7.555304,-12.373,-0.049,-0.857,484.008,-9.46,848.388,1
7.562399,-13.446,0.154,-0.832,522.399,-73.791,877.441,1
7.573045,-14.385,0.34,-0.759,561.34,-157.104,905.212,1
7.580648,-15.442,0.531,-0.645,598.449,-246.704,924.377,1
7.589507,-15.999,0.696,-0.519,625.0,-338.439,933.044,1
7.597043,-15.999,0.858,-0.362,621.398,-419.128,932.678,1
7.604827,-15.999,1.084,-0.032,638.183,-509.277,922.302,1
7.612552,-15.999,1.242,0.179,660.095,-587.829,902.526,1
7.621353,-15.999,1.269,0.456,675.659,-665.588,872.558,1
7.62929,-15.999,1.371,0.916,675.659,-733.703,836.059,1
7.636179,-15.999,1.433,1.245,676.696,-812.194,786.01,1
7.645302,-15.999,1.536,1.665,672.851,-865.478,738.159,1
7.652592,-15.999,1.67,1.914,650.207,-918.395,676.513,1
7.660887,-15.999,1.74,2.056,609.741,-952.941,622.497,1
7.669522,-15.999,1.801,2.306,550.293,-976.074,572.204,1
7.676397,-15.999,2.153,2.554,525.756,-985.778,522.277,1
7.685307,-15.999,2.562,2.674,601.135,-990.356,448.669,1
7.691406,-15.999,2.679,2.492,704.101,-1000.122,366.638,1
7.701427,-15.999,2.536,2.44,797.912,-1005.798,270.141,1
7.709003,-15.999,2.29,2.273,852.6,-1006.652,148.376,1
7.716461,-15.999,2.149,2.416,875.976,-988.647,44.494,1
7.725316,-15.999,1.797,2.196,888.183,-950.378,-75.378,1
7.732681,-15.372,1.455,2.128,867.797,-907.165,-170.043,1
7.741523,-13.945,1.168,2.035,795.165,-845.214,-252.624,1
7.749339,-12.958,0.975,2.064,643.676,-766.906,-327.27,1
7.756613,-12.064,0.805,1.92,497.192,-696.472,-370.666,1
7.765593,-11.225,0.74,1.777,355.163,-637.268,-398.681,1
7.774507,-10.309,0.758,1.752,243.408,-578.979,-418.212,1
7.782102,-9.402,0.727,1.718,185.18,-537.902,-428.527,1
7.789948,-8.803,0.655,1.713,146.301,-497.314,-435.668,1
7.797417,-8.194,0.567,1.687,127.441,-466.552,-437.499,1
7.806792,-7.625,0.511,1.695,128.967,-434.814,-437.683,1
7.815825,-7.196,0.416,1.678,140.93,-403.32,-436.523,1
7.824089,-6.805,0.327,1.64,156.494,-376.159,-435.058,1
7.83175,-6.367,0.223,1.591,175.109,-343.383,-431.64,1
7.83901,-5.947,0.11,1.567,186.462,-316.955,-428.649,1
7.847068,-5.522,-0.005,1.563,195.678,-286.804,-424.072,1
7.85507,-5.04,-0.155,1.486,194.458,-253.54,-417.541,1
7.863136,-4.664,-0.273,1.452,180.786,-225.708,-409.667,1
7.872195,-4.355,-0.339,1.415,170.532,-199.279,-399.536,1
7.879571,-3.996,-0.395,1.375,163.269,-173.095,-387.329,1
7.888409,-3.654,-0.445,1.352,166.992,-147.155,-374.511,1
7.895557,-3.354,-0.479,1.302,172.668,-126.342,-363.83,1
7.904589,-3.062,-0.541,1.268,172.485,-106.079,-352.966,1
7.912126,-2.795,-0.605,1.228,166.442,-85.144,-341.308,1
7.919771,-2.52,-0.664,1.179,151.062,-62.255,-327.27,1
7.928231,-2.324,-0.69,1.131,132.629,-44.067,-315.429,1
7.937053,-2.159,-0.681,1.119,120.422,-25.512,-301.33,1
7.944426,-2.038,-0.7,1.098,117.858,-10.375,-288.208,1
7.953847,-1.895,-0.682,1.063,124.267,3.54,-274.292,1
7.962666,-1.79,-0.711,1.074,134.155,19.226,-259.643,1
7.971752,-1.69,-0.747,1.003,131.652,31.311,-246.826,1
7.979612,-1.604,-0.787,0.975,118.041,45.104,-232.116,1
7.987196,-1.415,-0.817,0.926,101.745,57.861,-217.468,1
7.995477,-1.29,-0.818,0.891,92.956,67.932,-203.002,1
8.004005,-1.151,-0.825,0.839,89.843,74.584,-191.406,1
8.010757,-1.065,-0.84,0.814,86.059,79.956,-178.71,1
8.019322,-0.982,-0.849,0.77,85.998,85.205,-165.954,1
8.027194,-0.923,-0.817,0.757,87.951,89.233,-151.733,1
8.034342,-0.781,-0.837,0.726,87.463,94.421,-140.563,1
8.043193,-0.683,-0.829,0.695,78.918,98.449,-129.394,1
8.051184,-0.582,-0.809,0.658,69.885,103.454,-118.041,1
8.05955,-0.481,-0.786,0.611,60.241,106.445,-105.102,1
8.06676,-0.354,-0.755,0.57,56.152,108.703,-93.933,1
8.075443,-0.236,-0.722,0.529,58.044,108.825,-81.359,1
8.084118,-0.115,-0.7,0.508,66.284,108.886,-70.434,1
8.091495,0.009,-0.668,0.471,78.186,107.849,-59.997,1
8.098394,0.09,-0.648,0.437,91.43,106.201,-49.011,1
8.105575,0.154,-0.59,0.416,105.957,103.942,-36.926,1
8.113001,0.195,-0.524,0.389,119.323,101.928,-28.808,1
8.121859,0.208,-0.483,0.372,134.46,98.815,-20.263,1
8.1294,0.237,-0.44,0.341,145.08,96.74,-12.268,1
8.137802,0.275,-0.43,0.305,147.46,94.543,-5.065,1
8.144549,0.356,-0.416,0.281,139.709,92.224,3.479,1
8.152651,0.42,-0.382,0.262,130.249,90.148,10.437,1
8.160997,0.484,-0.34,0.237,123.474,87.036,16.418,1
8.168446,0.588,-0.301,0.217,121.276,83.374,22.094,1
8.1753,0.655,-0.239,0.195,121.215,77.575,27.221,1
8.182596,0.697,-0.205,0.187,125.854,71.777,31.677,1
8.190265,0.727,-0.148,0.164,133.422,64.208,35.827,1
8.198132,0.74,-0.108,0.17,141.845,55.847,39.062,1
8.206947,0.825,-0.041,0.172,159.545,45.837,43.64,1
8.214976,0.808,0.007,0.165,179.077,35.217,46.874,1
8.222755,0.77,0.041,0.174,192.565,27.221,49.133,1
8.230782,0.844,0.05,0.19,197.326,20.874,49.438,1
8.238821,0.962,0.036,0.184,192.077,17.15,48.4,1
8.245644,1.069,0.025,0.168,174.926,15.686,46.936,1
8.25286,1.149,0.021,0.144,151.306,15.075,45.104,1
8.26209,1.191,0.024,0.126,127.197,14.282,43.457,1
8.270459,1.208,0.05,0.118,107.482,13.244,41.687,1
8.276796,1.231,0.083,0.121,100.952,10.864,40.222,1
8.284332,1.257,0.125,0.129,106.567,7.751,39.489,1
8.291282,1.284,0.161,0.134,119.14,4.211,39.062,1
8.300253,1.301,0.173,0.141,141.784,0.061,38.513,1
8.308928,1.325,0.156,0.127,163.269,-4.638,38.269,1
8.316866,1.305,0.178,0.134,176.33,-8.178,38.94,1
8.323175,1.266,0.194,0.129,184.509,-11.047,39.184,1
8.330841,1.202,0.215,0.14,188.537,-12.329,38.879,1
8.339173,1.152,0.227,0.14,188.11,-13.0,37.902,1
8.346231,1.1,0.229,0.133,184.448,-13.183,36.865,1
8.355179,1.083,0.227,0.124,177.001,-12.451,35.888,1
8.362325,1.078,0.228,0.123,172.119,-12.084,35.4,1
8.369662,1.103,0.23,0.123,170.104,-11.657,35.217,1
8.378728,1.089,0.237,0.125,171.02,-12.023,34.851,1
8.385096,1.073,0.234,0.116,174.926,-12.268,34.362,1
8.393365,1.064,0.223,0.114,179.016,-13.061,33.996,1
8.401502,1.08,0.189,0.111,182.128,-14.587,35.278,1
8.407959,1.049,0.206,0.12,186.828,-15.624,36.254,1
8.417467,1.03,0.195,0.122,193.847,-17.395,37.048,1
8.424825,1.005,0.205,0.128,206.237,-18.615,37.17,1
8.432214,0.978,0.182,0.119,215.942,-20.08,38.024,1
8.439761,0.933,0.158,0.125,224.121,-21.118,39.306,1
8.447496,0.919,0.153,0.116,231.14,-21.972,40.222,1
8.455483,0.922,0.151,0.124,237.609,-23.132,41.259,1
8.462594,0.927,0.134,0.127,244.567,-22.949,41.503,1
8.471465,0.946,0.148,0.121,253.845,-23.132,41.32,1
8.478819,0.942,0.125,0.108,270.629,-24.353,41.381,1
8.485988,0.929,0.099,0.097,281.433,-25.207,42.053,1
8.494641,0.842,0.088,0.083,285.339,-26.245,41.809,1
8.50246,0.817,0.063,0.081,282.959,-27.465,41.992,1
8.510048,0.774,0.04,0.068,274.108,-27.832,41.748,1
8.51731,0.771,0.024,0.063,264.099,-28.381,41.809,1
8.524574,0.775,0.013,0.067,251.586,-28.503,41.625,1
8.534149,0.768,0.0,0.051,238.708,-28.869,41.381,1
8.541791,0.791,-0.018,0.061,224.975,-29.052,41.32,1
8.54897,0.818,-0.037,0.061,211.303,-29.235,41.32,1
8.556458,0.858,-0.043,0.064,193.481,-28.442,41.931,1
8.565614,0.863,-0.053,0.072,178.039,-27.893,42.602,1
8.574756,0.857,-0.053,0.076,159.606,-26.367,43.09,1
8.583122,0.83,-0.047,0.085,145.141,-25.329,43.762,1
8.59042,0.796,-0.035,0.093,130.371,-23.071,43.701,1
8.5991,0.771,-0.016,0.092,119.934,-22.094,42.907,1
8.606562,0.752,-0.01,0.106,113.952,-20.69,41.32,1
8.613842,0.759,-0.009,0.109,109.008,-19.348,39.672,1
8.622865,0.797,-0.02,0.119,103.637,-17.15,37.78,1
8.630961,0.868,-0.041,0.109,93.261,-14.099,35.034,1
8.638394,0.979,-0.075,0.099,77.697,-10.803,33.386,1
8.647326,1.07,-0.122,0.091,54.321,-7.08,32.104,1
8.654694,1.077,-0.144,0.086,23.681,-2.868,32.836,1
8.663009,1.13,-0.141,0.084,-5.126,1.586,33.752,1
8.670143,1.147,-0.132,0.083,-25.512,5.249,34.118,1
8.678794,1.112,-0.114,0.082,-39.306,7.751,34.912,1
8.685451,1.096,-0.093,0.084,-45.471,9.765,35.217,1
8.695808,1.077,-0.075,0.08,-47.241,11.291,35.522,1
8.703203,1.029,-0.067,0.075,-45.043,12.573,35.156,1
8.711401,1.016,-0.073,0.073,-43.09,13.061,35.461,1
8.720326,1.02,-0.082,0.08,-42.48,14.77,36.56,1
8.72775,1.026,-0.069,0.075,-42.175,15.93,37.658,1
8.736675,1.017,-0.057,0.074,-41.198,16.418,38.146,1
8.744745,1.023,-0.048,0.081,-39.062,16.784,38.696,1
8.753379,1.044,-0.049,0.082,-36.071,17.15,38.94,1
8.759859,1.048,-0.047,0.084,-32.348,17.578,39.489,1
8.767604,1.025,-0.041,0.085,-28.625,18.188,39.672,1
8.776249,1.018,-0.04,0.083,-24.414,18.737,39.672,1
8.786835,1.004,-0.038,0.083,-19.226,19.104,39.367,1
8.793975,0.989,-0.05,0.075,-14.648,19.165,39.062,1
8.802197,0.992,-0.061,0.07,-11.718,19.897,39.306,1
8.81078,1.003,-0.075,0.063,-11.596,20.935,39.611,1
8.817999,1.042,-0.087,0.067,-13.916,22.46,39.794,1
8.826512,1.06,-0.093,0.052,-20.019,25.024,40.466,1
8.836122,1.068,-0.101,0.043,-28.625,27.16,40.771,1
8.84394,0.983,-0.098,0.037,-44.86,30.334,41.32,1
8.852731,0.964,-0.098,0.039,-56.457,33.325,42.358,1
8.861283,1.001,-0.1,0.011,-66.162,35.888,43.151,1
8.870511,1.011,-0.086,0.024,-73.73,37.414,43.395,1
8.877858,1.02,-0.084,-0.01,-77.331,39.123,43.395,1
8.884563,0.987,-0.079,0.026,-75.683,40.588,43.701,1
8.892969,0.851,-0.059,0.005,-70.251,41.442,43.579,1
8.900505,0.901,-0.064,0.026,-66.223,41.442,43.273,1
8.907643,1.02,-0.094,0.027,-61.584,43.579,43.395,1
8.916306,1.039,-0.104,0.023,-57.678,44.128,44.006,1
8.923604,1.034,-0.103,0.031,-51.696,45.593,44.86,1
8.931675,1.037,-0.125,0.041,-45.593,46.936,46.752,1
8.939564,1.036,-0.134,0.048,-35.766,49.194,50.476,1
8.947111,1.061,-0.129,0.037,-21.423,50.048,54.321,1
8.957306,1.079,-0.121,0.024,-6.53,49.255,57.312,1
8.964824,1.069,-0.107,0.017,12.634,46.752,60.241,1
8.97252,1.054,-0.097,0.017,29.907,44.86,62.561,1
8.980243,1.034,-0.086,0.015,46.874,42.419,64.758,1
8.98852,1.014,-0.079,0.007,65.49,39.611,67.321,1
8.997415,0.973,-0.062,0.0,78.674,37.353,69.58,1
9.004591,0.934,-0.054,-0.018,81.726,34.973,70.922,1
9.01332,0.878,-0.055,-0.036,75.866,34.118,71.777,1
9.020821,0.842,-0.064,-0.058,54.809,33.813,73.303,1
9.028834,0.81,-0.056,-0.06,27.587,35.522,74.768,1
9.036646,0.801,-0.038,-0.079,-5.249,37.536,75.805,1
9.044789,0.793,-0.009,-0.094,-44.189,40.71,76.599,1
9.053284,0.793,0.027,-0.105,-74.157,43.09,76.782,1
9.060126,0.787,0.079,-0.11,-95.031,45.288,76.538,1
9.069409,0.762,0.132,-0.113,-104.98,46.752,75.744,1
9.077033,0.748,0.187,-0.13,-104.614,47.79,74.462,1
9.085171,0.719,0.22,-0.162,-98.266,47.79,73.181,1
9.092357,0.701,0.237,-0.178,-87.341,46.691,72.143,1
9.100133,0.68,0.254,-0.201,-78.125,45.715,71.228,1
9.107316,0.641,0.269,-0.241,-73.425,44.799,70.251,1
9.116436,0.596,0.29,-0.27,-73.059,43.64,69.58,1
9.12387,0.548,0.318,-0.292,-73.608,42.419,68.542,1
9.131957,0.521,0.338,-0.311,-74.035,40.222,66.772,1
9.14004,0.505,0.338,-0.333,-75.805,39.428,65.429,1
9.147038,0.536,0.338,-0.337,-76.232,38.024,64.575,1
9.154928,0.524,0.339,-0.371,-79.101,36.987,63.72,1
9.163222,0.536,0.348,-0.384,-82.397,34.667,63.537,1
9.170911,0.561,0.36,-0.393,-79.101,32.775,63.842,1
9.179691,0.556,0.378,-0.413,-72.387,29.663,63.781,1
9.187408,0.528,0.375,-0.416,-63.537,26.245,64.147,1
9.197358,0.54,0.371,-0.419,-54.87,22.827,64.453,1
9.203696,0.573,0.355,-0.41,-44.738,19.287,65.429,1
9.213747,0.607,0.343,-0.409,-39.245,16.845,66.833,1
9.221201,0.632,0.339,-0.422,-37.78,14.16,68.298,1
9.227812,0.644,0.342,-0.411,-38.635,12.207,69.946,1
9.237036,0.643,0.352,-0.413,-39.245,10.192,71.533,1
9.244313,0.631,0.372,-0.407,-36.376,8.056,73.181,1
9.254732,0.633,0.39,-0.407,-29.357,5.859,74.768,1
9.263495,0.634,0.401,-0.419,-23.62,2.685,76.293,1
9.270102,0.65,0.433,-0.413,-16.845,0.244,77.575,1
9.278043,0.638,0.455,-0.397,-8.544,-2.075,78.674,1
9.28646,0.607,0.464,-0.412,-9.277,-3.845,79.223,1
9.295938,0.612,0.47,-0.395,-13.061,-4.943,79.528,1
9.304599,0.588,0.479,-0.388,-20.202,-4.516,79.284,1
9.311597,0.592,0.481,-0.383,-29.968,-4.333,78.918,1
9.320589,0.605,0.474,-0.378,-41.625,-3.295,79.284,1
9.329153,0.606,0.474,-0.372,-52.246,-2.807,79.589,1
9.337778,0.612,0.467,-0.368,-58.349,-2.319,80.871,1
9.346208,0.608,0.47,-0.38,-64.331,-2.014,82.092,1
9.353412,0.596,0.483,-0.37,-66.223,-2.136,83.984,1
9.362877,0.572,0.495,-0.371,-61.462,-2.746,85.388,1
9.370659,0.556,0.504,-0.354,-54.199,-3.784,86.73,1
9.379754,0.531,0.493,-0.343,-46.264,-4.577,87.402,1
9.387611,0.515,0.467,-0.33,-40.588,-5.004,88.562,1
9.396356,0.512,0.44,-0.322,-41.931,-4.699,89.965,1
9.404067,0.494,0.437,-0.333,-49.316,-3.662,91.552,1
9.41146,0.489,0.446,-0.332,-59.509,-3.234,93.322,1
9.419144,0.479,0.44,-0.337,-68.359,-1.586,95.214,1
9.428032,0.464,0.462,-0.314,-79.04,-0.427,98.266,1
9.435538,0.479,0.526,-0.269,-96.191,4.76,102.416,1
9.443156,0.542,0.459,-0.303,-96.862,1.098,102.05,1
9.45074,0.45,0.464,-0.179,-84.289,5.249,102.661,1
9.458549,0.453,0.485,-0.275,-65.368,8.239,101.928,1
9.468567,0.41,0.477,-0.234,-56.03,8.117,102.783,1
9.475297,0.442,0.437,-0.288,-62.744,12.512,105.834,1
9.484284,0.41,0.442,-0.304,-76.965,13.305,108.215,1
9.491077,0.365,0.458,-0.298,-88.012,17.944,111.45,1
9.500021,0.359,0.494,-0.328,-92.59,18.676,113.83,1
9.506351,0.344,0.518,-0.31,-84.594,20.751,116.821,1
9.514642,0.325,0.54,-0.337,-73.913,21.301,118.896,1
9.521616,0.292,0.552,-0.343,-59.143,19.897,121.337,1
9.52981,0.257,0.557,-0.347,-42.846,20.202,124.145,1
9.538398,0.221,0.568,-0.387,-35.705,19.531,125.488,1
9.54538,0.172,0.585,-0.391,-32.348,18.92,127.746,1
9.553684,0.115,0.605,-0.402,-32.226,19.47,129.455,1
9.560568,0.074,0.649,-0.424,-30.7,18.615,130.554,1
9.567494,0.138,0.671,-0.396,-15.136,16.418,131.225,1
9.574424,-0.009,0.685,-0.408,-3.295,16.723,131.896,1
9.582201,-0.046,0.728,-0.435,1.159,14.953,133.056,1
9.590938,-0.022,0.705,-0.427,5.798,13.488,133.605,1
9.598297,-0.05,0.709,-0.431,3.967,15.136,135.009,1
9.608098,-0.028,0.732,-0.46,-1.831,13.854,135.437,1
9.617079,-0.12,0.741,-0.452,-10.253,15.93,137.146,1
9.624962,-0.151,0.758,-0.482,-18.554,15.319,138.549,1
9.633615,-0.203,0.764,-0.452,-21.667,15.869,140.319,1
9.641179,-0.211,0.766,-0.477,-21.789,16.601,142.639,1
9.649268,-0.225,0.78,-0.465,-20.446,15.502,144.531,1
9.657012,-0.187,0.796,-0.46,-12.756,15.808,147.521,1
9.664655,-0.28,0.811,-0.478,-7.507,14.099,149.658,1
9.672445,-0.313,0.832,-0.46,-0.61,14.892,152.526,1
9.681548,-0.327,0.84,-0.49,1.037,13.977,153.991,1
9.689378,-0.444,0.856,-0.496,-2.258,13.977,155.761,1
9.696329,-0.467,0.863,-0.506,-4.516,13.366,156.982,1
9.704017,-0.512,0.859,-0.489,-3.662,12.207,158.203,1
9.712202,-0.506,0.846,-0.473,1.953,11.718,159.973,1
9.720541,-0.571,0.848,-0.484,11.291,9.765,161.621,1
9.727802,-0.592,0.854,-0.475,22.033,8.3,163.635,1
9.7351,-0.598,0.845,-0.506,28.015,6.347,165.954,1
9.743496,-0.621,0.847,-0.51,24.414,4.394,167.602,1
9.75123,-0.621,0.856,-0.485,19.958,3.417,169.86,1
9.759773,-0.594,0.855,-0.456,24.536,1.22,171.02,1
9.767983,-0.604,0.838,-0.397,37.719,-0.427,173.217,1
9.775543,-0.615,0.828,-0.378,54.931,-1.953,175.476,1
9.783167,-0.678,0.606,-0.411,50.903,-5.554,181.213,1
9.791604,-0.623,0.819,-0.374,24.414,2.075,183.593,1
9.798225,-0.735,0.896,-0.411,11.108,-4.821,182.678,1
9.807999,-0.95,0.844,-0.364,18.493,-0.183,183.532,1
9.814628,-0.96,0.888,-0.496,12.939,-2.136,183.044,1
9.823152,-0.935,0.888,-0.446,4.211,-3.234,182.922,1
9.830481,-0.902,0.892,-0.471,-3.601,-1.586,183.227,1
9.838534,-0.872,0.902,-0.445,-6.469,-4.15,182.434,1
9.847778,-0.844,0.899,-0.396,2.319,-3.723,182.434,1
9.85651,-0.82,0.888,-0.385,16.235,-6.591,181.945,1
9.864357,-0.861,0.895,-0.339,39.489,-7.751,181.945,1
9.873583,-0.882,0.901,-0.376,62.927,-10.437,181.152,1
9.880828,-0.921,0.883,-0.356,75.317,-13.183,180.908,1
9.89024,-0.978,0.882,-0.419,72.509,-13.305,180.847,1
9.898027,-0.982,0.892,-0.468,50.781,-15.075,180.114,1
9.905323,-1.04,0.916,-0.497,17.089,-14.587,179.748,1
9.914526,-1.017,0.829,-0.489,2.502,-17.089,180.48,1
9.922279,-1.304,0.804,-0.415,-48.4,-10.253,187.988,1
9.929932,-1.109,0.9,-0.48,-75.439,-14.099,186.096,1
9.938758,-1.185,0.88,-0.287,-58.166,-9.338,187.561,1
9.94589,-1.226,0.919,-0.33,-33.386,-8.178,188.903,1
9.954059,-1.261,0.931,-0.302,-2.258,-11.962,188.415,1
9.962574,-1.295,0.935,-0.284,35.034,-10.559,189.819,1
9.971188,-1.304,0.977,-0.392,72.265,-17.578,188.11,1
9.979475,-1.369,0.953,-0.358,97.045,-20.751,188.72,1
9.986202,-1.332,0.938,-0.448,111.145,-25.146,188.842,1
9.994727,-1.243,0.921,-0.433,118.103,-33.447,188.354,1
