timestamp_s,ax,ay,az,gx,gy,gz,label
0.006209,0.429,0.848,-0.309,0.61,4.882,0.61,1
0.012329,0.429,0.854,-0.316,1.22,4.638,0.732,1
0.020055,0.437,0.858,-0.326,2.624,4.516,0.976,1
0.028692,0.438,0.852,-0.324,4.638,3.967,1.22,1
0.035019,0.44,0.85,-0.33,5.615,3.906,0.976,1
0.042837,0.443,0.844,-0.332,4.516,3.173,1.159,1
0.050085,0.447,0.842,-0.33,2.197,3.417,1.525,1
0.059483,0.444,0.852,-0.322,0.549,2.929,1.77,1
0.067853,0.439,0.861,-0.315,-0.732,3.173,1.892,1
0.074412,0.434,0.868,-0.316,-1.647,2.929,2.075,1
0.083232,0.428,0.882,-0.321,-2.075,3.234,2.075,1
0.090114,0.422,0.893,-0.319,-1.647,3.112,1.892,1
0.098948,0.416,0.898,-0.322,-0.488,2.929,1.464,1
0.106929,0.409,0.906,-0.324,0.793,2.807,1.037,1
0.113671,0.411,0.906,-0.327,1.953,2.38,0.793,1
0.122396,0.412,0.905,-0.331,2.136,2.075,0.305,1
0.129022,0.404,0.905,-0.334,2.136,1.831,-0.305,1
0.137112,0.405,0.896,-0.333,1.586,1.647,-0.671,1
0.145871,0.409,0.888,-0.333,1.953,1.098,-0.915,1
0.154276,0.413,0.877,-0.333,1.464,0.854,-1.159,1
0.161258,0.412,0.874,-0.334,1.037,0.61,-1.342,1
0.169659,0.419,0.871,-0.331,1.098,-0.061,-1.22,1
0.176989,0.415,0.866,-0.327,2.136,-0.244,-1.098,1
0.186075,0.416,0.863,-0.328,2.868,-0.793,-1.098,1
0.193982,0.419,0.859,-0.326,3.356,-0.854,-1.22,1
0.20117,0.422,0.861,-0.315,4.455,-1.22,-1.159,1
0.210266,0.421,0.854,-0.313,5.126,-1.464,-0.915,1
0.218014,0.431,0.853,-0.307,4.272,-1.525,-0.976,1
0.226841,0.428,0.846,-0.294,2.502,-1.647,-0.61,1
0.234634,0.42,0.847,-0.292,1.037,-1.586,-0.488,1
0.241686,0.417,0.849,-0.283,-0.488,-1.281,-0.183,1
0.249294,0.413,0.859,-0.279,-1.342,-1.037,0.183,1
0.258222,0.406,0.866,-0.274,-1.464,-1.037,0.061,1
0.265172,0.399,0.88,-0.273,-0.793,-0.732,0.366,1
0.274568,0.404,0.884,-0.271,0.061,-0.488,0.183,1
0.281346,0.41,0.877,-0.272,0.732,-0.305,0.122,1
0.290283,0.404,0.873,-0.271,1.159,-0.183,0.0,1
0.297957,0.403,0.871,-0.269,1.159,-0.122,-0.122,1
0.305638,0.407,0.869,-0.265,1.098,0.122,0.061,1
0.313157,0.406,0.867,-0.267,1.22,0.122,0.061,1
0.322705,0.408,0.865,-0.263,1.281,0.244,0.0,1
0.329759,0.416,0.863,-0.262,0.793,0.488,0.061,1
0.337138,0.417,0.858,-0.251,0.61,0.732,0.122,1
0.344026,0.42,0.862,-0.252,0.305,0.793,0.183,1
0.353375,0.422,0.868,-0.254,0.732,0.915,0.061,1
0.360409,0.417,0.867,-0.249,1.953,0.854,0.122,1
0.36801,0.419,0.866,-0.247,3.051,1.159,-0.305,1
0.377226,0.42,0.863,-0.245,3.356,1.403,-0.122,1
0.384035,0.416,0.862,-0.241,3.601,1.586,-0.183,1
0.393198,0.413,0.866,-0.238,4.333,1.525,-0.244,1
0.401479,0.411,0.863,-0.232,5.126,1.77,0.061,1
0.409409,0.409,0.861,-0.235,4.699,2.197,0.061,1
0.416955,0.403,0.867,-0.232,3.784,2.502,0.183,1
0.42504,0.403,0.861,-0.237,2.502,2.929,0.427,1
0.432546,0.403,0.869,-0.236,2.075,3.295,0.244,1
0.439842,0.403,0.875,-0.242,1.77,3.723,0.427,1
0.44871,0.4,0.874,-0.249,1.831,3.845,0.305,1
0.455677,0.393,0.875,-0.253,1.525,4.211,0.671,1
0.464723,0.396,0.886,-0.248,1.342,4.272,0.549,1
0.472697,0.404,0.889,-0.245,1.77,4.577,0.488,1
0.48006,0.393,0.9,-0.244,3.906,4.638,0.366,1
0.486765,0.388,0.905,-0.25,5.554,4.821,0.122,1
0.49482,0.386,0.899,-0.258,5.676,4.699,-0.183,1
0.503415,0.396,0.883,-0.264,2.868,5.432,-0.061,1
0.510286,0.403,0.874,-0.277,-2.38,5.92,0.122,1
0.519499,0.403,0.804,-0.297,-20.019,8.666,1.22,1
0.526471,0.419,0.836,-0.284,-26.733,7.446,0.732,1
0.535404,0.422,0.892,-0.289,-8.3,7.507,0.61,1
0.542954,0.443,0.891,-0.297,6.652,5.249,0.0,1
0.550496,0.441,0.861,-0.311,12.512,5.31,0.061,1
0.558199,0.421,0.813,-0.327,4.577,5.065,0.366,1
0.565298,0.502,0.797,-0.323,-14.404,7.263,0.915,1
0.573096,0.396,0.858,-0.303,-12.39,6.713,1.281,1
0.581,0.449,0.867,-0.326,-0.366,5.187,1.342,1
0.588669,0.424,0.861,-0.321,9.277,4.455,1.403,1
0.596908,0.428,0.843,-0.347,9.277,4.15,1.281,1
0.603463,0.413,0.845,-0.346,4.638,4.394,1.403,1
0.611594,0.406,0.853,-0.35,0.244,4.211,1.647,1
0.618106,0.399,0.863,-0.352,-0.732,4.028,1.647,1
0.624925,0.397,0.868,-0.347,0.793,3.601,1.464,1
0.632047,0.389,0.874,-0.352,2.685,2.868,1.525,1
0.640328,0.384,0.866,-0.353,2.685,2.319,1.586,1
0.648052,0.378,0.865,-0.359,0.732,2.441,1.464,1
0.654542,0.377,0.861,-0.358,-2.014,2.136,1.586,1
0.663264,0.375,0.86,-0.357,-4.943,1.953,1.77,1
0.670318,0.379,0.859,-0.353,-6.53,1.525,1.77,1
0.678038,0.381,0.857,-0.352,-6.652,1.464,2.014,1
0.685482,0.381,0.863,-0.348,-5.798,0.854,2.258,1
0.69363,0.383,0.859,-0.348,-4.577,0.549,2.075,1
0.702427,0.392,0.856,-0.341,-4.15,0.305,2.319,1
0.708629,0.402,0.856,-0.337,-3.906,0.061,2.319,1
0.716754,0.411,0.854,-0.333,-3.112,-0.122,2.319,1
0.725332,0.412,0.853,-0.328,-1.708,-0.122,2.136,1
0.734929,0.421,0.843,-0.317,-0.671,-0.427,2.441,1
0.741759,0.421,0.838,-0.321,-0.976,-0.549,2.868,1
0.749043,0.422,0.84,-0.327,-1.77,-0.427,2.929,1
0.758359,0.412,0.847,-0.323,-2.746,-0.671,3.112,1
0.765581,0.404,0.849,-0.327,-2.685,-0.793,3.295,1
0.772398,0.4,0.85,-0.332,-3.417,-0.915,3.356,1
0.781303,0.402,0.855,-0.331,-4.455,-1.22,3.723,1
0.789416,0.397,0.864,-0.334,-5.615,-1.159,3.601,1
0.79664,0.394,0.862,-0.33,-5.432,-1.831,3.845,1
0.805355,0.392,0.874,-0.323,-4.516,-1.77,3.845,1
0.814278,0.392,0.884,-0.325,-3.417,-2.136,4.028,1
0.821554,0.389,0.889,-0.32,-1.22,-2.563,3.967,1
0.830585,0.388,0.894,-0.32,0.427,-2.563,3.662,1
0.837431,0.381,0.893,-0.316,1.22,-2.502,3.295,1
0.846148,0.375,0.897,-0.322,0.915,-2.563,3.173,1
0.853543,0.375,0.898,-0.325,0.244,-2.868,3.051,1
0.860585,0.379,0.895,-0.322,-0.244,-2.929,2.868,1
0.86876,0.377,0.899,-0.319,0.122,-3.173,2.563,1
0.87774,0.383,0.892,-0.316,-0.061,-3.112,2.075,1
0.885306,0.394,0.888,-0.31,-0.366,-3.479,1.77,1
0.892936,0.403,0.879,-0.3,-0.793,-3.417,1.586,1
0.901948,0.407,0.883,-0.295,-0.366,-3.417,1.586,1
0.908634,0.407,0.88,-0.293,0.0,-3.417,1.525,1
0.91614,0.411,0.878,-0.29,0.061,-3.234,1.586,1
0.924252,0.417,0.879,-0.283,0.305,-2.99,1.708,1
0.932972,0.412,0.878,-0.282,0.732,-2.807,1.525,1
0.940436,0.407,0.877,-0.289,1.098,-2.624,1.22,1
0.948998,0.408,0.878,-0.29,1.22,-2.685,1.159,1
0.956227,0.409,0.875,-0.29,0.976,-2.563,1.464,1
0.964387,0.407,0.875,-0.287,0.549,-2.502,1.525,1
0.971492,0.406,0.877,-0.287,0.0,-2.136,1.281,1
0.980809,0.401,0.877,-0.283,-0.183,-2.075,1.464,1
0.987773,0.39,0.882,-0.287,-1.159,-1.953,1.403,1
0.995913,0.397,0.891,-0.276,-1.342,-1.831,1.464,1
1.002811,0.391,0.901,-0.277,-0.183,-1.892,1.342,1
1.010042,0.39,0.898,-0.277,0.0,-1.708,1.403,1
1.017196,0.395,0.899,-0.274,0.0,-1.342,1.22,1
1.025659,0.387,0.904,-0.272,-0.427,-1.22,0.854,1
1.032689,0.387,0.903,-0.274,-0.61,-1.159,0.61,1
1.040936,0.387,0.904,-0.27,-0.671,-0.732,0.366,1
1.048954,0.394,0.905,-0.272,-0.732,-0.61,0.244,1
1.056145,0.393,0.895,-0.28,-0.427,-0.305,-0.122,1
1.064915,0.387,0.897,-0.288,-0.549,-0.244,-0.427,1
1.071153,0.392,0.888,-0.293,-0.61,-0.183,-0.305,1
1.079215,0.395,0.888,-0.292,-0.732,0.0,-0.61,1
1.087201,0.395,0.891,-0.292,-0.183,-0.366,-0.976,1
1.096992,0.4,0.885,-0.296,0.244,-0.305,-0.915,1
1.103653,0.402,0.883,-0.294,0.549,-0.488,-0.732,1
1.111239,0.405,0.882,-0.292,-0.366,-0.61,-1.037,1
1.121178,0.414,0.883,-0.288,-0.427,-0.488,-0.976,1
1.128191,0.413,0.889,-0.284,-0.122,-0.366,-0.732,1
1.137502,0.408,0.886,-0.283,0.549,-0.366,-0.976,1
1.144334,0.4,0.888,-0.284,1.22,-0.183,-1.22,1
1.152658,0.396,0.887,-0.286,1.464,-0.061,-1.342,1
1.160289,0.395,0.884,-0.288,0.915,0.488,-1.464,1
1.168921,0.39,0.883,-0.293,-0.244,0.427,-1.281,1
1.176669,0.39,0.889,-0.299,-1.037,0.488,-1.464,1
1.183943,0.394,0.888,-0.299,-1.77,0.427,-1.464,1
1.191357,0.397,0.89,-0.303,-1.464,0.61,-1.464,1
1.20017,0.396,0.886,-0.304,-0.732,0.122,-1.586,1
1.20729,0.4,0.882,-0.303,-0.305,0.244,-1.708,1
1.214998,0.403,0.882,-0.297,0.122,0.122,-1.892,1
1.223761,0.404,0.873,-0.299,0.244,0.366,-1.953,1
1.23088,0.403,0.869,-0.293,0.976,0.183,-2.136,1
1.238816,0.401,0.868,-0.293,1.159,0.549,-2.014,1
1.246913,0.406,0.86,-0.298,1.403,0.488,-2.014,1
1.255276,0.396,0.854,-0.297,1.708,0.488,-1.77,1
1.262953,0.399,0.854,-0.297,1.77,0.793,-1.708,1
1.271822,0.401,0.85,-0.301,1.525,0.549,-1.647,1
1.279578,0.404,0.848,-0.302,1.708,0.427,-1.403,1
1.287184,0.408,0.846,-0.299,1.77,0.549,-1.403,1
1.29445,0.412,0.846,-0.297,1.098,0.549,-1.098,1
1.302915,0.409,0.841,-0.294,0.915,0.488,-0.915,1
1.311483,0.406,0.843,-0.291,0.549,0.427,-0.671,1
1.318726,0.402,0.846,-0.291,0.183,0.61,-0.854,1
1.327012,0.4,0.848,-0.293,-0.366,0.671,-0.549,1
1.336188,0.395,0.853,-0.291,-0.61,0.915,-0.183,1
1.344595,0.387,0.853,-0.293,-0.122,0.915,-0.305,1
1.351664,0.393,0.853,-0.289,0.305,0.976,0.122,1
1.35917,0.39,0.854,-0.289,1.098,0.854,0.244,1
1.367883,0.385,0.858,-0.291,0.61,1.159,-0.122,1
1.374938,0.39,0.861,-0.295,0.976,1.22,0.427,1
1.384248,0.388,0.861,-0.297,1.586,1.22,0.427,1
1.391238,0.38,0.867,-0.302,1.647,1.098,0.671,1
1.40038,0.379,0.867,-0.306,1.586,1.281,0.366,1
1.406969,0.38,0.866,-0.31,0.61,1.403,0.61,1
1.415741,0.377,0.867,-0.317,0.0,1.22,0.549,1
1.422458,0.383,0.87,-0.32,-0.122,1.037,0.488,1
1.430788,0.394,0.869,-0.313,1.342,0.732,0.61,1
1.439481,0.399,0.863,-0.309,1.77,0.61,0.427,1
1.447566,0.406,0.861,-0.305,1.22,0.549,0.732,1
1.454438,0.406,0.857,-0.305,0.61,0.671,0.549,1
1.463156,0.409,0.859,-0.302,0.61,0.732,0.732,1
1.470739,0.406,0.864,-0.303,0.732,0.488,0.854,1
1.477563,0.404,0.87,-0.302,1.159,0.488,1.098,1
1.485032,0.403,0.869,-0.3,1.281,0.305,1.22,1
1.4938,0.405,0.877,-0.3,1.892,0.793,0.915,1
1.501367,0.397,0.877,-0.299,2.258,0.488,0.854,1
1.508613,0.395,0.88,-0.299,2.624,0.61,0.732,1
1.517086,0.397,0.885,-0.299,2.441,0.671,0.793,1
1.524861,0.399,0.886,-0.298,2.136,0.976,0.732,1
1.531978,0.396,0.887,-0.306,1.647,0.793,0.488,1
1.539561,0.392,0.889,-0.304,1.525,0.549,0.549,1
1.546948,0.392,0.896,-0.304,1.77,0.488,0.488,1
1.555842,0.396,0.897,-0.303,1.831,0.488,0.488,1
1.563027,0.394,0.901,-0.305,1.586,0.427,0.183,1
1.570488,0.394,0.902,-0.302,2.136,0.488,0.122,1
1.578362,0.387,0.905,-0.304,2.807,0.183,-0.305,1
1.587271,0.388,0.909,-0.303,3.845,-0.061,-0.366,1
1.594315,0.387,0.906,-0.301,3.967,0.122,-0.671,1
1.602516,0.394,0.896,-0.302,3.479,0.061,-1.037,1
1.610068,0.395,0.897,-0.297,2.685,0.0,-0.915,1
1.617036,0.402,0.895,-0.286,2.136,0.061,-1.281,1
1.624692,0.397,0.892,-0.283,2.014,0.244,-1.281,1
1.63294,0.399,0.888,-0.276,1.708,0.366,-1.586,1
1.641872,0.405,0.89,-0.27,1.464,0.61,-1.525,1
1.649384,0.398,0.885,-0.265,1.708,0.61,-1.403,1
1.656574,0.399,0.887,-0.263,2.136,0.915,-1.525,1
1.663997,0.395,0.887,-0.264,2.746,1.22,-1.708,1
1.673196,0.39,0.883,-0.267,2.868,1.464,-1.647,1
1.68011,0.391,0.88,-0.267,2.746,1.647,-1.831,1
1.687152,0.394,0.876,-0.268,2.441,1.708,-1.708,1
1.695568,0.393,0.878,-0.269,2.197,1.831,-1.831,1
1.702598,0.392,0.873,-0.264,1.831,2.075,-1.647,1
1.710178,0.396,0.87,-0.262,0.488,2.441,-1.831,1
1.719305,0.399,0.868,-0.259,-0.061,2.624,-1.586,1
1.72717,0.398,0.874,-0.258,-0.305,2.563,-1.464,1
1.734651,0.396,0.875,-0.261,-0.244,3.234,-1.647,1
1.742441,0.393,0.872,-0.259,0.549,3.173,-1.647,1
1.750529,0.386,0.875,-0.268,0.793,3.479,-1.586,1
1.759984,0.385,0.873,-0.27,0.61,3.723,-1.464,1
1.766243,0.387,0.872,-0.281,0.488,3.845,-1.708,1
1.775077,0.389,0.87,-0.284,-0.244,3.784,-1.831,1
1.783909,0.388,0.875,-0.284,-1.464,3.906,-1.892,1
1.792163,0.388,0.875,-0.29,-1.953,3.967,-1.831,1
1.800312,0.389,0.875,-0.291,-1.098,3.845,-1.647,1
1.807425,0.395,0.874,-0.291,0.0,3.906,-1.708,1
1.814998,0.392,0.875,-0.295,1.037,3.784,-1.892,1
1.823867,0.395,0.868,-0.298,1.403,3.601,-2.014,1
1.831151,0.399,0.86,-0.302,1.342,3.906,-1.892,1
1.838862,0.4,0.854,-0.303,1.22,3.723,-1.831,1
1.848433,0.4,0.86,-0.304,1.098,3.662,-1.77,1
1.855078,0.398,0.851,-0.309,0.0,3.784,-1.525,1
1.864323,0.398,0.854,-0.31,-1.403,3.723,-1.281,1
1.871484,0.4,0.856,-0.309,-1.037,3.784,-0.976,1
1.880607,0.4,0.857,-0.308,0.061,3.601,-1.037,1
1.888508,0.399,0.858,-0.314,0.366,3.356,-0.488,1
1.895775,0.396,0.86,-0.308,0.732,3.417,-0.488,1
1.903281,0.399,0.858,-0.312,0.854,3.356,-0.793,1
1.910932,0.4,0.855,-0.318,0.793,3.051,-0.671,1
1.918543,0.399,0.856,-0.318,0.305,3.234,-0.427,1
1.926349,0.394,0.856,-0.32,0.0,2.99,-0.61,1
1.935634,0.402,0.855,-0.325,-0.305,2.929,-0.427,1
1.942586,0.403,0.858,-0.317,0.061,2.319,-0.488,1
1.950002,0.399,0.863,-0.32,0.793,2.258,-0.244,1
1.959095,0.408,0.856,-0.312,1.281,2.014,-0.183,1
1.966968,0.403,0.858,-0.304,1.77,2.014,-0.183,1
1.974702,0.398,0.854,-0.301,2.075,1.892,0.122,1
1.981649,0.396,0.851,-0.295,2.502,1.77,0.0,1
1.990537,0.392,0.858,-0.286,3.723,1.77,0.183,1
1.998343,0.389,0.855,-0.279,6.042,1.647,0.244,1
2.004753,0.385,0.85,-0.27,7.446,1.647,0.244,1
2.012319,0.387,0.844,-0.259,7.019,1.953,0.488,1
2.020588,0.392,0.836,-0.245,6.713,2.807,0.915,1
2.027414,0.395,0.827,-0.229,7.507,2.929,1.647,1
2.035547,0.391,0.82,-0.217,8.911,3.356,1.892,1
2.043335,0.395,0.813,-0.198,9.155,3.967,2.563,1
2.052327,0.403,0.806,-0.178,9.582,5.493,3.601,1
2.060259,0.399,0.807,-0.165,11.23,6.164,4.211,1
2.067617,0.383,0.781,-0.162,9.033,7.568,5.554,1
2.077213,0.368,0.729,-0.175,-3.173,10.07,7.324,1
2.084222,0.373,0.656,-0.194,-42.785,16.601,11.291,1
2.093238,0.354,0.676,-0.178,-59.936,17.944,12.329,1
2.10034,0.259,0.74,-0.169,-43.518,17.883,12.939,1
2.109158,0.318,0.751,-0.2,-14.953,16.784,13.732,1
2.116459,0.338,0.729,-0.234,-4.455,17.089,14.587,1
2.125181,0.315,0.73,-0.271,-4.76,16.601,15.38,1
2.132236,0.322,0.75,-0.282,-6.408,17.333,16.174,1
2.141034,0.298,0.749,-0.303,-8.544,17.028,16.662,1
2.148492,0.29,0.768,-0.307,-7.202,17.15,17.395,1
2.156332,0.29,0.788,-0.341,-2.624,16.357,17.517,1
2.163884,0.284,0.802,-0.365,0.427,15.869,17.7,1
2.173033,0.271,0.815,-0.396,0.854,15.136,17.578,1
2.180051,0.265,0.84,-0.427,-1.708,14.892,17.578,1
2.189248,0.263,0.856,-0.461,-4.455,14.282,17.028,1
2.196488,0.261,0.876,-0.475,-3.295,12.939,16.784,1
2.203796,0.278,0.893,-0.504,1.098,11.84,16.174,1
2.212149,0.302,0.905,-0.54,6.103,10.314,15.441,1
2.219902,0.299,0.917,-0.574,11.657,8.789,14.953,1
2.228361,0.301,0.922,-0.606,14.587,7.263,14.404,1
2.235536,0.314,0.928,-0.642,14.282,6.774,14.282,1
2.244175,0.322,0.934,-0.707,11.596,5.981,13.732,1
2.252276,0.311,0.942,-0.78,8.85,4.333,13.061,1
2.259174,0.297,0.947,-0.848,5.432,3.051,12.695,1
2.266731,0.305,0.958,-0.942,-1.037,1.953,12.695,1
2.275475,0.283,0.973,-1.064,-11.413,-0.244,12.512,1
2.283515,0.257,0.991,-1.179,-26.062,-2.258,12.207,1
2.290882,0.238,1.014,-1.314,-39.916,-4.882,11.596,1
2.300358,0.237,1.062,-1.486,-47.302,-8.789,10.925,1
2.307246,0.257,1.093,-1.666,-43.945,-15.258,9.887,1
2.315755,0.183,1.125,-1.94,-34.301,-22.521,8.789,1
2.323446,0.131,1.132,-2.19,-27.282,-32.836,7.629,1
2.33129,0.068,1.118,-2.485,-28.625,-43.457,6.896,1
2.339048,0.022,1.087,-2.748,-33.63,-56.274,6.958,1
2.347233,-0.033,1.05,-3.032,-40.466,-73.242,7.507,1
2.356145,-0.058,1.018,-3.23,-46.386,-89.233,8.361,1
2.364739,-0.093,0.996,-3.474,-49.621,-110.9,9.704,1
2.37264,-0.23,0.969,-3.614,-50.231,-131.774,11.352,1
2.3806,-0.315,0.951,-3.704,-50.598,-156.066,12.939,1
2.38892,-0.445,0.943,-3.74,-47.119,-179.382,13.977,1
2.395984,-0.556,0.924,-3.713,-42.053,-202.209,15.197,1
2.406939,-0.689,0.897,-3.635,-38.574,-229.614,16.174,1
2.414449,-0.857,0.861,-3.468,-36.193,-255.126,17.333,1
2.4218,-1.002,0.845,-3.298,-35.461,-276.184,18.493,1
2.430603,-1.216,0.819,-3.037,-34.362,-298.461,19.775,1
2.439572,-1.39,0.822,-2.81,-37.902,-315.124,21.484,1
2.448058,-1.609,0.845,-2.537,-47.119,-332.214,24.047,1
2.454985,-1.884,0.901,-2.259,-60.546,-347.961,28.259,1
2.464015,-2.118,1.004,-1.898,-73.974,-359.802,32.714,1
2.473076,-2.232,1.121,-1.573,-82.031,-370.361,38.085,1
2.479987,-2.393,1.277,-1.15,-68.42,-382.202,41.809,1
2.490229,-2.489,1.366,-0.732,-41.625,-390.014,43.029,1
2.497018,-2.561,1.423,-0.235,-13.916,-394.47,42.114,1
2.506958,-2.622,1.481,0.194,-5.493,-395.996,38.94,1
2.513748,-2.65,1.556,0.609,-8.911,-393.615,35.217,1
2.523685,-2.642,1.683,1.069,-6.225,-388.488,29.663,1
2.530274,-2.591,1.822,1.549,7.202,-382.751,22.888,1
2.538748,-2.511,1.947,1.973,38.513,-372.68,11.535,1
2.546484,-2.394,2.034,2.372,70.129,-361.206,-0.976,1
2.5534,-2.16,2.037,2.737,93.749,-345.947,-15.38,1
2.561675,-1.889,1.974,3.023,100.585,-326.843,-30.761,1
2.569971,-1.517,1.859,3.289,93.811,-306.823,-45.104,1
2.578736,-1.233,1.727,3.441,83.007,-281.372,-59.265,1
2.585312,-1.09,1.596,3.439,75.317,-259.094,-68.847,1
2.593747,-0.937,1.471,3.322,65.856,-239.135,-76.477,1
2.602257,-0.801,1.394,3.292,76.538,-217.346,-84.045,1
2.610018,-0.607,1.206,3.19,101.257,-192.565,-90.209,1
2.618765,-0.418,0.993,3.029,102.783,-173.034,-93.811,1
2.627613,-0.222,0.793,2.916,85.205,-151.489,-95.031,1
2.634507,-0.043,0.607,2.715,56.518,-127.563,-93.688,1
2.641504,0.056,0.493,2.562,35.4,-109.436,-90.393,1
2.649126,0.177,0.383,2.403,20.812,-92.163,-85.876,1
2.658185,0.276,0.291,2.208,11.047,-77.392,-80.749,1
2.665151,0.36,0.222,2.027,4.821,-64.575,-75.195,1
2.672841,0.446,0.176,1.869,3.234,-53.1,-69.274,1
2.68164,0.486,0.146,1.732,1.037,-41.992,-63.171,1
2.68878,0.522,0.119,1.638,1.586,-33.081,-58.105,1
2.697507,0.542,0.099,1.552,2.197,-24.475,-53.161,1
2.70504,0.535,0.072,1.44,-2.624,-15.136,-47.363,1
2.713512,0.525,0.076,1.363,-9.765,-6.896,-42.297,1
2.721784,0.532,0.096,1.239,-17.395,1.403,-36.926,1
2.728644,0.522,0.126,1.157,-22.216,7.263,-32.714,1
2.736786,0.507,0.152,1.07,-26.123,13.183,-28.991,1
2.744569,0.493,0.185,0.977,-30.151,17.761,-25.39,1
2.753203,0.497,0.212,0.901,-34.057,22.888,-22.338,1
2.761498,0.479,0.254,0.809,-37.841,25.573,-19.897,1
2.768755,0.469,0.298,0.769,-35.888,29.235,-17.456,1
2.777319,0.455,0.328,0.72,-28.625,30.883,-15.747,1
2.785197,0.437,0.345,0.673,-19.104,32.592,-13.793,1
2.793329,0.418,0.35,0.623,-14.953,34.362,-11.901,1
2.80156,0.408,0.357,0.572,-15.563,36.01,-9.765,1
2.808325,0.426,0.382,0.487,-17.944,39.123,-7.385,1
2.816292,0.427,0.408,0.409,-22.521,39.611,-5.126,1
2.824677,0.444,0.438,0.374,-27.038,40.649,-3.112,1
2.831557,0.47,0.465,0.327,-31.127,41.625,-1.77,1
2.841014,0.47,0.498,0.295,-34.057,42.114,-0.183,1
2.849451,0.482,0.528,0.244,-35.766,42.114,1.586,1
2.856783,0.496,0.556,0.208,-36.071,41.87,2.685,1
2.865102,0.53,0.592,0.171,-32.409,40.771,3.601,1
2.872114,0.54,0.612,0.146,-26.916,39.184,4.394,1
2.881141,0.53,0.622,0.133,-21.301,37.536,5.065,1
2.888195,0.536,0.625,0.121,-16.601,35.888,5.615,1
2.896585,0.54,0.638,0.092,-13.854,34.24,6.286,1
2.90332,0.54,0.648,0.072,-13.61,32.348,6.958,1
2.91264,0.561,0.662,0.046,-13.916,30.944,7.507,1
2.918872,0.585,0.678,0.028,-13.549,28.625,7.995,1
2.92786,0.594,0.699,0.01,-11.352,26.367,8.361,1
2.934659,0.603,0.71,0.004,-9.155,24.169,8.483,1
2.944209,0.617,0.722,-0.009,-6.713,22.033,8.666,1
2.951189,0.613,0.73,-0.009,-3.54,19.775,8.483,1
2.958678,0.627,0.728,-0.002,0.671,17.456,8.666,1
2.967642,0.631,0.731,0.007,3.784,15.38,8.728,1
2.974764,0.622,0.732,0.012,5.249,13.793,9.216,1
2.98302,0.633,0.733,0.014,4.15,12.39,9.521,1
2.990094,0.648,0.737,0.015,2.685,10.986,9.765,1
2.997977,0.658,0.742,0.021,2.197,9.521,10.192,1
3.005898,0.657,0.75,0.025,3.173,7.934,9.826,1
3.013305,0.658,0.757,0.037,5.126,6.408,10.253,1
3.021128,0.66,0.764,0.044,6.774,4.882,10.009,1
3.028046,0.652,0.769,0.049,7.629,3.845,9.643,1
3.035702,0.654,0.771,0.062,7.08,2.441,9.704,1
3.043246,0.656,0.782,0.079,6.164,2.441,9.399,1
3.050197,0.661,0.792,0.088,6.835,1.77,8.972,1
3.058938,0.659,0.794,0.111,10.07,0.854,8.422,1
3.066118,0.652,0.787,0.131,13.244,0.427,8.239,1
3.072515,0.639,0.779,0.142,14.282,0.305,8.056,1
3.080241,0.638,0.771,0.149,11.291,0.122,8.361,1
3.088958,0.65,0.776,0.157,7.08,-0.122,8.361,1
3.09577,0.65,0.776,0.169,4.577,0.183,8.422,1
3.102537,0.645,0.782,0.173,2.563,0.0,8.239,1
3.11114,0.642,0.793,0.18,3.173,0.0,8.117,1
3.11807,0.64,0.798,0.183,4.882,-0.366,7.934,1
3.126106,0.64,0.808,0.192,6.835,-0.244,7.69,1
3.133494,0.638,0.809,0.197,9.094,-0.244,7.446,1
3.142426,0.642,0.818,0.205,11.657,-0.305,6.958,1
3.149076,0.645,0.818,0.218,13.793,0.0,6.347,1
3.156893,0.636,0.815,0.222,14.77,0.61,6.347,1
3.164205,0.631,0.812,0.226,14.038,0.488,6.225,1
3.172141,0.625,0.801,0.231,11.23,1.22,5.798,1
3.17989,0.631,0.805,0.237,8.605,1.953,5.981,1
3.187904,0.622,0.805,0.244,7.019,2.319,5.92,1
3.195014,0.61,0.808,0.243,5.981,2.868,5.92,1
3.202289,0.599,0.806,0.226,3.417,3.295,5.859,1
3.209086,0.599,0.81,0.225,-0.061,3.723,5.615,1
3.216458,0.604,0.815,0.213,-2.929,3.967,5.737,1
3.224885,0.604,0.817,0.2,-4.943,4.272,5.371,1
3.231773,0.609,0.826,0.184,-6.042,3.967,5.004,1
3.239625,0.607,0.839,0.183,-5.31,3.54,4.821,1
3.248046,0.61,0.849,0.182,-3.356,3.479,4.272,1
3.254641,0.614,0.851,0.183,-1.159,3.173,3.784,1
3.263451,0.609,0.856,0.181,1.403,2.685,3.173,1
3.270689,0.612,0.851,0.188,4.455,2.38,2.441,1
3.278388,0.61,0.842,0.191,6.591,2.014,1.953,1
3.286444,0.595,0.833,0.184,6.225,1.831,1.831,1
3.294142,0.586,0.826,0.18,3.54,2.075,1.586,1
3.300704,0.597,0.829,0.171,-0.305,1.953,1.342,1
3.308236,0.6,0.833,0.16,-2.563,1.708,1.037,1
3.315791,0.601,0.833,0.152,-3.051,1.159,0.671,1
3.324682,0.607,0.831,0.144,-4.455,0.854,0.61,1
3.332425,0.609,0.834,0.141,-5.92,0.305,0.122,1
3.340389,0.619,0.831,0.146,-5.004,-0.244,-0.366,1
3.348018,0.624,0.827,0.145,-2.319,-1.159,-0.427,1
3.3567,0.619,0.828,0.149,0.854,-1.708,-0.732,1
3.363553,0.616,0.822,0.159,4.15,-2.502,-1.342,1
3.371088,0.62,0.815,0.169,5.615,-2.868,-1.525,1
3.380424,0.612,0.806,0.172,6.53,-2.685,-1.708,1
3.387523,0.604,0.801,0.172,6.408,-2.685,-1.892,1
3.396613,0.612,0.792,0.171,5.615,-2.868,-2.197,1
3.404694,0.617,0.781,0.174,4.333,-3.112,-2.197,1
3.412118,0.622,0.774,0.181,2.319,-3.173,-2.319,1
3.420137,0.614,0.767,0.176,0.732,-3.234,-2.258,1
3.427339,0.611,0.766,0.18,-1.647,-3.479,-2.014,1
3.436285,0.617,0.766,0.188,-2.868,-3.417,-1.708,1
3.44456,0.615,0.764,0.192,-2.868,-3.54,-1.525,1
3.452042,0.614,0.768,0.205,-2.258,-3.845,-1.342,1
3.459829,0.616,0.764,0.204,-0.549,-3.967,-1.098,1
3.468491,0.611,0.765,0.21,1.464,-3.967,-1.159,1
3.475034,0.607,0.76,0.219,2.319,-3.906,-0.854,1
3.48496,0.608,0.754,0.217,2.258,-3.723,-0.915,1
3.493335,0.607,0.748,0.219,1.647,-3.54,-0.427,1
3.501632,0.611,0.748,0.225,1.342,-3.417,-0.122,1
3.508638,0.615,0.748,0.227,1.953,-2.99,0.427,1
3.517333,0.605,0.75,0.238,2.136,-3.295,0.549,1
3.524747,0.599,0.75,0.244,1.77,-3.112,1.159,1
3.532107,0.6,0.748,0.245,0.427,-2.99,1.342,1
3.539365,0.598,0.75,0.248,-1.037,-2.441,1.892,1
3.547049,0.595,0.754,0.246,-1.831,-2.014,2.136,1
3.555059,0.597,0.762,0.243,-2.075,-1.953,2.197,1
3.563743,0.598,0.762,0.247,-1.953,-1.892,2.197,1
3.570897,0.596,0.771,0.251,-1.22,-1.647,2.441,1
3.578102,0.594,0.778,0.251,0.244,-1.586,2.38,1
3.58592,0.594,0.781,0.256,2.014,-1.098,2.319,1
3.593596,0.592,0.784,0.26,3.295,-1.159,2.014,1
3.60121,0.584,0.779,0.26,4.272,-0.671,2.258,1
3.609195,0.587,0.777,0.258,3.723,-0.427,2.197,1
3.616788,0.593,0.772,0.262,3.54,-0.366,2.075,1
3.625704,0.59,0.772,0.256,2.624,0.0,2.075,1
3.633386,0.585,0.772,0.258,2.38,0.061,2.075,1
3.640121,0.587,0.768,0.265,1.831,0.61,2.136,1
3.647705,0.588,0.77,0.269,1.525,0.732,2.502,1
3.656324,0.586,0.767,0.257,0.366,1.098,2.807,1
3.664722,0.575,0.772,0.249,-1.586,1.22,2.502,1
3.671777,0.587,0.78,0.253,-3.112,1.831,2.685,1
3.679505,0.594,0.787,0.242,-3.234,2.014,2.746,1
3.688567,0.596,0.787,0.246,-2.624,2.136,2.685,1
3.69572,0.6,0.791,0.24,-1.342,2.258,2.746,1
3.703401,0.597,0.789,0.244,0.061,2.197,2.868,1
3.710698,0.598,0.788,0.248,0.793,2.441,2.868,1
3.718296,0.6,0.786,0.25,0.976,2.624,3.112,1
3.725904,0.6,0.787,0.252,0.854,2.99,3.479,1
3.735196,0.6,0.786,0.25,0.183,3.234,3.112,1
3.742595,0.604,0.791,0.247,0.061,3.723,3.112,1
3.750652,0.604,0.789,0.233,0.061,3.845,3.173,1
3.757416,0.604,0.79,0.219,0.244,3.967,3.112,1
3.765634,0.609,0.791,0.212,0.732,3.845,3.173,1
3.773827,0.613,0.791,0.2,0.976,3.662,3.295,1
3.780735,0.613,0.79,0.189,1.159,3.845,3.173,1
3.788071,0.609,0.795,0.185,0.915,3.662,3.051,1
3.795771,0.608,0.796,0.181,1.159,3.54,3.234,1
3.804175,0.609,0.8,0.181,1.525,3.479,2.929,1
3.811345,0.605,0.796,0.179,1.281,3.173,2.807,1
3.820235,0.603,0.798,0.181,0.915,3.112,2.685,1
3.827398,0.603,0.796,0.18,-0.061,2.99,2.746,1
3.835914,0.594,0.792,0.176,-1.77,2.929,2.807,1
3.842984,0.594,0.795,0.179,-3.479,2.807,2.563,1
3.852168,0.597,0.798,0.171,-4.516,2.746,2.441,1
3.859404,0.598,0.801,0.167,-4.211,2.441,2.258,1
3.86756,0.604,0.804,0.163,-2.258,2.014,2.197,1
3.8753,0.596,0.806,0.163,-0.61,1.342,2.075,1
3.88323,0.603,0.801,0.166,0.244,1.098,1.892,1
3.889935,0.6,0.806,0.165,0.915,0.61,1.647,1
3.897433,0.604,0.8,0.166,0.366,0.61,1.647,1
3.904854,0.605,0.804,0.163,0.488,0.244,1.586,1
3.912488,0.601,0.801,0.165,0.366,0.061,1.586,1
3.920241,0.604,0.802,0.166,0.732,-0.366,1.525,1
3.928499,0.602,0.804,0.175,1.098,-0.61,1.647,1
3.937275,0.591,0.804,0.179,0.854,-0.732,1.586,1
3.943603,0.593,0.805,0.187,0.549,-1.159,1.403,1
3.952745,0.591,0.807,0.2,0.732,-1.281,1.586,1
3.959752,0.589,0.811,0.212,1.586,-1.22,1.22,1
3.968799,0.59,0.813,0.227,2.502,-1.403,0.732,1
3.97572,0.589,0.808,0.232,2.807,-1.159,0.732,1
3.983377,0.587,0.808,0.239,3.051,-1.159,0.793,1
3.991597,0.594,0.807,0.245,3.784,-0.793,0.488,1
3.998722,0.596,0.803,0.247,4.272,-0.854,0.488,1
4.007285,0.599,0.805,0.242,4.516,-0.549,0.366,1
4.013945,0.6,0.803,0.238,4.211,-0.122,0.244,1
4.02266,0.598,0.802,0.235,3.784,0.366,0.366,1
4.029963,0.595,0.802,0.237,3.662,0.0,0.61,1
4.036847,0.588,0.806,0.24,4.272,0.061,0.305,1
4.044255,0.583,0.807,0.246,6.53,0.183,0.366,1
4.052043,0.581,0.807,0.257,9.216,0.183,0.244,1
4.060533,0.579,0.804,0.27,11.413,0.305,0.122,1
4.067508,0.579,0.798,0.285,13.183,0.427,0.122,1
4.07648,0.574,0.801,0.299,15.075,0.793,0.0,1
4.082758,0.569,0.802,0.329,18.31,0.976,0.183,1
4.090567,0.58,0.798,0.359,23.193,0.732,0.122,1
4.098581,0.586,0.796,0.397,29.602,1.77,-0.061,1
4.105566,0.588,0.787,0.409,34.973,3.601,0.244,1
4.112623,0.572,0.774,0.386,34.179,4.882,0.305,1
4.120444,0.554,0.768,0.375,28.808,6.347,0.61,1
4.129174,0.564,0.764,0.364,18.066,8.422,1.159,1
4.136368,0.572,0.765,0.354,9.582,10.131,1.281,1
4.144513,0.578,0.773,0.344,3.967,11.169,1.525,1
4.150889,0.591,0.78,0.336,1.77,11.962,1.77,1
4.158194,0.583,0.787,0.318,1.037,12.329,1.831,1
4.166386,0.573,0.796,0.305,1.77,12.573,1.77,1
4.174041,0.573,0.805,0.305,5.615,12.512,1.586,1
4.180957,0.575,0.804,0.302,10.62,12.39,1.403,1
4.188641,0.576,0.798,0.309,15.441,12.268,0.793,1
4.197482,0.58,0.791,0.317,20.141,12.268,0.732,1
4.204373,0.575,0.781,0.33,25.024,12.451,0.671,1
4.211887,0.578,0.777,0.356,30.334,12.39,0.488,1
4.220715,0.584,0.77,0.391,38.757,12.939,0.305,1
4.227493,0.574,0.764,0.391,47.302,14.831,0.671,1
4.234599,0.551,0.755,0.367,50.598,15.075,1.037,1
4.242152,0.54,0.749,0.362,49.499,16.723,1.708,1
4.249692,0.543,0.735,0.338,42.846,17.883,2.38,1
4.257281,0.545,0.73,0.328,34.79,18.92,2.929,1
4.266775,0.555,0.736,0.324,30.09,19.592,3.417,1
4.272868,0.557,0.748,0.332,30.578,19.592,3.845,1
4.280995,0.553,0.754,0.332,34.667,19.714,4.211,1
4.287514,0.543,0.745,0.327,39.184,19.042,4.638,1
4.296625,0.536,0.742,0.331,41.625,19.348,4.76,1
4.303185,0.542,0.732,0.331,41.259,19.592,5.371,1
4.310482,0.549,0.722,0.339,38.513,20.019,5.615,1
4.318051,0.565,0.706,0.329,34.362,21.423,6.103,1
4.326308,0.563,0.691,0.309,27.404,22.155,6.408,1
4.334176,0.56,0.69,0.295,19.775,23.193,7.202,1
4.341564,0.572,0.7,0.268,12.939,23.986,7.873,1
4.349482,0.584,0.708,0.246,8.483,24.108,8.666,1
4.356705,0.594,0.722,0.228,6.225,23.742,8.972,1
4.365171,0.591,0.735,0.206,7.202,23.498,9.521,1
4.372481,0.593,0.746,0.192,9.277,22.583,9.46,1
4.379762,0.584,0.751,0.185,12.39,21.545,9.704,1
4.38727,0.595,0.747,0.156,12.878,21.118,9.765,1
4.394995,0.594,0.746,0.136,8.056,20.019,9.887,1
4.403826,0.603,0.747,0.118,2.441,19.836,9.948,1
4.410631,0.605,0.751,0.099,-2.563,18.798,10.131,1
4.417875,0.604,0.765,0.092,-4.76,17.761,10.009,1
4.425505,0.604,0.77,0.077,-4.333,16.296,9.948,1
4.433926,0.604,0.779,0.074,-2.624,14.587,9.582,1
4.441307,0.606,0.785,0.076,0.0,13.244,9.582,1
4.448665,0.606,0.783,0.085,2.807,11.657,9.46,1
4.456047,0.606,0.786,0.099,5.981,10.559,9.094,1
4.464609,0.601,0.793,0.11,9.216,9.094,8.666,1
4.471527,0.606,0.788,0.128,11.352,8.544,8.666,1
4.480346,0.604,0.787,0.131,9.887,7.69,8.605,1
4.488684,0.608,0.783,0.152,7.019,7.324,8.3,1
4.495459,0.608,0.78,0.163,5.371,6.652,7.934,1
4.502967,0.609,0.781,0.176,3.906,6.835,8.3,1
4.510571,0.61,0.768,0.173,1.342,6.408,8.117,1
4.518217,0.609,0.774,0.182,-1.342,5.92,8.056,1
4.527047,0.615,0.771,0.19,-2.258,5.798,8.056,1
4.534715,0.622,0.769,0.209,-2.197,5.187,8.178,1
4.542931,0.625,0.761,0.232,-0.549,4.882,8.239,1
4.550071,0.625,0.749,0.259,0.793,4.516,7.629,1
4.558362,0.629,0.738,0.289,2.502,5.065,8.239,1
4.566354,0.623,0.724,0.299,3.112,4.943,8.483,1
4.573285,0.603,0.716,0.318,2.075,5.676,8.728,1
4.582131,0.589,0.71,0.337,1.037,6.652,9.643,1
4.589572,0.579,0.708,0.362,1.708,6.774,10.131,1
4.596537,0.579,0.709,0.387,4.76,7.873,10.681,1
4.60528,0.572,0.711,0.386,7.202,9.033,11.413,1
4.61248,0.55,0.722,0.379,6.286,10.192,12.329,1
4.620614,0.546,0.736,0.368,2.685,11.291,13.0,1
4.62753,0.553,0.743,0.355,-1.037,12.451,13.549,1
4.636036,0.546,0.754,0.347,-3.234,13.122,13.977,1
4.64267,0.554,0.768,0.335,-2.99,13.427,14.16,1
4.651196,0.551,0.769,0.33,-0.854,14.16,14.404,1
4.658144,0.536,0.769,0.318,-0.183,14.465,14.526,1
4.666614,0.525,0.768,0.302,-2.014,15.014,14.648,1
4.673878,0.512,0.781,0.271,-6.225,15.93,14.709,1
4.680888,0.498,0.803,0.243,-10.742,16.296,14.526,1
4.688374,0.506,0.827,0.222,-11.718,16.357,14.404,1
4.695997,0.505,0.843,0.193,-10.742,15.93,14.16,1
4.704937,0.521,0.86,0.171,-8.117,15.014,13.549,1
4.711593,0.539,0.869,0.148,-3.356,13.916,12.939,1
4.719242,0.549,0.875,0.138,1.77,12.451,12.023,1
4.726927,0.549,0.878,0.116,4.272,11.352,11.779,1
4.73526,0.544,0.878,0.104,3.417,10.192,10.986,1
4.742295,0.55,0.886,0.098,1.586,9.338,10.314,1
4.75054,0.565,0.894,0.088,0.0,8.483,9.887,1
4.757237,0.569,0.902,0.08,-0.61,7.08,9.094,1
4.765308,0.577,0.91,0.083,0.488,6.164,8.178,1
4.772151,0.584,0.912,0.086,1.586,4.699,7.507,1
4.780102,0.592,0.899,0.097,2.502,3.723,6.713,1
4.788559,0.607,0.888,0.114,3.723,2.685,6.225,1
4.795385,0.612,0.879,0.141,5.615,1.953,5.676,1
4.802679,0.608,0.875,0.15,7.568,1.586,5.187,1
4.810586,0.609,0.867,0.155,7.751,1.281,5.004,1
4.817981,0.6,0.864,0.156,6.042,0.793,5.126,1
4.826416,0.604,0.865,0.161,3.601,0.732,4.882,1
4.833547,0.604,0.87,0.161,1.831,0.671,4.882,1
4.840819,0.603,0.873,0.167,0.732,0.244,5.004,1
4.849673,0.603,0.878,0.163,-0.488,0.183,4.638,1
4.857035,0.6,0.878,0.164,-1.586,-0.122,4.333,1
4.864939,0.609,0.878,0.168,-1.464,-0.488,3.967,1
4.872831,0.609,0.873,0.173,-1.586,-0.793,3.662,1
4.880749,0.598,0.875,0.185,-1.77,-0.915,3.112,1
4.888958,0.588,0.875,0.193,-2.38,-0.976,2.624,1
4.897659,0.582,0.873,0.196,-3.54,-0.61,2.258,1
4.905697,0.566,0.874,0.2,-4.15,-0.793,1.647,1
4.912453,0.569,0.871,0.197,-3.356,-1.22,1.159,1
4.919995,0.559,0.869,0.202,-2.624,-1.22,0.793,1
4.929551,0.56,0.867,0.204,-2.685,-1.22,0.488,1
4.936838,0.56,0.862,0.213,-2.319,-1.281,0.122,1
4.943881,0.562,0.861,0.209,-2.075,-1.281,0.061,1
4.953283,0.561,0.859,0.219,-2.807,-1.464,-0.488,1
4.960637,0.559,0.861,0.219,-3.356,-1.281,-0.549,1
4.968324,0.562,0.851,0.216,-4.882,-1.464,-0.488,1
4.977233,0.56,0.853,0.219,-5.737,-1.403,-0.61,1
4.985275,0.557,0.854,0.209,-6.408,-1.464,-0.671,1
4.993563,0.556,0.857,0.21,-5.981,-1.77,-1.037,1
5.000832,0.557,0.86,0.209,-4.089,-2.136,-1.403,1
5.009723,0.553,0.861,0.213,-1.586,-2.38,-1.708,1
5.017474,0.554,0.855,0.222,0.061,-2.746,-2.014,1
5.024089,0.545,0.851,0.224,1.159,-2.685,-2.075,1
5.032521,0.546,0.848,0.223,0.61,-2.685,-2.502,1
5.041124,0.547,0.846,0.222,0.793,-2.746,-2.685,1
5.048901,0.546,0.838,0.22,0.244,-2.746,-2.563,1
5.055936,0.549,0.835,0.223,-0.305,-2.868,-2.868,1
5.065361,0.548,0.832,0.224,-1.22,-2.563,-2.746,1
5.07348,0.548,0.826,0.216,-2.746,-2.563,-3.112,1
5.080237,0.553,0.82,0.211,-4.028,-2.502,-2.868,1
5.08946,0.561,0.821,0.21,-4.394,-2.502,-2.807,1
5.09716,0.564,0.818,0.206,-4.028,-2.685,-3.051,1
5.104648,0.565,0.816,0.209,-2.685,-3.051,-3.051,1
5.113445,0.559,0.818,0.21,-1.281,-3.234,-3.295,1
5.12116,0.561,0.817,0.217,0.183,-3.601,-3.173,1
5.129224,0.56,0.812,0.221,1.403,-3.662,-3.112,1
5.137506,0.56,0.809,0.219,1.647,-3.54,-3.356,1
5.14439,0.561,0.8,0.221,0.793,-3.54,-3.051,1
5.152156,0.562,0.791,0.21,0.183,-3.417,-2.868,1
5.161058,0.566,0.789,0.204,-0.976,-3.479,-2.746,1
5.167925,0.562,0.791,0.197,-2.136,-3.479,-2.563,1
5.176567,0.562,0.791,0.189,-3.356,-3.417,-2.197,1
5.185279,0.562,0.791,0.178,-4.028,-3.845,-1.953,1
5.193244,0.568,0.793,0.17,-4.028,-4.211,-1.77,1
5.200217,0.575,0.789,0.163,-4.211,-4.577,-1.708,1
5.208539,0.575,0.788,0.163,-2.99,-5.371,-1.708,1
5.21719,0.571,0.788,0.167,-1.403,-5.981,-1.525,1
5.224357,0.569,0.787,0.171,0.183,-6.53,-1.403,1
5.233574,0.559,0.782,0.165,0.793,-6.896,-1.464,1
5.242325,0.553,0.781,0.161,0.305,-7.568,-1.22,1
5.249903,0.548,0.782,0.154,0.61,-8.056,-1.037,1
5.257407,0.556,0.777,0.152,1.098,-8.361,-0.793,1
5.264983,0.553,0.781,0.15,1.708,-9.338,-0.427,1
5.273948,0.559,0.786,0.149,1.708,-9.582,-0.305,1
5.281947,0.562,0.786,0.153,1.831,-10.253,-0.183,1
5.28988,0.561,0.786,0.147,2.319,-10.742,-0.061,1
5.297884,0.552,0.791,0.148,3.234,-11.474,-0.122,1
5.305833,0.555,0.782,0.155,4.577,-12.329,0.061,1
5.313949,0.559,0.781,0.165,5.615,-13.0,-0.122,1
5.31994,0.554,0.773,0.166,6.408,-13.427,0.244,1
5.327627,0.548,0.769,0.169,6.835,-14.282,0.488,1
5.336143,0.542,0.77,0.175,7.812,-14.831,0.61,1
5.342483,0.554,0.764,0.175,9.094,-15.258,0.854,1
5.349607,0.55,0.758,0.174,10.742,-15.808,1.037,1
5.35866,0.549,0.749,0.171,12.573,-16.418,1.22,1
5.365265,0.543,0.744,0.167,13.305,-17.272,1.464,1
5.372843,0.542,0.731,0.171,13.0,-17.639,1.953,1
5.380576,0.544,0.72,0.17,11.657,-18.31,2.38,1
5.388913,0.54,0.713,0.179,10.437,-18.798,3.051,1
5.396544,0.53,0.716,0.187,8.483,-19.226,3.723,1
5.403917,0.537,0.721,0.215,7.873,-19.958,4.211,1
5.412689,0.55,0.722,0.238,9.338,-20.019,5.065,1
5.419366,0.54,0.72,0.243,11.23,-20.446,5.432,1
5.4275,0.528,0.726,0.26,12.39,-21.179,6.225,1
5.435807,0.541,0.726,0.291,13.488,-21.423,6.286,1
5.4428,0.541,0.727,0.317,15.686,-21.545,6.958,1
5.452199,0.527,0.72,0.336,18.554,-22.033,7.446,1
5.45927,0.521,0.716,0.363,19.409,-22.094,7.629,1
5.466832,0.522,0.716,0.39,20.263,-22.155,8.056,1
5.474373,0.53,0.704,0.434,23.376,-22.277,8.605,1
5.483182,0.526,0.673,0.473,26.672,-22.644,8.972,1
5.490366,0.513,0.654,0.506,27.832,-22.033,9.704,1
5.497354,0.509,0.65,0.564,26.611,-21.545,11.352,1
5.504899,0.51,0.662,0.653,30.029,-21.484,12.634,1
5.513265,0.506,0.665,0.764,40.222,-21.118,13.793,1
5.520948,0.491,0.654,0.901,53.405,-20.446,14.77,1
5.529256,0.474,0.641,1.058,63.964,-19.042,15.808,1
5.536342,0.445,0.64,1.249,71.777,-17.395,16.662,1
5.544436,0.395,0.646,1.499,80.261,-14.099,17.333,1
5.55162,0.335,0.62,1.738,89.294,-7.812,17.944,1
5.559987,0.272,0.611,2.037,94.909,-2.563,18.615,1
5.567409,0.169,0.603,2.411,101.623,5.493,18.798,1
5.57526,0.071,0.581,2.844,110.534,15.869,19.287,1
5.58431,-0.008,0.55,3.314,121.887,28.625,19.47,1
5.590968,-0.189,0.502,3.783,134.216,45.715,21.24,1
5.600231,-0.403,0.412,4.27,142.883,64.636,23.498,1
5.607491,-0.51,0.333,4.706,149.475,90.087,27.832,1
5.614596,-0.653,0.211,5.06,156.921,117.126,34.118,1
5.623631,-0.903,0.079,5.354,159.118,144.836,43.151,1
5.630899,-1.009,0.01,5.571,159.851,179.931,56.274,1
5.638977,-1.236,-0.059,5.691,155.517,213.256,69.946,1
5.647996,-1.531,-0.091,5.688,146.972,246.643,84.472,1
5.655002,-1.841,-0.057,5.603,131.958,279.785,99.609,1
5.662189,-2.151,0.036,5.468,113.952,313.232,113.769,1
5.668964,-2.513,0.218,5.257,106.018,345.153,126.22,1
5.677333,-2.938,0.459,4.936,108.154,374.023,137.878,1
5.68473,-3.345,0.685,4.59,110.839,405.761,149.475,1
5.693729,-3.739,0.945,4.189,107.788,430.664,157.836,1
5.700681,-4.134,1.242,3.775,106.14,452.697,164.123,1
5.709656,-4.545,1.621,3.258,109.313,472.473,168.945,1
5.716596,-4.838,1.949,2.761,115.417,493.225,172.302,1
5.723895,-5.063,2.274,2.225,117.553,507.873,172.363,1
5.733005,-5.284,2.551,1.668,114.929,519.592,169.494,1
5.740129,-5.456,2.745,1.093,97.473,530.456,163.33,1
5.747229,-5.491,2.889,0.515,57.189,538.818,153.564,1
5.756022,-5.457,3.022,-0.036,17.578,545.898,140.014,1
5.76402,-5.391,3.142,-0.73,-10.62,547.729,122.924,1
5.771175,-5.344,3.195,-1.361,-52.795,545.41,99.914,1
5.779249,-5.324,3.291,-1.886,-90.332,536.926,76.66,1
5.787799,-5.095,3.393,-2.317,-81.42,524.047,52.185,1
5.796559,-4.673,3.325,-2.698,-26.245,500.366,27.648,1
5.803558,-4.379,3.238,-3.038,3.112,476.135,9.704,1
5.812276,-3.895,3.031,-3.356,-6.408,457.519,-8.422,1
5.820798,-3.522,2.877,-3.737,-12.451,423.278,-26.55,1
5.827979,-3.088,2.692,-3.937,1.464,397.521,-39.062,1
5.836427,-2.719,2.476,-4.163,15.563,365.173,-49.499,1
5.845233,-2.314,2.242,-4.306,26.184,335.937,-57.983,1
5.853814,-1.947,2.03,-4.403,26.977,301.635,-66.223,1
5.860734,-1.519,1.78,-4.397,21.85,269.836,-73.12,1
5.870124,-1.193,1.57,-4.368,16.235,243.652,-77.819,1
5.876881,-0.914,1.344,-4.315,7.629,212.707,-82.031,1
5.886024,-0.72,1.194,-4.2,15.502,188.232,-84.594,1
5.893399,-0.559,1.032,-4.157,28.991,163.085,-86.364,1
5.902987,-0.423,0.83,-4.017,36.071,133.972,-86.425,1
5.910144,-0.269,0.657,-3.873,35.522,113.159,-84.289,1
5.917655,-0.12,0.493,-3.686,30.273,89.904,-80.322,1
5.927005,-0.047,0.395,-3.48,26.977,72.204,-76.232,1
5.934535,0.055,0.314,-3.209,21.728,52.551,-71.472,1
5.942644,0.159,0.27,-2.965,20.019,38.818,-67.504,1
5.950512,0.239,0.249,-2.81,17.211,25.939,-63.171,1
5.957687,0.217,0.234,-2.651,9.887,9.216,-58.776,1
5.966323,0.175,0.219,-2.494,0.915,-3.295,-54.748,1
5.974085,0.166,0.215,-2.31,-10.253,-15.624,-50.354,1
5.983492,0.148,0.227,-2.115,-22.583,-28.564,-45.104,1
5.990574,0.127,0.25,-1.912,-29.724,-38.33,-40.771,1
5.998973,0.129,0.275,-1.662,-33.081,-47.973,-36.071,1
6.008187,0.139,0.292,-1.449,-30.395,-55.114,-32.531,1
6.014938,0.17,0.303,-1.209,-18.432,-62.133,-28.137,1
6.02308,0.183,0.324,-1.009,0.244,-66.772,-24.475,1
6.030669,0.212,0.354,-0.854,26.184,-70.495,-20.507,1
6.039817,0.228,0.352,-0.712,49.438,-74.584,-17.578,1
6.047413,0.246,0.332,-0.596,63.903,-76.293,-13.671,1
6.05641,0.301,0.333,-0.496,60.302,-76.293,-9.643,1
6.064264,0.269,0.352,-0.413,47.302,-74.951,-6.286,1
6.071611,0.291,0.382,-0.326,32.897,-73.242,-3.173,1
6.079295,0.322,0.405,-0.252,16.601,-70.739,0.305,1
6.087259,0.362,0.428,-0.203,0.549,-67.26,3.295,1
6.095983,0.366,0.469,-0.17,-16.113,-64.697,6.164,1
6.103278,0.392,0.54,-0.129,-26.184,-61.767,9.094,1
6.112739,0.397,0.594,-0.11,-24.169,-60.302,10.742,1
6.119793,0.399,0.633,-0.078,-14.038,-59.448,11.474,1
6.127149,0.427,0.644,-0.055,3.417,-58.837,12.756,1
6.136416,0.448,0.639,-0.037,16.418,-57.8,13.854,1
6.14284,0.444,0.626,-0.047,20.874,-56.579,14.831,1
6.151739,0.441,0.627,-0.051,19.836,-54.748,15.563,1
6.159299,0.447,0.635,-0.056,14.77,-53.039,16.357,1
6.16704,0.446,0.652,-0.048,8.728,-50.598,17.211,1
6.173643,0.467,0.673,-0.037,3.784,-48.583,18.066,1
6.182776,0.501,0.698,-0.025,0.427,-46.752,18.859,1
6.191451,0.52,0.719,-0.02,-0.61,-45.043,19.042,1
6.199133,0.538,0.738,-0.015,1.037,-44.006,18.92,1
6.205804,0.543,0.741,-0.007,2.441,-42.48,18.859,1
6.214949,0.546,0.736,-0.013,0.732,-41.015,18.737,1
6.22185,0.552,0.743,-0.01,-3.662,-39.367,18.859,1
6.23093,0.548,0.755,-0.018,-9.521,-36.865,18.859,1
6.239468,0.535,0.773,-0.034,-12.451,-34.79,18.92,1
6.2464,0.534,0.795,-0.071,-12.39,-33.386,19.042,1
6.255487,0.531,0.809,-0.104,-10.681,-32.47,18.981,1
6.262821,0.543,0.826,-0.138,-8.483,-32.592,18.981,1
6.269661,0.549,0.843,-0.145,-5.493,-33.264,18.859,1
6.278089,0.571,0.854,-0.13,-2.136,-33.874,18.432,1
6.286489,0.588,0.86,-0.098,0.732,-33.813,18.066,1
6.294937,0.596,0.866,-0.08,1.831,-33.02,17.883,1
6.301595,0.602,0.876,-0.067,0.061,-31.494,17.578,1
6.309435,0.595,0.884,-0.075,-4.15,-29.785,16.784,1
6.317478,0.583,0.895,-0.081,-7.202,-28.625,16.113,1
6.324777,0.586,0.911,-0.083,-7.873,-27.587,15.38,1
6.33397,0.574,0.919,-0.097,-7.019,-26.733,14.465,1
6.341412,0.561,0.927,-0.12,-6.225,-26.428,13.793,1
6.348953,0.553,0.931,-0.141,-7.873,-26.0,12.817,1
6.35736,0.553,0.93,-0.152,-11.047,-25.695,11.718,1
6.36397,0.563,0.928,-0.166,-12.512,-25.634,11.23,1
6.372192,0.566,0.926,-0.161,-11.352,-26.367,10.314,1
6.380324,0.572,0.931,-0.136,-8.056,-26.794,9.521,1
6.387765,0.584,0.932,-0.111,-4.699,-27.221,8.85,1
6.396058,0.592,0.925,-0.086,-2.685,-26.916,8.117,1
6.405367,0.584,0.928,-0.066,-1.831,-26.428,7.751,1
6.412564,0.582,0.923,-0.031,0.061,-25.695,7.08,1
6.421165,0.595,0.916,-0.023,1.342,-24.475,6.53,1
6.428415,0.582,0.912,-0.023,-0.488,-23.254,5.92,1
6.435266,0.584,0.912,-0.029,-2.746,-21.606,5.004,1
6.444153,0.582,0.91,-0.039,-5.126,-20.507,4.333,1
6.451513,0.589,0.911,-0.05,-5.615,-19.287,3.356,1
6.458958,0.6,0.9,-0.062,-4.028,-18.92,2.563,1
6.466699,0.6,0.885,-0.065,-3.54,-18.615,1.464,1
6.475787,0.601,0.867,-0.052,-3.723,-18.371,0.732,1
6.482622,0.613,0.851,-0.031,-4.943,-17.333,0.244,1
6.491937,0.616,0.843,-0.019,-6.591,-16.174,0.122,1
6.49892,0.614,0.839,-0.018,-9.338,-15.136,-0.183,1
6.507434,0.612,0.84,-0.012,-11.169,-13.366,-0.671,1
6.516051,0.605,0.847,-0.025,-11.901,-12.084,-0.671,1
6.523969,0.597,0.844,-0.041,-12.817,-11.23,-1.159,1
6.531474,0.593,0.848,-0.054,-13.916,-10.314,-1.342,1
6.539953,0.577,0.849,-0.069,-13.977,-9.826,-1.525,1
6.549154,0.574,0.847,-0.076,-12.512,-9.826,-1.892,1
6.556546,0.569,0.841,-0.074,-9.521,-9.704,-2.136,1
6.565075,0.574,0.835,-0.077,-5.31,-9.887,-2.075,1
6.572449,0.572,0.816,-0.076,-2.807,-9.826,-1.831,1
6.580181,0.566,0.803,-0.076,-1.037,-10.131,-1.403,1
6.58886,0.568,0.791,-0.076,0.061,-9.46,-1.22,1
6.596423,0.574,0.789,-0.075,0.427,-8.972,-0.549,1
6.603657,0.572,0.795,-0.082,0.732,-8.666,0.488,1
6.612066,0.568,0.802,-0.095,2.807,-8.239,1.037,1
6.619621,0.562,0.809,-0.104,5.676,-7.751,1.464,1
6.628548,0.564,0.81,-0.12,7.69,-7.385,2.014,1
6.636059,0.564,0.8,-0.132,8.544,-7.08,2.136,1
6.643852,0.573,0.797,-0.142,8.3,-6.713,2.136,1
6.652228,0.578,0.788,-0.147,7.69,-6.591,2.197,1
6.65885,0.582,0.781,-0.146,6.225,-6.408,2.258,1
6.667622,0.583,0.771,-0.152,3.54,-5.92,2.197,1
6.67584,0.571,0.77,-0.149,-1.708,-5.737,2.441,1
6.68383,0.579,0.782,-0.135,-4.394,-5.187,2.563,1
6.692078,0.58,0.79,-0.135,-4.272,-4.577,2.258,1
6.700484,0.573,0.793,-0.144,-4.76,-4.333,2.38,1
6.707651,0.554,0.807,-0.152,-4.577,-4.577,2.502,1
6.716286,0.536,0.817,-0.152,-3.845,-4.577,2.258,1
6.725632,0.544,0.817,-0.154,-2.136,-4.76,2.38,1
6.732493,0.544,0.814,-0.154,-0.122,-5.126,2.502,1
6.741971,0.558,0.801,-0.156,2.441,-5.737,2.685,1
6.74958,0.563,0.794,-0.155,3.356,-6.286,2.99,1
6.756158,0.571,0.795,-0.158,2.563,-6.53,3.601,1
6.763764,0.572,0.799,-0.15,0.183,-6.896,4.028,1
6.7731,0.568,0.803,-0.146,-2.868,-6.652,4.333,1
6.779876,0.569,0.815,-0.141,-5.187,-6.652,4.272,1
6.788559,0.57,0.822,-0.135,-4.943,-6.652,4.272,1
6.796251,0.57,0.823,-0.122,-2.807,-7.08,4.089,1
6.805065,0.574,0.821,-0.117,-2.197,-6.652,4.272,1
6.812475,0.577,0.818,-0.107,-2.624,-5.859,4.211,1
6.819947,0.585,0.813,-0.105,-4.394,-5.065,3.845,1
6.828532,0.59,0.819,-0.109,-5.92,-4.272,3.723,1
6.835924,0.594,0.821,-0.113,-6.164,-3.601,3.356,1
6.844047,0.595,0.821,-0.127,-4.638,-3.723,3.173,1
6.851536,0.592,0.821,-0.125,-1.098,-3.906,2.807,1
6.859837,0.587,0.812,-0.123,1.892,-3.784,2.685,1
6.867994,0.584,0.81,-0.121,2.99,-3.601,2.563,1
6.875276,0.576,0.8,-0.123,3.112,-3.173,2.685,1
6.884312,0.567,0.804,-0.125,1.22,-2.99,2.624,1
6.891678,0.563,0.809,-0.12,0.061,-2.746,2.685,1
6.900869,0.563,0.813,-0.113,0.183,-2.685,2.868,1
6.907195,0.571,0.815,-0.111,0.183,-2.197,3.051,1
6.916178,0.569,0.819,-0.107,-1.159,-1.953,3.234,1
6.924782,0.561,0.823,-0.11,-2.807,-1.464,3.234,1
6.932668,0.553,0.834,-0.119,-3.601,-1.098,3.295,1
6.939667,0.552,0.836,-0.12,-3.112,-1.22,3.173,1
6.948938,0.547,0.837,-0.126,-1.953,-1.159,3.051,1
6.95752,0.531,0.84,-0.127,-0.793,-1.403,3.417,1
6.964781,0.529,0.843,-0.125,0.366,-1.464,3.479,1
6.973625,0.529,0.837,-0.126,2.014,-1.037,3.54,1
6.980861,0.541,0.836,-0.122,2.807,-1.037,3.356,1
6.989585,0.544,0.833,-0.126,1.953,-0.61,3.601,1
6.997405,0.548,0.825,-0.128,-0.793,-0.366,3.662,1
7.004886,0.549,0.825,-0.127,-3.051,0.122,3.601,1
7.013749,0.551,0.828,-0.133,-3.417,0.183,3.662,1
7.020705,0.554,0.826,-0.13,-2.746,0.305,3.601,1
7.029724,0.551,0.834,-0.139,-2.502,-0.061,3.906,1
7.037862,0.545,0.832,-0.142,-2.258,-0.122,3.845,1
7.044645,0.548,0.831,-0.142,-2.319,-0.061,4.028,1
7.052885,0.546,0.829,-0.135,-1.708,0.0,3.845,1
7.061963,0.548,0.827,-0.138,-0.793,-0.061,3.906,1
7.069156,0.547,0.829,-0.139,0.305,-0.183,3.906,1
7.077694,0.55,0.818,-0.138,0.854,-0.061,4.15,1
7.085642,0.562,0.818,-0.134,0.854,0.061,4.211,1
7.093594,0.568,0.818,-0.136,1.098,0.183,4.394,1
7.101344,0.571,0.818,-0.132,0.854,0.061,4.272,1
7.10938,0.578,0.815,-0.134,-0.366,0.427,4.028,1
7.11588,0.575,0.822,-0.137,-1.831,0.915,4.028,1
7.125227,0.572,0.818,-0.144,-3.417,1.281,3.967,1
7.131296,0.569,0.825,-0.154,-5.004,1.525,3.723,1
7.139517,0.561,0.827,-0.16,-5.981,1.525,3.662,1
7.148314,0.559,0.843,-0.17,-5.31,1.525,3.479,1
7.155934,0.549,0.842,-0.181,-2.868,1.22,3.295,1
7.164341,0.548,0.845,-0.186,-1.098,1.098,3.051,1
7.171131,0.546,0.846,-0.187,0.305,0.671,3.173,1
7.178132,0.556,0.85,-0.186,0.976,0.61,3.051,1
7.186986,0.556,0.852,-0.188,2.075,0.427,2.99,1
7.193884,0.55,0.852,-0.184,1.953,0.061,2.929,1
7.203308,0.549,0.861,-0.184,1.892,-0.061,2.99,1
7.21011,0.55,0.856,-0.189,1.342,-0.305,2.807,1
7.217962,0.545,0.856,-0.195,0.671,-0.671,2.563,1
7.225806,0.535,0.862,-0.194,0.854,-0.976,2.563,1
7.233054,0.521,0.858,-0.196,-0.061,-1.22,2.441,1
7.241346,0.531,0.861,-0.192,-2.258,-1.464,2.136,1
7.248921,0.54,0.857,-0.184,-4.089,-1.77,1.953,1
7.25725,0.536,0.862,-0.178,-3.662,-1.953,1.77,1
7.26649,0.536,0.87,-0.179,-2.258,-2.624,1.586,1
7.273259,0.528,0.873,-0.174,-0.488,-2.746,1.403,1
7.281653,0.533,0.874,-0.166,1.159,-2.99,1.159,1
7.290524,0.538,0.871,-0.158,1.77,-2.929,0.976,1
7.297394,0.541,0.865,-0.152,1.77,-2.868,0.61,1
7.306233,0.545,0.864,-0.147,2.136,-2.624,0.305,1
7.313162,0.55,0.854,-0.142,1.647,-2.136,0.122,1
7.322338,0.553,0.853,-0.145,0.427,-2.075,0.122,1
7.329523,0.555,0.85,-0.142,-1.403,-1.77,-0.122,1
7.338205,0.546,0.852,-0.139,-2.38,-1.647,-0.244,1
7.347196,0.547,0.847,-0.139,-1.892,-1.647,-0.305,1
7.353952,0.542,0.851,-0.13,-1.22,-1.586,-0.244,1
7.363189,0.543,0.848,-0.128,-0.305,-1.647,-0.549,1
7.37022,0.547,0.842,-0.123,0.244,-1.403,-0.183,1
7.37829,0.547,0.84,-0.121,-0.061,-1.037,0.061,1
7.386311,0.548,0.837,-0.122,-0.732,-0.976,-0.122,1
7.39551,0.543,0.836,-0.124,-1.342,-0.854,-0.122,1
7.402548,0.536,0.837,-0.116,-1.831,-0.549,-0.183,1
7.410558,0.542,0.83,-0.11,-1.647,-0.366,-0.244,1
7.419343,0.537,0.831,-0.105,-2.014,-0.183,-0.366,1
7.428492,0.533,0.832,-0.094,-1.159,0.183,-0.366,1
7.435591,0.541,0.832,-0.09,0.366,0.305,-0.427,1
7.443696,0.54,0.825,-0.085,0.671,0.854,-0.671,1
7.451617,0.54,0.821,-0.083,0.976,1.525,-0.549,1
7.458938,0.543,0.819,-0.084,1.037,1.953,-0.549,1
7.467736,0.539,0.814,-0.093,0.427,2.502,-0.671,1
7.475159,0.543,0.812,-0.098,0.122,3.173,-0.854,1
7.483006,0.538,0.814,-0.101,0.183,3.479,-0.549,1
7.491019,0.54,0.813,-0.103,0.61,3.479,-0.061,1
7.498475,0.542,0.814,-0.106,0.244,4.028,0.122,1
7.507604,0.542,0.812,-0.11,-1.037,4.333,0.366,1
7.514996,0.543,0.816,-0.111,-2.014,4.638,0.671,1
7.522823,0.546,0.817,-0.11,-2.014,4.577,0.854,1
7.530137,0.548,0.824,-0.105,-0.61,4.76,1.098,1
7.538101,0.553,0.824,-0.105,0.793,5.126,0.976,1
7.547091,0.553,0.829,-0.106,1.342,5.554,1.098,1
7.553945,0.549,0.828,-0.114,0.915,5.981,1.159,1
7.561495,0.548,0.835,-0.11,1.281,6.225,1.037,1
7.569147,0.55,0.839,-0.123,1.892,6.347,1.159,1
7.57686,0.544,0.835,-0.13,1.708,6.53,1.037,1
7.585228,0.546,0.831,-0.139,1.525,6.652,0.854,1
7.592697,0.553,0.835,-0.145,1.037,7.019,0.793,1
7.600671,0.557,0.834,-0.155,-0.122,7.019,0.854,1
7.608333,0.555,0.836,-0.16,-1.037,7.019,0.732,1
7.617076,0.546,0.837,-0.159,-1.037,6.896,0.61,1
7.624503,0.553,0.836,-0.162,-0.732,6.713,0.793,1
7.632359,0.556,0.833,-0.163,-0.915,6.835,0.854,1
7.640465,0.549,0.841,-0.164,-0.671,6.774,1.037,1
7.647822,0.547,0.841,-0.17,-0.488,6.591,0.976,1
7.656789,0.545,0.842,-0.18,-0.488,6.408,0.793,1
7.664886,0.544,0.848,-0.185,-0.366,6.469,1.098,1
7.672735,0.543,0.847,-0.184,-0.061,6.347,1.037,1
7.680658,0.541,0.854,-0.192,-0.183,6.103,0.976,1
7.688707,0.54,0.855,-0.193,-0.793,5.737,0.671,1
7.696471,0.548,0.855,-0.195,-1.586,5.981,0.671,1
7.703615,0.547,0.854,-0.206,-2.807,5.737,0.427,1
7.711455,0.549,0.859,-0.205,-2.868,5.432,-0.061,1
7.720183,0.55,0.86,-0.209,-2.136,5.065,-0.122,1
7.727341,0.549,0.855,-0.208,-1.525,4.577,-0.488,1
7.736244,0.554,0.855,-0.199,-0.793,4.211,-0.549,1
7.743479,0.552,0.854,-0.194,-0.732,4.089,-0.61,1
7.752579,0.553,0.86,-0.193,-0.61,3.845,-0.854,1
7.759614,0.541,0.863,-0.19,-0.122,3.845,-0.915,1
7.769104,0.546,0.862,-0.187,1.098,3.295,-1.037,1
7.776283,0.548,0.864,-0.184,1.281,3.234,-1.342,1
7.783444,0.55,0.861,-0.176,1.525,3.112,-1.403,1
7.79123,0.547,0.858,-0.169,1.22,3.112,-1.708,1
7.799406,0.551,0.858,-0.163,0.854,3.356,-1.77,1
7.80761,0.549,0.85,-0.158,0.488,3.234,-1.831,1
7.814288,0.541,0.852,-0.149,0.183,3.601,-2.136,1
7.822506,0.542,0.852,-0.142,0.183,3.723,-2.136,1
7.829413,0.539,0.85,-0.145,0.366,3.906,-2.563,1
7.837072,0.533,0.852,-0.138,1.22,3.845,-2.624,1
7.846662,0.54,0.846,-0.138,1.525,4.028,-2.685,1
7.851923,0.539,0.846,-0.131,1.342,4.211,-2.99,1
7.860289,0.534,0.845,-0.12,1.464,4.211,-3.112,1
7.868634,0.538,0.843,-0.107,2.319,4.333,-3.051,1
7.876619,0.531,0.846,-0.088,3.051,4.577,-2.868,1
7.884924,0.534,0.853,-0.074,3.845,5.187,-2.868,1
7.892345,0.534,0.865,-0.062,6.896,5.615,-2.685,1
7.900429,0.53,0.878,-0.054,15.624,5.31,-2.441,1
7.908017,0.528,0.884,-0.047,28.869,5.004,-2.319,1
7.91555,0.521,0.859,-0.044,38.879,4.394,-2.441,1
7.923653,0.513,0.818,-0.043,38.513,4.882,-2.319,1
7.929542,0.518,0.788,-0.043,25.207,7.019,-1.892,1
7.937284,0.527,0.781,-0.027,13.977,7.873,-0.854,1
7.945875,0.536,0.791,-0.027,5.554,9.887,-0.793,1
7.952306,0.518,0.812,-0.03,1.831,10.62,-0.244,1
7.960426,0.505,0.825,-0.033,0.244,11.291,-0.061,1
7.969259,0.505,0.826,-0.043,-0.183,12.084,-0.122,1
7.975914,0.495,0.826,-0.059,-1.342,13.183,0.061,1
7.984698,0.499,0.831,-0.084,-3.54,14.221,0.0,1
7.991896,0.496,0.831,-0.121,-5.981,15.197,0.0,1
8.000611,0.505,0.838,-0.149,-5.981,15.441,0.0,1
8.007947,0.508,0.853,-0.165,-2.624,15.563,-0.122,1
8.017044,0.514,0.861,-0.204,1.647,15.136,-0.366,1
8.02429,0.517,0.863,-0.219,5.004,14.831,-0.488,1
8.033024,0.519,0.85,-0.245,5.737,14.099,-1.037,1
8.039993,0.541,0.835,-0.254,4.638,13.793,-0.976,1
8.047456,0.56,0.828,-0.27,2.746,13.61,-1.281,1
8.056589,0.567,0.825,-0.29,1.22,13.488,-1.342,1
8.063249,0.564,0.825,-0.308,-0.244,12.451,-1.647,1
8.07098,0.56,0.823,-0.324,-0.854,11.291,-2.014,1
8.080194,0.559,0.822,-0.325,0.305,10.314,-2.502,1
8.087463,0.56,0.813,-0.325,1.647,9.033,-2.502,1
8.094523,0.568,0.811,-0.328,2.014,8.117,-2.624,1
8.10231,0.57,0.801,-0.329,1.22,7.019,-2.624,1
8.111562,0.569,0.791,-0.321,0.061,6.103,-2.624,1
8.118471,0.569,0.793,-0.316,-1.098,5.126,-2.319,1
8.12711,0.558,0.793,-0.299,-1.403,4.15,-2.014,1
8.134403,0.557,0.795,-0.293,-2.136,3.479,-1.403,1
8.143579,0.558,0.81,-0.281,-2.99,2.685,-0.732,1
8.150941,0.555,0.816,-0.282,-2.075,2.014,-0.732,1
8.159367,0.557,0.824,-0.29,0.0,1.098,-0.671,1
8.167257,0.544,0.822,-0.287,1.953,-0.366,-0.427,1
8.175475,0.555,0.812,-0.279,2.197,-1.159,-0.549,1
8.184226,0.551,0.814,-0.264,0.0,-1.708,-0.488,1
8.190941,0.527,0.82,-0.242,-2.624,-2.441,-0.671,1
8.200849,0.538,0.829,-0.208,-2.746,-2.502,-1.281,1
8.208738,0.544,0.837,-0.166,-1.037,-3.173,-1.831,1
8.21592,0.541,0.84,-0.118,-0.122,-3.417,-1.77,1
8.225228,0.541,0.849,-0.069,0.671,-2.868,-1.953,1
8.232063,0.529,0.855,-0.01,2.136,-2.014,-2.197,1
8.240899,0.512,0.861,0.049,4.455,-0.854,-2.319,1
8.247925,0.509,0.865,0.101,7.141,0.854,-2.624,1
8.255974,0.502,0.87,0.155,11.291,2.38,-2.807,1
8.263109,0.502,0.862,0.203,16.479,5.249,-3.173,1
8.271291,0.498,0.844,0.247,15.93,8.605,-3.173,1
8.279091,0.499,0.817,0.28,12.023,12.695,-3.295,1
8.285934,0.502,0.798,0.308,7.202,17.395,-3.356,1
8.293893,0.516,0.781,0.316,1.647,22.033,-2.99,1
8.302624,0.505,0.773,0.304,-3.845,26.367,-2.807,1
8.310083,0.482,0.773,0.312,-6.958,30.395,-2.99,1
8.317428,0.489,0.766,0.319,-7.568,36.01,-2.136,1
8.326757,0.483,0.749,0.276,-13.061,41.809,-1.586,1
8.333646,0.445,0.739,0.216,-22.583,47.241,-0.854,1
8.342655,0.459,0.736,0.164,-36.254,53.955,0.366,1
8.349261,0.47,0.752,0.095,-46.63,59.631,1.342,1
8.357048,0.46,0.789,-0.005,-53.222,64.27,2.502,1
8.366171,0.447,0.846,-0.169,-58.898,68.115,2.441,1
8.373039,0.398,0.889,-0.333,-63.659,69.946,1.892,1
8.382239,0.355,0.931,-0.496,-62.622,70.129,1.098,1
8.388911,0.304,0.937,-0.714,-65.246,69.03,0.0,1
8.398199,0.224,0.944,-0.897,-88.256,68.237,-1.159,1
8.405156,0.129,0.965,-1.064,-114.624,68.359,-2.624,1
8.413366,0.126,1.003,-1.231,-124.389,64.331,-4.15,1
8.423143,0.086,0.983,-1.388,-98.632,59.326,-5.737,1
8.430104,0.077,0.808,-1.649,-73.181,50.476,-5.493,1
8.439338,0.108,0.607,-1.893,-62.988,44.25,-2.685,1
8.44635,0.068,0.385,-2.218,-63.171,36.376,1.892,1
8.455137,0.059,0.176,-2.515,-70.251,26.55,9.582,1
8.463829,0.047,-0.014,-2.812,-80.932,15.319,18.127,1
8.472374,0.041,-0.232,-3.123,-85.083,0.488,29.907,1
8.479422,-0.067,-0.415,-3.474,-93.933,-13.183,41.687,1
8.488074,-0.225,-0.478,-3.754,-95.703,-31.86,56.274,1
8.495996,-0.413,-0.56,-4.108,-90.759,-56.152,71.777,1
8.505338,-0.62,-0.601,-4.345,-91.857,-78.674,86.669,1
8.51273,-0.83,-0.55,-4.588,-97.473,-108.276,104.431,1
8.520674,-1.057,-0.411,-4.735,-106.811,-134.216,117.797,1
8.528382,-1.299,-0.196,-4.831,-116.516,-162.536,129.15,1
8.536837,-1.496,-0.013,-4.851,-116.638,-196.411,139.831,1
8.545748,-1.764,0.176,-4.858,-119.079,-226.318,147.033,1
8.55434,-2.003,0.333,-4.793,-127.807,-261.657,153.015,1
8.561759,-2.239,0.521,-4.601,-134.948,-291.32,157.531,1
8.570649,-2.454,0.667,-4.361,-137.512,-324.035,163.391,1
8.578316,-2.751,0.806,-4.046,-137.512,-354.736,169.067,1
8.586157,-3.008,0.999,-3.684,-144.47,-379.76,173.828,1
8.593789,-3.329,1.365,-3.113,-149.353,-401.489,178.344,1
8.602994,-3.439,1.712,-2.541,-146.301,-422.668,181.579,1
8.610444,-3.572,2.107,-1.948,-147.155,-433.837,183.654,1
8.6196,-3.722,2.569,-1.31,-145.019,-442.199,183.044,1
8.62727,-3.795,2.881,-0.826,-129.821,-449.157,179.809,1
8.635612,-3.866,3.209,-0.166,-101.44,-459.167,171.447,1
8.64249,-3.968,3.48,0.603,-58.166,-463.806,159.057,1
8.650016,-3.955,3.604,1.381,-18.005,-461.975,142.089,1
8.659189,-3.849,3.663,2.094,-4.028,-451.049,121.704,1
8.666099,-3.641,3.714,2.729,-0.976,-432.25,100.341,1
8.674986,-3.292,3.637,3.017,1.647,-405.639,75.439,1
8.683123,-2.885,3.467,3.103,1.464,-383.911,54.443,1
8.690654,-2.555,3.267,3.21,-3.662,-365.661,35.583,1
8.698985,-2.33,3.189,3.514,13.305,-346.008,14.953,1
8.705504,-1.986,3.043,3.898,48.461,-324.218,-1.77,1
8.713431,-1.605,2.745,4.13,72.021,-297.058,-16.601,1
8.722063,-1.261,2.41,4.158,68.481,-266.052,-28.991,1
8.729599,-0.911,2.051,4.016,50.598,-235.046,-38.94,1
8.738634,-0.527,1.67,3.685,28.991,-200.439,-46.63,1
8.745455,-0.29,1.389,3.269,20.202,-175.903,-51.025,1
8.754477,-0.042,1.069,2.756,17.211,-157.226,-53.649,1
8.761642,0.107,0.862,2.469,23.071,-145.568,-54.809,1
8.768672,0.213,0.682,2.382,51.208,-132.751,-53.71,1
8.777941,0.368,0.462,2.281,61.889,-119.567,-51.147,1
8.784946,0.534,0.24,2.136,48.583,-106.262,-47.119,1
8.792604,0.84,0.116,2.072,22.399,-94.604,-41.32,1
8.80162,1.248,0.052,2.182,10.986,-88.378,-35.705,1
8.810093,0.938,0.102,2.156,16.235,-73.791,-28.869,1
8.817811,0.888,0.075,1.919,6.042,-64.758,-21.24,1
8.824974,0.715,0.164,1.827,-1.647,-53.161,-14.038,1
8.834177,0.646,0.283,1.55,5.432,-42.419,-7.263,1
8.84136,0.576,0.405,1.453,27.709,-39.733,-3.295,1
8.849072,0.476,0.452,1.406,59.448,-31.738,-0.915,1
8.856538,0.381,0.451,1.282,67.199,-24.719,1.037,1
8.86423,0.318,0.451,1.186,51.635,-14.892,3.173,1
8.873082,0.296,0.456,1.063,22.399,-4.882,6.042,1
8.880304,0.293,0.517,0.975,0.793,2.624,8.605,1
8.888418,0.336,0.579,0.891,-7.385,8.178,10.437,1
8.896369,0.362,0.626,0.791,-6.591,11.84,11.779,1
8.903159,0.382,0.649,0.687,-5.126,14.526,12.756,1
8.910424,0.393,0.668,0.57,-8.3,17.761,14.16,1
8.91909,0.387,0.72,0.434,-16.174,19.714,15.075,1
8.92583,0.383,0.787,0.317,-22.888,19.897,15.991,1
8.933719,0.406,0.847,0.254,-21.606,19.714,15.502,1
8.941528,0.423,0.914,0.193,-12.268,17.639,14.831,1
8.948674,0.42,0.943,0.162,0.427,15.38,13.732,1
8.956324,0.409,0.96,0.154,6.835,13.732,12.634,1
8.964789,0.431,0.973,0.171,5.798,12.878,11.596,1
8.971993,0.474,0.996,0.206,3.112,12.39,9.887,1
8.980243,0.5,0.997,0.236,3.173,12.268,8.605,1
8.988338,0.521,0.995,0.221,-0.122,12.695,7.202,1
8.99576,0.542,1.008,0.195,-8.056,12.634,5.615,1
9.002904,0.555,1.024,0.176,-12.084,12.145,3.662,1
9.010441,0.589,1.018,0.155,-9.948,11.474,1.953,1
9.01961,0.583,1.008,0.118,-9.338,10.009,0.488,1
9.026228,0.582,0.998,0.098,-10.803,8.789,-1.037,1
9.03556,0.588,0.99,0.11,-8.605,7.629,-2.258,1
9.042599,0.595,0.979,0.11,-2.807,6.652,-3.173,1
9.050894,0.599,0.96,0.11,2.624,5.859,-4.028,1
9.057971,0.602,0.951,0.098,4.089,4.943,-4.577,1
9.065452,0.607,0.941,0.099,2.868,4.455,-4.882,1
9.073398,0.614,0.942,0.118,3.54,3.967,-5.737,1
9.080967,0.622,0.94,0.136,6.835,3.479,-6.286,1
9.089327,0.617,0.927,0.143,9.277,3.479,-6.225,1
9.096715,0.622,0.911,0.122,6.225,3.662,-7.08,1
9.104258,0.62,0.912,0.119,1.403,3.295,-7.385,1
9.113015,0.628,0.912,0.116,1.525,2.929,-7.629,1
9.119929,0.625,0.904,0.105,5.004,2.441,-8.117,1
9.127512,0.606,0.906,0.087,7.263,1.77,-8.483,1
9.136477,0.59,0.902,0.074,7.995,0.671,-9.033,1
9.143401,0.604,0.89,0.074,6.347,0.305,-8.972,1
9.152267,0.612,0.883,0.07,3.295,0.305,-9.094,1
9.159278,0.616,0.881,0.069,0.915,-0.366,-9.399,1
9.168171,0.596,0.891,0.081,-0.122,-0.549,-9.765,1
9.175495,0.588,0.895,0.108,1.159,-0.854,-10.253,1
9.185456,0.603,0.887,0.131,2.624,-0.793,-10.864,1
9.193298,0.603,0.878,0.155,3.356,0.0,-11.291,1
9.200442,0.591,0.883,0.161,4.516,-0.366,-11.779,1
9.20814,0.594,0.879,0.184,4.089,-0.244,-12.207,1
9.21694,0.608,0.877,0.203,2.99,0.366,-12.695,1
9.223895,0.606,0.881,0.217,2.685,0.488,-12.695,1
9.232003,0.601,0.889,0.225,3.967,1.098,-13.244,1
9.239507,0.608,0.88,0.235,4.638,1.708,-13.671,1
9.247675,0.615,0.866,0.235,4.455,2.38,-14.038,1
9.255318,0.616,0.853,0.242,2.99,3.54,-14.282,1
9.264305,0.607,0.851,0.249,4.882,4.394,-14.587,1
9.271311,0.601,0.843,0.251,10.192,4.882,-14.465,1
9.278809,0.598,0.83,0.256,14.16,5.859,-14.16,1
9.287837,0.587,0.832,0.242,16.052,6.042,-14.099,1
9.294609,0.569,0.841,0.255,21.118,6.652,-13.671,1
9.302941,0.565,0.85,0.264,28.442,6.774,-13.549,1
9.310189,0.558,0.854,0.261,33.325,7.08,-13.183,1
9.318697,0.561,0.846,0.248,32.958,7.629,-12.573,1
9.325697,0.57,0.831,0.23,27.038,8.483,-12.451,1
9.333072,0.559,0.827,0.232,18.859,9.216,-11.657,1
9.340698,0.571,0.821,0.222,11.779,9.765,-11.291,1
9.34828,0.596,0.804,0.221,5.859,10.253,-10.62,1
9.356204,0.618,0.795,0.212,3.662,10.986,-10.253,1
9.365083,0.629,0.819,0.201,10.925,10.864,-10.253,1
9.372972,0.609,0.811,0.172,21.911,10.009,-10.192,1
9.381382,0.616,0.783,0.142,24.047,10.192,-10.314,1
9.38986,0.602,0.769,0.112,21.118,9.765,-10.253,1
9.396135,0.535,0.752,0.097,15.502,9.277,-10.07,1
9.405251,0.594,0.722,0.081,4.089,10.009,-10.253,1
9.413124,0.546,0.719,0.09,-5.859,9.704,-9.948,1
9.419888,0.496,0.691,0.093,-19.714,10.925,-8.972,1
9.427833,0.569,0.664,0.081,-41.625,12.756,-7.324,1
9.435424,0.619,0.661,0.086,-49.438,13.244,-6.469,1
9.443954,0.621,0.705,0.133,-36.743,11.169,-5.798,1
9.450945,0.628,0.749,0.169,-8.728,9.887,-5.126,1
9.459068,0.607,0.75,0.176,19.348,7.08,-5.493,1
9.467806,0.621,0.747,0.18,26.0,7.324,-5.92,1
9.474659,0.639,0.753,0.195,19.47,7.324,-6.896,1
9.483781,0.635,0.77,0.234,11.047,8.239,-7.446,1
9.490627,0.601,0.8,0.279,6.713,8.789,-8.483,1
9.498597,0.594,0.81,0.324,1.953,9.948,-9.338,1
9.505139,0.584,0.789,0.312,-6.652,12.939,-10.498,1
9.513465,0.594,0.781,0.289,-13.916,13.977,-11.23,1
9.520612,0.563,0.859,0.275,-6.591,15.38,-11.169,1
9.530677,0.598,0.825,0.258,5.432,14.343,-11.657,1
9.538261,0.591,0.822,0.241,20.202,15.136,-12.512,1
9.545014,0.538,0.811,0.177,23.498,15.197,-12.817,1
9.552563,0.581,0.815,0.242,23.925,15.197,-13.488,1
9.560487,0.606,0.807,0.172,20.751,18.31,-13.61,1
9.569997,0.566,0.813,0.163,11.23,17.333,-14.038,1
9.576565,0.582,0.823,0.125,-1.22,21.972,-13.977,1
9.583891,0.651,0.808,0.102,-18.432,20.263,-14.465,1
9.59223,0.684,0.812,0.118,-24.658,22.766,-14.587,1
9.599724,0.718,0.834,0.079,-20.69,20.019,-14.831,1
9.609062,0.756,0.843,0.108,-5.676,18.188,-15.258,1
9.615585,0.78,0.822,0.062,8.239,15.869,-15.502,1
9.622978,0.793,0.804,0.062,9.033,14.221,-16.113,1
9.630637,0.813,0.784,0.048,5.92,14.404,-16.357,1
9.639317,0.811,0.777,0.03,0.793,12.634,-16.662,1
9.646152,0.799,0.776,0.036,-0.549,12.145,-16.784,1
9.654949,0.786,0.776,0.035,2.197,10.131,-17.639,1
9.66217,0.746,0.774,0.054,8.361,8.728,-17.578,1
9.671249,0.714,0.768,0.052,15.197,7.751,-18.005,1
9.6788,0.685,0.759,0.059,18.371,6.652,-18.066,1
9.685623,0.647,0.76,0.064,19.287,6.53,-18.066,1
9.693625,0.639,0.75,0.063,14.526,6.591,-18.005,1
9.701125,0.622,0.749,0.077,8.85,6.896,-18.249,1
9.708723,0.624,0.739,0.074,3.479,7.69,-18.188,1
9.717605,0.627,0.712,0.063,-2.929,8.605,-18.127,1
9.725173,0.643,0.68,0.05,-9.094,9.277,-18.066,1
9.734033,0.65,0.673,0.041,-11.413,9.277,-17.761,1
9.741456,0.646,0.672,0.038,-4.943,8.605,-17.7,1
9.74963,0.654,0.65,0.016,1.159,7.873,-17.517,1
9.757002,0.669,0.619,0.008,2.624,6.958,-16.845,1
9.764479,0.665,0.605,0.001,1.342,6.591,-16.113,1
9.773488,0.673,0.588,-0.005,-1.953,6.286,-15.38,1
9.781529,0.675,0.575,-0.013,-6.347,6.225,-14.465,1
9.788736,0.678,0.565,-0.015,-9.277,5.554,-13.488,1
9.796485,0.674,0.569,0.004,-6.469,5.065,-12.207,1
9.804972,0.66,0.568,0.008,-0.061,4.028,-10.803,1
9.813228,0.663,0.567,0.014,5.065,3.417,-9.399,1
9.821403,0.666,0.56,0.008,3.906,2.441,-8.3,1
9.828363,0.659,0.563,0.014,-0.549,2.441,-7.019,1
9.837055,0.675,0.575,0.015,-4.211,2.014,-6.164,1
9.84441,0.68,0.588,0.018,-6.53,0.976,-5.31,1
9.853874,0.685,0.594,0.026,-6.347,0.122,-4.943,1
9.862123,0.693,0.593,0.03,-6.042,-0.915,-4.333,1
9.869625,0.706,0.593,0.043,-4.943,-2.38,-3.967,1
9.877613,0.707,0.602,0.059,-3.356,-3.356,-3.417,1
9.88567,0.698,0.624,0.078,2.319,-4.516,-2.746,1
9.89277,0.696,0.648,0.088,11.047,-5.798,-2.685,1
9.901179,0.718,0.654,0.092,19.165,-7.141,-3.051,1
9.908657,0.728,0.656,0.104,21.911,-8.361,-3.479,1
9.916442,0.712,0.662,0.125,21.301,-8.239,-3.906,1
9.925695,0.706,0.661,0.14,19.348,-8.117,-4.455,1
9.933006,0.694,0.657,0.156,16.662,-7.934,-4.638,1
9.942197,0.68,0.666,0.173,16.906,-7.263,-4.821,1
9.950182,0.673,0.667,0.179,19.531,-7.263,-4.577,1
9.957887,0.685,0.661,0.175,20.996,-7.08,-5.126,1
9.965843,0.705,0.655,0.175,21.057,-7.324,-5.126,1
9.97262,0.711,0.646,0.19,20.507,-7.019,-4.699,1
9.980956,0.709,0.649,0.197,19.775,-6.652,-4.272,1
9.989179,0.714,0.638,0.202,17.456,-6.225,-4.028,1
9.998048,0.719,0.635,0.206,15.014,-5.92,-3.234,1
