timestamp_s,ax,ay,az,gx,gy,gz,label
0.004965,0.047,0.99,0.071,2.075,0.0,0.427,1
0.012085,0.043,0.996,0.071,2.197,-0.061,0.671,1
0.019836,0.042,0.997,0.073,1.892,0.122,0.488,1
0.026195,0.041,1.001,0.073,1.586,0.061,0.427,1
0.034893,0.042,1.0,0.071,1.281,0.061,0.366,1
0.041557,0.042,0.996,0.069,0.671,0.183,0.183,1
0.048552,0.041,1.001,0.065,0.366,0.61,0.244,1
0.057023,0.044,1.004,0.065,0.0,0.305,0.305,1
0.063791,0.045,1.006,0.061,-0.366,0.183,0.244,1
0.072381,0.045,1.004,0.061,-0.549,0.305,0.427,1
0.080574,0.045,1.01,0.064,-0.366,0.0,0.305,1
0.086692,0.043,1.007,0.057,0.061,0.061,0.061,1
0.094449,0.045,1.008,0.062,0.488,0.122,-0.122,1
0.1015,0.046,1.003,0.069,0.366,0.061,0.061,1
0.109515,0.043,1.0,0.069,0.122,0.122,0.0,1
0.116501,0.043,1.001,0.066,0.244,0.061,0.0,1
0.12349,0.045,1.001,0.062,-0.244,-0.061,0.061,1
0.131996,0.046,0.999,0.06,-0.122,0.0,-0.305,1
0.138543,0.046,1.001,0.063,0.061,-0.122,0.183,1
0.146476,0.045,1.006,0.068,0.793,-0.305,0.0,1
0.153197,0.047,1.004,0.07,0.549,-0.244,0.061,1
0.161342,0.049,1.006,0.066,0.366,-0.122,-0.122,1
0.167925,0.043,1.002,0.065,0.549,-0.366,-0.061,1
0.175931,0.049,1.005,0.062,0.305,-0.427,-0.244,1
0.183543,0.049,1.001,0.063,-0.183,-0.061,-0.061,1
0.190429,0.045,1.006,0.06,-0.61,-0.366,-0.488,1
0.198654,0.041,1.007,0.059,-0.427,-0.305,-0.488,1
0.206621,0.043,1.007,0.06,-0.488,-0.305,-0.549,1
0.213665,0.045,1.005,0.06,-0.305,-0.427,-0.488,1
0.222325,0.044,1.006,0.057,-0.366,-0.61,-0.488,1
0.230382,0.046,1.004,0.063,-0.366,-0.732,-0.549,1
0.237474,0.044,1.0,0.063,-0.366,-0.549,-0.671,1
0.245918,0.048,0.999,0.064,-0.061,-0.61,-0.549,1
0.252384,0.047,1.0,0.067,0.183,-0.671,-0.488,1
0.260951,0.043,0.997,0.067,0.427,-0.488,-0.732,1
0.267909,0.046,0.999,0.067,0.305,-0.732,-0.671,1
0.274535,0.048,0.995,0.065,0.305,-0.854,-0.549,1
0.283103,0.045,1.001,0.064,0.244,-0.854,-0.427,1
0.290008,0.045,1.004,0.068,0.366,-0.854,-0.549,1
0.298467,0.044,1.0,0.069,0.488,-0.915,-0.549,1
0.305065,0.044,1.004,0.067,0.183,-0.854,-0.488,1
0.313706,0.048,1.001,0.067,-0.122,-0.671,-0.61,1
0.320265,0.042,0.996,0.069,-0.488,-0.671,-0.61,1
0.328217,0.044,0.995,0.068,-0.305,-0.854,-0.61,1
0.335836,0.045,0.993,0.067,-0.244,-0.976,-0.793,1
0.343068,0.044,1.0,0.073,0.0,-0.854,-0.732,1
0.351037,0.049,1.0,0.074,0.305,-0.915,-0.549,1
0.357817,0.047,0.996,0.075,0.061,-0.854,-0.671,1
0.365801,0.044,0.997,0.071,-0.549,-0.61,-0.488,1
0.374348,0.046,1.0,0.07,-0.671,-0.732,-0.61,1
0.381496,0.044,1.0,0.07,-0.488,-0.732,-0.366,1
0.388458,0.049,0.998,0.073,-0.366,-0.793,-0.366,1
0.396448,0.046,0.995,0.066,-0.183,-0.732,-0.61,1
0.404835,0.046,0.997,0.066,0.305,-0.793,-0.671,1
0.411474,0.046,0.994,0.068,0.183,-0.915,-0.366,1
0.419523,0.044,0.997,0.071,0.122,-0.793,-0.366,1
0.426611,0.048,0.995,0.071,0.061,-0.793,-0.549,1
0.434966,0.045,0.997,0.068,0.122,-0.549,-0.427,1
0.441588,0.047,0.994,0.07,0.244,-0.732,-0.427,1
0.450153,0.048,0.998,0.066,0.976,-0.732,-0.305,1
0.456938,0.043,0.996,0.071,1.525,-0.793,-0.244,1
0.465245,0.047,1.001,0.07,1.953,-1.037,-0.427,1
0.471928,0.046,0.997,0.075,1.708,-0.854,-0.305,1
0.48033,0.045,0.999,0.073,1.525,-0.732,-0.366,1
0.486794,0.048,0.996,0.071,0.854,-0.793,-0.305,1
0.495056,0.046,1.003,0.074,0.244,-0.671,-0.427,1
0.503455,0.05,0.999,0.071,-0.488,-0.549,-0.183,1
0.511172,0.046,1.0,0.07,-0.732,-0.488,-0.427,1
0.519093,0.042,0.999,0.067,-0.854,-0.61,-0.305,1
0.527354,0.049,0.996,0.067,-1.342,-0.305,-0.305,1
0.535333,0.047,0.995,0.066,-1.281,-0.305,-0.305,1
0.54182,0.045,0.994,0.068,-0.854,-0.671,-0.244,1
0.551511,0.046,0.998,0.067,-0.549,-0.732,-0.305,1
0.557925,0.049,0.996,0.067,0.122,-0.488,-0.244,1
0.566603,0.043,0.996,0.067,0.732,-0.793,-0.305,1
0.574444,0.048,1.0,0.071,1.464,-0.793,-0.244,1
0.583545,0.045,0.996,0.069,2.136,-0.793,-0.183,1
0.592205,0.045,0.998,0.068,2.319,-1.037,-0.183,1
0.598559,0.046,0.997,0.068,2.197,-1.098,-0.122,1
0.605852,0.047,0.995,0.074,1.586,-0.732,0.122,1
0.612694,0.049,0.998,0.075,0.915,-0.793,-0.061,1
0.620793,0.044,0.997,0.071,0.488,-0.732,0.0,1
0.627495,0.049,0.998,0.07,0.0,-0.671,-0.122,1
0.635885,0.048,1.0,0.069,-0.183,-0.549,-0.244,1
0.644183,0.049,0.995,0.068,-0.183,-0.549,0.0,1
0.651637,0.047,0.995,0.071,0.061,-0.732,0.0,1
0.658842,0.043,0.994,0.068,-0.122,-0.488,0.122,1
0.668197,0.042,0.994,0.067,0.122,-0.61,0.122,1
0.674943,0.047,0.996,0.068,0.549,-0.61,0.061,1
0.682823,0.045,0.996,0.074,1.037,-0.549,0.305,1
0.691635,0.046,0.993,0.073,1.464,-0.793,0.183,1
0.697473,0.046,0.998,0.072,1.77,-0.854,0.366,1
0.705272,0.047,0.996,0.076,2.075,-0.854,0.488,1
0.713375,0.05,0.996,0.077,1.831,-0.61,0.183,1
0.720105,0.048,1.001,0.076,1.342,-0.549,0.183,1
0.728602,0.046,1.004,0.08,0.671,-0.61,0.061,1
0.736104,0.045,1.006,0.077,0.244,-0.244,0.061,1
0.745161,0.041,1.007,0.074,0.061,-0.122,0.061,1
0.75208,0.044,1.004,0.072,-0.122,-0.183,0.0,1
0.759716,0.042,0.996,0.071,-0.122,-0.183,-0.122,1
0.768181,0.045,0.997,0.066,-0.305,-0.244,0.183,1
0.775,0.044,0.994,0.063,-0.122,-0.488,-0.244,1
0.782927,0.045,0.989,0.063,0.305,-0.549,0.122,1
0.789941,0.047,0.991,0.064,0.732,-0.305,0.244,1
0.799178,0.052,0.993,0.067,1.22,-0.427,0.427,1
0.805636,0.053,0.992,0.07,1.281,-0.427,0.488,1
0.815326,0.049,0.991,0.072,1.22,-0.366,0.427,1
0.824164,0.045,0.995,0.073,1.403,-0.427,0.427,1
0.830065,0.047,0.997,0.069,1.22,-0.427,0.549,1
0.837865,0.047,0.996,0.076,0.671,-0.244,0.366,1
0.846738,0.048,1.001,0.068,0.488,-0.061,0.427,1
0.853794,0.043,1.0,0.07,0.427,-0.183,0.61,1
0.860968,0.047,1.002,0.069,0.671,-0.305,0.366,1
0.869973,0.044,1.006,0.068,0.671,-0.305,0.122,1
0.879262,0.044,1.004,0.064,0.61,-0.488,0.244,1
0.887566,0.045,1.0,0.067,-0.061,-0.305,0.122,1
0.893907,0.049,0.998,0.069,-0.244,-0.366,0.0,1
0.903894,0.041,0.994,0.069,-0.732,-0.244,-0.122,1
0.911246,0.041,0.999,0.073,-0.488,-0.061,0.122,1
0.918789,0.043,1.002,0.071,0.061,-0.122,0.061,1
0.928843,0.047,0.999,0.071,0.427,-0.244,0.183,1
0.935133,0.048,0.998,0.071,0.305,-0.061,0.244,1
0.943967,0.047,0.999,0.069,0.305,-0.183,0.244,1
0.950941,0.048,0.998,0.069,0.244,-0.305,0.244,1
0.958993,0.05,1.003,0.072,0.793,-0.183,0.366,1
0.965919,0.05,1.012,0.08,1.342,-0.183,0.366,1
0.973669,0.052,1.013,0.073,1.464,-0.244,-0.061,1
0.981087,0.052,1.015,0.078,1.403,-0.122,-0.061,1
0.990524,0.05,1.01,0.076,0.915,-0.244,-0.122,1
0.997573,0.048,1.007,0.073,0.244,-0.122,-0.061,1
1.00477,0.045,1.006,0.072,-0.122,0.122,-0.183,1
1.013579,0.042,1.003,0.071,-0.671,0.061,-0.366,1
1.020691,0.046,1.0,0.064,-0.732,-0.061,-0.244,1
1.028552,0.043,0.998,0.071,-0.915,-0.061,-0.244,1
1.035258,0.043,1.002,0.07,-0.793,-0.244,-0.244,1
1.042962,0.044,0.998,0.072,-0.488,-0.061,-0.305,1
1.05157,0.045,1.0,0.073,0.061,0.061,-0.488,1
1.059523,0.045,0.998,0.075,0.244,-0.244,-0.366,1
1.066629,0.045,1.004,0.078,1.159,-0.305,-0.244,1
1.074411,0.045,0.996,0.075,1.281,-0.244,-0.427,1
1.082817,0.049,0.996,0.072,1.525,-0.488,-0.366,1
1.089545,0.043,0.994,0.075,1.281,0.0,-0.122,1
1.098408,0.046,0.999,0.075,1.22,-0.183,-0.305,1
1.104772,0.045,0.993,0.069,0.732,-0.122,-0.122,1
1.113708,0.047,0.993,0.073,0.244,-0.183,-0.122,1
1.119853,0.043,0.999,0.073,0.427,-0.122,-0.061,1
1.128223,0.047,0.998,0.073,0.427,0.0,-0.183,1
1.135424,0.04,0.997,0.076,-0.122,0.0,-0.183,1
1.144091,0.041,0.995,0.083,-0.61,0.061,-0.122,1
1.151678,0.039,0.998,0.078,-0.976,0.366,-0.183,1
1.15879,0.044,0.998,0.078,-0.732,0.305,-0.244,1
1.167345,0.041,1.0,0.077,0.0,0.122,-0.244,1
1.174091,0.043,1.0,0.078,0.793,0.0,-0.183,1
1.181902,0.047,0.995,0.078,1.037,0.366,-0.183,1
1.189501,0.046,0.993,0.074,0.366,0.305,0.0,1
1.197832,0.046,0.994,0.076,0.0,0.305,0.061,1
1.205462,0.044,0.995,0.076,-0.366,0.061,0.244,1
1.212294,0.044,0.997,0.078,0.183,0.671,0.366,1
1.220077,0.042,0.996,0.079,0.549,0.366,0.305,1
1.227026,0.045,0.997,0.077,0.732,0.488,0.244,1
1.233651,0.043,0.997,0.077,1.281,0.305,0.183,1
1.241573,0.042,1.003,0.077,1.892,0.366,0.183,1
1.249294,0.041,1.002,0.079,2.075,0.61,0.244,1
1.255971,0.044,1.001,0.08,2.075,0.183,0.244,1
1.262866,0.047,1.001,0.085,1.281,0.488,0.244,1
1.269988,0.048,1.001,0.079,0.488,0.793,-0.122,1
1.278277,0.045,1.006,0.08,-0.61,1.037,0.122,1
1.285896,0.047,1.002,0.075,-0.854,1.037,0.244,1
1.292553,0.051,1.002,0.076,-0.793,1.098,-0.061,1
1.301071,0.049,1.001,0.072,-0.427,0.915,-0.122,1
1.310102,0.046,0.997,0.075,-0.244,0.793,0.122,1
1.315766,0.047,1.0,0.078,-0.305,0.854,0.0,1
1.323591,0.044,1.002,0.074,0.183,0.793,-0.061,1
1.331335,0.042,1.001,0.075,0.244,0.549,0.061,1
1.339855,0.045,1.001,0.077,0.427,0.671,-0.061,1
1.347058,0.045,0.999,0.078,0.488,0.671,-0.122,1
1.355201,0.048,0.999,0.078,0.671,0.854,-0.244,1
1.362841,0.047,1.0,0.078,0.854,0.854,-0.061,1
1.370891,0.043,1.002,0.075,1.037,0.61,0.122,1
1.377759,0.045,0.997,0.074,1.037,0.61,0.061,1
1.38429,0.041,0.996,0.074,1.037,0.549,-0.061,1
1.39271,0.042,0.992,0.075,1.159,0.671,0.061,1
1.400898,0.042,0.998,0.075,1.098,0.488,-0.183,1
1.408754,0.045,0.997,0.076,1.22,0.732,-0.122,1
1.417204,0.048,0.993,0.075,1.159,0.671,0.122,1
1.423831,0.044,0.997,0.077,0.488,0.61,-0.122,1
1.430824,0.042,0.998,0.078,0.122,0.671,-0.061,1
1.440277,0.046,0.999,0.077,-0.305,0.854,0.183,1
1.447951,0.045,0.998,0.081,-0.732,0.854,0.0,1
1.454208,0.042,1.0,0.078,-0.61,0.915,0.0,1
1.462031,0.042,1.0,0.073,-0.244,0.671,0.0,1
1.469992,0.043,1.003,0.073,-0.061,0.793,-0.061,1
1.477381,0.041,1.0,0.076,0.183,0.793,0.0,1
1.484314,0.04,1.001,0.079,1.037,0.854,0.061,1
1.492582,0.037,1.002,0.079,1.281,0.854,-0.183,1
1.50029,0.041,1.003,0.078,0.915,0.854,-0.183,1
1.508873,0.04,0.996,0.078,0.793,0.915,-0.122,1
1.515929,0.04,0.998,0.079,1.281,0.854,-0.488,1
1.523956,0.038,1.002,0.081,1.647,0.854,-0.244,1
1.532267,0.037,1.002,0.077,2.136,0.61,-0.366,1
1.541369,0.039,1.001,0.073,2.197,0.854,-0.183,1
1.548082,0.044,1.0,0.074,1.464,0.732,-0.122,1
1.55593,0.041,0.996,0.069,1.037,0.61,-0.061,1
1.562518,0.047,0.998,0.067,-0.061,0.915,-0.061,1
1.570532,0.046,0.995,0.067,-0.61,0.671,-0.061,1
1.577707,0.049,0.998,0.07,-0.488,0.488,0.183,1
1.586428,0.048,0.995,0.07,0.366,0.488,0.244,1
1.593697,0.05,0.991,0.076,0.732,0.488,0.366,1
1.601071,0.048,0.989,0.075,1.22,0.244,0.244,1
1.609952,0.044,0.989,0.077,1.098,0.183,0.366,1
1.617856,0.041,0.992,0.077,0.854,0.366,0.427,1
1.624936,0.043,0.995,0.077,1.037,0.366,0.244,1
1.633866,0.042,0.999,0.071,0.976,0.427,0.366,1
1.642014,0.04,1.005,0.071,1.708,0.305,0.061,1
1.649188,0.039,1.003,0.071,2.197,0.305,0.061,1
1.65699,0.041,1.0,0.068,2.258,-0.061,0.305,1
1.664892,0.04,1.002,0.07,2.441,0.122,0.244,1
1.673,0.039,1.004,0.072,2.197,0.061,0.061,1
1.679643,0.041,1.003,0.076,1.953,-0.061,-0.061,1
1.688464,0.04,1.011,0.078,1.342,-0.122,0.061,1
1.696745,0.04,1.003,0.082,0.305,0.122,0.0,1
1.705814,0.043,1.008,0.08,-0.488,0.366,-0.183,1
1.713909,0.043,1.008,0.08,-0.915,0.305,-0.122,1
1.721678,0.049,1.005,0.074,-1.342,0.427,-0.061,1
1.729116,0.05,1.0,0.07,-1.403,0.488,-0.061,1
1.736386,0.047,0.997,0.068,-1.098,0.488,0.0,1
1.743974,0.045,0.999,0.069,-0.244,-0.061,-0.061,1
1.752411,0.048,0.999,0.07,0.488,0.183,-0.122,1
1.761106,0.043,1.003,0.078,1.22,-0.183,0.122,1
1.76886,0.042,1.007,0.08,1.586,-0.122,-0.244,1
1.77767,0.042,1.009,0.081,1.708,-0.244,-0.305,1
1.785152,0.046,1.01,0.076,1.586,0.122,-0.122,1
1.793912,0.041,1.007,0.076,0.793,-0.122,-0.427,1
1.802497,0.042,1.008,0.074,0.183,-0.122,-0.427,1
1.810091,0.047,1.005,0.074,-0.61,-0.061,-0.671,1
1.81846,0.047,1.005,0.073,-1.037,-0.183,-0.793,1
1.825724,0.043,1.0,0.076,-1.22,0.061,-0.732,1
1.83283,0.043,0.994,0.074,-1.22,-0.183,-0.61,1
1.84053,0.043,1.0,0.074,-1.098,-0.061,-0.488,1
1.849078,0.044,1.0,0.075,-0.549,-0.061,-0.61,1
1.857454,0.044,0.996,0.074,0.183,-0.183,-0.793,1
1.865082,0.041,1.0,0.076,0.793,-0.305,-0.793,1
1.87368,0.041,0.996,0.077,0.915,-0.366,-0.732,1
1.88162,0.042,0.997,0.068,0.915,-0.427,-0.61,1
1.891209,0.041,0.998,0.073,0.915,-0.305,-0.549,1
1.89813,0.043,1.001,0.074,0.793,-0.244,-0.854,1
1.905638,0.046,0.996,0.073,0.366,-0.183,-0.732,1
1.91454,0.048,0.998,0.075,-0.366,-0.305,-0.793,1
1.922052,0.044,0.994,0.075,-0.61,-0.244,-0.671,1
1.929896,0.044,0.995,0.077,-0.854,-0.427,-0.61,1
1.938397,0.042,0.994,0.076,-0.976,-0.183,-0.488,1
1.946343,0.044,0.997,0.076,-0.305,-0.488,-0.61,1
1.953768,0.045,0.996,0.079,0.305,-0.488,-0.671,1
1.961482,0.045,0.99,0.076,0.549,-0.549,-0.671,1
1.968981,0.045,0.995,0.078,0.732,-0.671,-0.488,1
1.977927,0.044,0.997,0.076,1.159,-0.549,-0.61,1
1.985243,0.043,0.995,0.076,1.464,-0.671,-0.427,1
1.993821,0.045,1.0,0.075,1.647,-0.61,-0.366,1
2.000914,0.047,0.998,0.075,1.708,-0.915,-0.244,1
2.009526,0.046,0.997,0.073,1.586,-0.488,-0.427,1
2.018019,0.047,1.003,0.075,1.159,-0.488,-0.549,1
2.024778,0.047,1.003,0.081,1.525,-0.671,-0.427,1
2.032854,0.042,1.008,0.078,1.037,-0.488,-0.61,1
2.041423,0.046,1.009,0.083,1.098,-0.549,-0.549,1
2.048225,0.043,1.01,0.079,0.427,-0.244,-0.976,1
2.05657,0.042,1.013,0.078,-0.305,-0.305,-0.854,1
2.064945,0.045,1.013,0.074,-0.61,-0.244,-0.854,1
2.072111,0.042,1.007,0.067,-0.976,-0.305,-1.098,1
2.079029,0.044,1.004,0.066,-1.525,-0.366,-1.281,1
2.086996,0.043,1.003,0.069,-1.647,-0.244,-1.342,1
2.094813,0.042,0.999,0.07,-1.159,-0.549,-1.098,1
2.1016,0.045,0.999,0.07,-0.183,-0.671,-1.342,1
2.108691,0.045,0.995,0.074,0.244,-0.61,-1.22,1
2.116911,0.048,0.992,0.078,0.915,-0.976,-1.159,1
2.123594,0.049,0.995,0.084,0.671,-0.854,-1.098,1
2.131944,0.047,0.989,0.084,0.427,-0.793,-0.793,1
2.138624,0.049,0.989,0.083,-0.366,-0.549,-1.037,1
2.148481,0.047,0.993,0.083,-0.61,-0.671,-0.915,1
2.155381,0.049,0.998,0.081,-0.915,-0.61,-0.732,1
2.162175,0.054,1.001,0.081,-0.427,-0.427,-0.671,1
2.171113,0.053,0.996,0.08,0.244,-0.427,-0.732,1
2.177741,0.053,0.995,0.08,0.671,-0.488,-0.488,1
2.184853,0.049,0.99,0.078,0.61,-0.305,-0.427,1
2.192698,0.049,0.994,0.079,0.915,-0.305,-0.366,1
2.200993,0.05,0.996,0.08,0.915,-0.244,-0.244,1
2.20801,0.048,0.993,0.079,0.793,-0.305,-0.488,1
2.215071,0.042,0.996,0.082,0.854,-0.427,-0.305,1
2.222207,0.046,0.997,0.087,0.732,-0.244,-0.305,1
2.230134,0.041,0.999,0.086,0.366,-0.122,-0.427,1
2.237892,0.046,0.993,0.092,-0.122,0.061,-0.427,1
2.24502,0.044,0.993,0.091,-0.61,0.305,-0.061,1
2.253262,0.048,0.996,0.089,-0.61,0.305,-0.427,1
2.261639,0.047,0.991,0.087,-0.244,0.427,-0.305,1
2.268195,0.048,1.0,0.086,0.122,0.366,-0.305,1
2.276612,0.052,0.993,0.084,0.793,0.427,-0.183,1
2.283158,0.051,0.997,0.082,1.525,0.61,-0.305,1
2.291896,0.052,0.998,0.083,1.159,0.366,-0.244,1
2.298881,0.047,1.003,0.09,1.159,0.244,-0.305,1
2.305782,0.052,1.007,0.09,0.671,0.61,-0.366,1
2.314481,0.055,1.014,0.092,0.793,0.549,-0.427,1
2.321058,0.053,1.015,0.092,1.586,0.793,-0.366,1
2.329837,0.052,1.019,0.091,2.502,0.854,-0.305,1
2.335144,0.052,1.018,0.09,3.173,0.976,-0.305,1
2.343985,0.051,1.025,0.083,3.784,1.22,-0.549,1
2.351066,0.055,1.049,0.075,4.272,1.159,-0.305,1
2.357587,0.067,1.075,0.07,6.042,0.915,-0.793,1
2.366236,0.075,1.1,0.068,10.009,0.732,-0.793,1
2.373822,0.09,1.115,0.061,16.296,-0.366,-1.525,1
2.382065,0.084,1.112,0.058,21.423,0.0,-2.075,1
2.390192,0.082,1.117,0.057,23.925,-0.183,-2.685,1
2.397179,0.103,1.123,0.057,29.846,0.183,-3.54,1
2.406131,0.151,1.122,0.067,30.09,-0.549,-4.76,1
2.413182,0.127,1.132,0.093,31.249,0.61,-5.981,1
2.419905,0.115,1.141,0.103,28.991,1.586,-6.469,1
2.426889,0.123,1.151,0.096,24.23,2.624,-7.08,1
2.434637,0.157,1.18,0.075,19.653,3.356,-7.873,1
2.442891,0.229,1.174,0.05,12.695,2.38,-9.46,1
2.450053,0.243,1.248,0.029,9.887,3.112,-11.718,1
2.458441,0.371,1.333,0.059,12.451,2.929,-14.953,1
2.464983,0.416,1.384,0.071,18.859,3.295,-17.578,1
2.472828,0.438,1.401,0.062,21.606,3.906,-20.568,1
2.481747,0.453,1.414,0.056,17.15,4.638,-23.498,1
2.488355,0.462,1.433,0.016,5.798,5.065,-26.0,1
2.495251,0.456,1.442,0.002,-10.62,4.76,-28.93,1
2.503403,0.486,1.453,0.006,-27.832,6.103,-31.616,1
2.511578,0.473,1.46,-0.014,-47.973,7.08,-34.118,1
2.519239,0.434,1.477,-0.038,-69.763,7.934,-36.743,1
2.525847,0.376,1.494,-0.064,-96.496,7.812,-40.466,1
2.534543,0.39,1.512,-0.04,-112.243,9.521,-43.395,1
2.542397,0.377,1.546,-0.047,-122.497,11.352,-47.058,1
2.551178,0.308,1.561,-0.055,-130.371,13.854,-50.903,1
2.557794,0.077,1.613,-0.129,-143.676,14.587,-55.541,1
2.566602,-0.309,1.665,-0.221,-148.681,10.498,-56.579,1
2.573327,-0.443,1.666,-0.287,-142.456,4.821,-54.687,1
2.583731,-0.129,1.606,-0.332,-127.685,2.014,-54.321,1
2.592022,0.414,1.502,-0.421,-117.675,-2.38,-56.213,1
2.600761,0.534,1.619,-0.42,-110.656,-7.263,-61.34,1
2.60859,0.476,1.755,-0.332,-97.839,-9.826,-67.321,1
2.615726,0.472,1.844,-0.287,-85.388,-12.268,-71.411,1
2.62407,0.559,1.888,-0.229,-78.979,-12.756,-75.622,1
2.632086,0.652,1.946,-0.191,-78.857,-11.596,-80.688,1
2.640489,0.718,2.012,-0.151,-79.406,-9.399,-85.693,1
2.647106,0.77,2.134,-0.101,-77.758,-6.591,-91.308,1
2.657243,0.723,2.298,-0.048,-70.617,-3.601,-99.06,1
2.665709,0.552,2.561,0.032,-58.898,0.488,-106.506,1
2.672132,0.451,2.743,-0.049,-57.067,0.427,-118.835,1
2.680562,0.372,2.825,-0.017,-70.922,1.22,-128.845,1
2.687669,0.505,2.894,-0.08,-97.961,2.014,-141.113,1
2.695649,0.751,2.854,-0.1,-113.647,3.112,-152.465,1
2.704261,0.771,2.701,-0.244,-121.398,1.098,-162.841,1
2.712877,0.617,2.623,-0.225,-126.77,-1.037,-171.63,1
2.719798,0.46,2.487,-0.228,-124.084,-4.516,-181.213,1
2.730059,0.356,2.352,-0.127,-113.708,-8.605,-187.927,1
2.737249,0.281,2.165,-0.037,-87.646,-13.427,-194.58,1
2.745401,0.239,2.0,0.088,-57.067,-18.066,-199.951,1
2.752198,0.212,1.808,0.231,-21.362,-21.24,-204.223,1
2.760299,0.194,1.701,0.246,13.305,-21.423,-208.496,1
2.767387,0.218,1.57,0.273,29.541,-22.949,-212.402,1
2.77569,0.322,1.271,0.165,24.169,-17.822,-215.332,1
2.782391,0.315,1.145,0.075,-5.249,-17.883,-217.102,1
2.791316,0.273,1.147,0.118,-25.085,-14.343,-217.59,1
2.798391,0.303,1.159,0.091,-31.433,-15.869,-219.055,1
2.807192,0.288,1.192,0.133,-25.512,-17.211,-220.031,1
2.814204,0.361,1.224,0.111,-13.671,-19.165,-221.618,1
2.822915,0.233,1.052,0.086,-23.559,-19.958,-220.336,1
2.829899,0.293,1.161,0.109,-39.855,-22.644,-221.862,1
2.838239,0.203,1.15,0.098,-51.33,-22.766,-222.473,1
2.847067,0.135,1.155,0.065,-67.443,-25.756,-222.351,1
2.855058,0.044,1.125,0.06,-85.754,-28.869,-222.412,1
2.862246,-0.017,1.081,0.023,-102.416,-32.775,-221.679,1
2.870347,-0.097,0.962,-0.014,-122.375,-37.475,-219.177,1
2.87887,-0.087,0.87,-0.047,-144.775,-44.006,-213.928,1
2.887296,-0.125,0.744,-0.08,-159.79,-50.781,-206.97,1
2.894098,-0.19,0.781,-0.031,-167.541,-54.809,-200.073,1
2.902729,-0.244,0.797,-0.078,-155.334,-61.523,-197.021,1
2.911289,-0.359,0.747,-0.063,-115.539,-71.289,-194.458,1
2.920038,-0.449,0.706,-0.06,-69.335,-78.308,-190.795,1
2.926739,-0.478,0.737,-0.009,-8.911,-81.237,-190.063,1
2.935473,-0.388,0.773,-0.067,78.002,-86.181,-194.641,1
2.943305,-0.858,0.815,-0.114,143.493,-85.815,-190.978,1
2.950359,-0.449,0.982,-0.284,198.974,-88.989,-193.359,1
2.959234,-0.375,0.661,-0.147,242.004,-95.275,-196.533,1
2.96593,-0.366,0.529,-0.203,274.78,-86.853,-191.162,1
2.97373,-0.189,0.504,-0.21,284.24,-86.975,-190.917,1
2.982413,-0.382,0.436,-0.181,296.325,-81.054,-190.49,1
2.99102,-0.604,0.436,-0.15,299.133,-71.655,-191.101,1
2.998063,-0.496,0.349,-0.122,278.137,-58.288,-193.847,1
3.006408,-0.265,0.282,-0.042,247.436,-45.166,-196.533,1
3.014248,-0.042,0.162,-0.064,201.11,-28.503,-197.753,1
3.023139,0.176,0.103,-0.092,123.901,-12.512,-199.829,1
3.030179,0.229,0.076,-0.072,63.781,-0.854,-200.744,1
3.038995,0.211,0.089,-0.044,21.118,5.31,-200.744,1
3.046039,0.148,0.178,0.034,11.047,7.141,-200.317,1
3.052858,0.129,0.207,0.072,27.465,7.385,-199.829,1
3.061281,0.091,0.173,0.098,53.588,5.676,-198.486,1
3.068504,0.065,0.127,0.12,79.467,6.042,-195.983,1
3.077165,0.017,0.076,0.143,96.801,7.385,-194.641,1
3.08427,-0.006,0.049,0.17,108.093,10.375,-192.138,1
3.09307,-0.045,-0.004,0.177,118.53,13.061,-190.368,1
3.099909,-0.131,-0.06,0.232,119.873,17.272,-188.476,1
3.108327,-0.131,-0.131,0.26,116.333,23.62,-186.645,1
3.115851,-0.111,-0.229,0.298,101.074,29.968,-184.997,1
3.122788,-0.129,-0.336,0.343,76.416,39.367,-182.739,1
3.130318,-0.195,-0.438,0.379,44.738,49.316,-180.358,1
3.138318,-0.264,-0.522,0.43,13.793,60.302,-177.734,1
3.148195,-0.354,-0.578,0.468,-6.652,71.105,-175.659,1
3.156003,-0.53,-0.619,0.525,-11.047,81.42,-172.79,1
3.164413,-0.705,-0.717,0.502,-8.972,90.576,-169.25,1
3.171598,-0.693,-0.82,0.497,-10.742,100.341,-164.978,1
3.180371,-0.717,-0.938,0.487,-5.981,109.863,-159.301,1
3.18767,-0.721,-1.156,0.425,-3.967,119.873,-149.902,1
3.195893,-0.751,-1.363,0.383,-12.817,129.638,-140.197,1
3.20304,-0.819,-1.588,0.359,-39.978,139.953,-127.685,1
3.211424,-0.916,-1.784,0.352,-75.5,153.198,-112.854,1
3.219879,-1.001,-1.986,0.315,-115.112,167.358,-94.421,1
3.226935,-1.108,-2.092,0.31,-126.342,178.955,-77.88,1
3.235367,-1.191,-2.182,0.276,-112.487,187.988,-60.546,1
3.243694,-1.306,-2.295,0.252,-85.327,195.861,-42.175,1
3.251883,-1.462,-2.44,0.195,-58.593,205.017,-19.042,1
3.258869,-1.669,-2.517,0.165,-41.564,213.745,2.258,1
3.265883,-1.837,-2.594,0.119,-37.353,223.449,24.414,1
3.274608,-2.048,-2.633,0.052,-42.419,233.337,46.447,1
3.281273,-2.236,-2.654,-0.017,-47.424,242.797,69.763,1
3.289339,-2.541,-2.626,-0.084,-55.053,252.685,91.979,1
3.297219,-2.846,-2.603,-0.206,-59.143,261.352,117.98,1
3.305437,-3.133,-2.597,-0.274,-56.457,269.592,141.052,1
3.313499,-3.357,-2.655,-0.337,-51.757,274.597,164.794,1
3.320139,-3.645,-2.717,-0.381,-43.395,281.555,190.734,1
3.328639,-3.906,-2.787,-0.479,-39.062,287.109,218.261,1
3.335279,-4.275,-2.854,-0.545,-43.09,294.86,247.497,1
3.343275,-4.619,-2.916,-0.628,-51.452,300.231,278.259,1
3.350371,-4.969,-2.975,-0.726,-53.833,307.556,311.34,1
3.358417,-5.435,-3.034,-0.854,-58.837,312.683,345.886,1
3.365378,-5.898,-3.128,-0.988,-67.138,319.519,383.422,1
3.373154,-6.429,-3.152,-1.081,-56.335,322.143,423.828,1
3.381411,-7.043,-3.207,-1.174,-15.747,322.814,469.055,1
3.388422,-7.758,-3.303,-1.325,40.222,315.917,520.263,1
3.396678,-8.687,-3.415,-1.473,95.031,305.847,578.002,1
3.404931,-9.746,-3.479,-1.635,143.554,288.391,641.418,1
3.413608,-11.247,-3.45,-1.794,202.575,259.826,721.069,1
3.420297,-12.814,-3.278,-1.909,263.732,224.853,793.151,1
3.428254,-14.583,-3.02,-2.009,329.101,177.795,868.102,1
3.436612,-15.999,-2.602,-1.971,391.906,118.225,941.833,1
3.443747,-15.999,-1.989,-1.976,479.309,41.564,1013.122,1
3.453288,-15.999,-1.47,-1.847,580.139,-71.228,1089.66,1
3.460265,-15.999,-0.868,-1.607,639.16,-181.64,1144.226,1
3.469025,-15.999,-0.229,-1.327,700.073,-323.425,1189.453,1
3.475537,-15.999,0.483,-1.028,754.272,-456.054,1208.068,1
3.483872,-15.999,1.198,-0.583,815.429,-598.144,1206.115,1
3.49172,-15.999,1.911,-0.002,899.78,-748.474,1179.443,1
3.500041,-15.999,2.415,0.714,993.164,-910.461,1122.07,1
3.506839,-15.999,2.627,1.695,1070.129,-1093.2,1012.451,1
3.51557,-15.999,2.671,2.657,1061.523,-1233.642,898.132,1
3.523148,-15.999,2.973,3.466,1042.297,-1335.937,766.662,1
3.530202,-15.999,3.344,4.186,1026.306,-1410.034,627.502,1
3.538098,-15.999,3.772,4.536,1123.718,-1458.862,459.96,1
3.546804,-15.999,4.125,4.601,1216.613,-1488.891,256.958,1
3.553879,-15.999,3.739,4.602,1170.288,-1465.454,53.466,1
3.562216,-15.999,3.616,4.542,1025.024,-1406.677,-132.446,1
3.568942,-15.999,3.393,4.99,968.872,-1330.993,-290.466,1
3.577233,-15.999,2.508,4.822,1050.048,-1238.952,-438.232,1
3.584321,-15.999,1.185,4.698,989.257,-1082.397,-585.998,1
3.592626,-15.999,0.482,4.469,772.888,-938.659,-672.607,1
3.599801,-15.999,0.15,4.369,577.087,-806.091,-718.383,1
3.608058,-15.999,0.201,3.937,478.393,-699.401,-741.149,1
3.616937,-15.999,0.326,3.766,474.731,-611.938,-759.277,1
3.624793,-15.999,-0.076,3.595,460.937,-509.216,-773.925,1
3.631944,-15.443,-0.633,3.596,388.549,-416.564,-772.705,1
3.640682,-13.631,-1.083,3.434,316.833,-347.534,-759.643,1
3.647783,-12.501,-1.209,3.518,313.049,-272.949,-735.046,1
3.656167,-11.211,-1.448,3.322,353.332,-218.322,-713.684,1
3.664954,-10.41,-1.974,3.142,364.318,-157.714,-687.133,1
3.671681,-9.43,-2.403,2.972,318.542,-88.5,-648.376,1
3.679595,-8.812,-2.578,2.926,263.122,-34.729,-610.839,1
3.688318,-7.909,-2.707,2.806,233.764,10.986,-570.739,1
3.695421,-7.094,-2.826,2.691,223.937,58.166,-523.071,1
3.70422,-6.396,-2.924,2.511,213.745,93.017,-481.872,1
3.712659,-5.654,-2.957,2.328,200.744,125.244,-440.734,1
3.721171,-5.103,-2.908,2.166,193.054,157.775,-393.554,1
3.728339,-4.672,-2.83,1.979,178.649,181.884,-354.003,1
3.737019,-4.298,-2.635,1.804,161.193,202.209,-315.612,1
3.743837,-4.007,-2.426,1.646,150.695,221.923,-273.071,1
3.752163,-3.748,-2.221,1.5,148.864,235.473,-238.464,1
3.759071,-3.528,-2.027,1.361,151.367,245.483,-206.42,1
3.766257,-3.329,-1.829,1.24,154.846,254.089,-176.33,1
3.774223,-3.16,-1.625,1.132,157.287,261.474,-148.62,1
3.781212,-3.032,-1.427,1.034,155.883,267.944,-122.863,1
3.789301,-2.93,-1.224,0.953,152.954,272.888,-100.036,1
3.796368,-2.782,-1.041,0.876,149.536,277.832,-79.406,1
3.803878,-2.635,-0.882,0.798,146.606,280.151,-63.476,1
3.811875,-2.481,-0.733,0.738,145.568,283.081,-43.762,1
3.818886,-2.237,-0.609,0.657,144.775,284.606,-28.686,1
3.826698,-2.138,-0.494,0.606,139.099,285.339,-12.878,1
3.833717,-1.982,-0.361,0.551,136.352,285.949,-0.671,1
3.841964,-1.864,-0.254,0.503,135.498,284.851,13.183,1
3.848582,-1.671,-0.171,0.451,139.587,283.63,26.672,1
3.855656,-1.54,-0.062,0.447,146.423,280.822,40.161,1
3.863981,-1.519,0.017,0.355,171.081,278.015,53.039,1
3.871144,-1.533,0.093,0.353,185.974,275.817,63.415,1
3.878823,-1.443,0.098,0.277,192.504,272.644,75.5,1
3.886029,-1.265,0.161,0.266,188.72,270.629,89.843,1
3.894698,-1.171,0.24,0.187,187.377,268.188,98.815,1
3.901025,-1.153,0.315,0.148,189.147,262.512,107.177,1
3.908046,-1.162,0.383,0.123,195.861,258.544,114.196,1
3.915882,-1.062,0.465,0.054,202.636,253.967,119.873,1
3.924624,-0.954,0.527,0.0,207.824,249.084,124.084,1
3.931348,-0.927,0.609,-0.068,207.824,246.215,126.708,1
3.940013,-0.937,0.681,-0.141,203.063,242.37,127.197,1
3.946742,-0.823,0.737,-0.16,199.523,241.21,127.014,1
3.955117,-0.705,0.812,-0.235,194.396,240.844,125.061,1
3.962521,-0.695,0.885,-0.279,186.706,241.516,122.192,1
3.969145,-0.685,0.971,-0.351,177.551,244.201,118.591,1
3.977721,-0.629,1.044,-0.407,167.541,244.995,113.647,1
3.984713,-0.584,1.124,-0.488,152.648,250.488,107.604,1
3.993167,-0.589,1.216,-0.627,123.718,253.723,99.426,1
4.000152,-0.615,1.278,-0.687,88.195,258.422,87.951,1
4.008427,-0.631,1.325,-0.704,68.664,260.925,77.453,1
4.017339,-0.646,1.373,-0.742,60.974,264.343,67.199,1
4.023935,-0.661,1.435,-0.791,60.363,264.648,56.152,1
4.032786,-0.696,1.458,-0.84,65.124,264.221,45.959,1
4.040785,-0.678,1.47,-0.872,75.256,262.756,34.851,1
4.049438,-0.642,1.467,-0.937,85.937,261.047,25.085,1
4.055837,-0.592,1.497,-1.05,88.073,260.192,17.639,1
4.063692,-0.553,1.537,-1.208,84.411,257.019,9.826,1
4.072296,-0.509,1.562,-1.306,81.604,253.417,1.831,1
4.080802,-0.48,1.552,-1.35,83.984,249.511,-5.676,1
4.087781,-0.455,1.534,-1.329,93.811,244.567,-12.207,1
4.09681,-0.39,1.535,-1.36,116.088,240.844,-18.981,1
4.103392,-0.372,1.539,-1.431,135.314,234.191,-24.353,1
4.110473,-0.312,1.508,-1.431,153.076,232.91,-29.418,1
4.118828,-0.152,1.259,-1.643,173.034,230.834,-34.545,1
4.125776,-0.008,0.187,-2.082,170.41,223.815,-27.832,1
4.134626,0.053,0.394,-2.529,148.193,227.355,-25.573,1
4.143177,-0.071,0.698,-2.385,111.45,205.749,-29.296,1
4.151126,-0.229,0.931,-1.824,123.046,208.679,-29.846,1
4.158002,-0.231,1.059,-1.674,146.423,196.533,-32.836,1
4.166017,-0.35,1.087,-1.166,173.278,191.528,-34.667,1
4.172946,-0.3,1.038,-1.039,207.397,188.659,-34.667,1
4.18004,-0.288,0.93,-0.914,215.332,185.302,-32.836,1
4.187742,-0.26,0.904,-0.869,202.575,189.88,-30.7,1
4.195011,-0.274,0.946,-0.843,161.682,190.978,-30.151,1
4.203306,-0.168,0.931,-0.735,121.704,196.411,-30.09,1
4.209942,0.065,1.375,-0.691,108.459,197.57,-33.569,1
4.218681,0.438,1.403,-0.702,111.816,196.777,-35.705,1
4.225362,0.616,1.409,-0.736,137.39,193.908,-38.33,1
4.232319,0.331,1.171,-0.882,184.143,187.561,-37.17,1
4.242001,0.062,1.262,-0.948,243.225,178.039,-35.095,1
4.248982,-0.072,1.374,-0.722,307.006,167.907,-32.287,1
4.257471,-0.157,1.489,-0.476,360.961,166.076,-26.245,1
4.264371,-0.188,1.747,-0.31,361.45,166.198,-23.437,1
4.273218,-0.25,1.803,-0.099,340.27,172.302,-22.521,1
4.281466,-0.296,1.887,-0.008,303.771,178.894,-22.705,1
4.288625,-0.286,1.845,-0.065,245.849,189.147,-25.329,1
4.295702,-0.25,1.678,-0.277,193.969,196.655,-27.832,1
4.305746,-0.233,1.539,-0.523,153.137,200.561,-30.944,1
4.31268,-0.241,1.479,-0.769,132.446,201.293,-33.386,1
4.321164,-0.262,1.515,-0.931,133.239,198.242,-36.132,1
4.329865,-0.308,1.524,-1.033,144.958,193.42,-38.085,1
4.336941,-0.304,1.44,-1.083,159.301,187.988,-38.574,1
4.343921,-0.27,1.292,-1.124,173.461,180.664,-36.682,1
4.351937,-0.247,1.155,-1.125,181.335,173.889,-33.813,1
4.360173,-0.236,1.136,-1.02,192.199,167.724,-29.174,1
4.36873,-0.146,1.355,-0.829,206.298,161.987,-25.695,1
4.377015,-0.075,1.727,-0.566,228.576,157.836,-21.911,1
4.38503,-0.132,1.901,-0.425,248.352,155.09,-18.066,1
4.393771,-0.088,1.987,-0.34,264.465,153.503,-15.38,1
4.400888,-0.101,2.015,-0.33,269.958,153.381,-12.756,1
4.407886,-0.152,1.966,-0.393,259.887,153.93,-11.718,1
4.416758,-0.16,1.88,-0.418,230.407,156.738,-13.427,1
4.425456,-0.158,1.746,-0.439,185.546,162.536,-16.601,1
4.432577,-0.172,1.605,-0.482,113.586,168.518,-20.385,1
4.439342,-0.217,1.549,-0.469,50.903,172.058,-23.437,1
4.448119,-0.298,1.652,-0.416,3.967,174.133,-27.709,1
4.456171,-0.15,1.721,-0.375,-17.639,174.682,-33.447,1
4.462952,-0.068,1.842,-0.338,-18.493,171.447,-39.733,1
4.471629,-0.025,1.898,-0.313,-2.38,169.067,-44.494,1
4.480641,0.006,1.843,-0.42,18.798,163.085,-48.767,1
4.487167,0.007,1.743,-0.488,31.86,157.592,-51.33,1
4.495896,-0.021,1.658,-0.556,38.757,154.113,-54.565,1
4.502714,-0.066,1.565,-0.607,35.949,151.184,-57.983,1
4.511531,-0.07,1.469,-0.654,26.55,149.169,-60.302,1
4.519414,-0.059,1.442,-0.686,10.009,145.263,-62.561,1
4.525859,-0.056,1.45,-0.667,-1.281,141.052,-64.636,1
4.533786,-0.058,1.493,-0.628,-4.272,136.718,-67.077,1
4.542239,-0.062,1.55,-0.58,3.662,131.652,-70.678,1
4.548902,-0.057,1.557,-0.535,16.906,126.525,-72.814,1
4.557825,-0.057,1.575,-0.485,31.311,122.436,-74.34,1
4.564818,-0.077,1.587,-0.457,42.846,118.652,-75.622,1
4.572886,-0.127,1.58,-0.446,49.56,116.21,-76.843,1
4.579929,-0.175,1.551,-0.452,49.743,114.807,-77.697,1
4.588591,-0.211,1.493,-0.485,42.114,114.501,-77.941,1
4.597344,-0.208,1.461,-0.533,21.362,113.159,-78.125,1
4.603997,-0.179,1.454,-0.536,-0.61,111.938,-79.223,1
4.612292,-0.132,1.455,-0.519,-26.306,109.802,-81.42,1
4.620692,-0.088,1.419,-0.495,-49.438,108.276,-84.838,1
4.629006,-0.057,1.338,-0.47,-74.707,105.773,-88.562,1
4.637447,-0.048,1.23,-0.446,-93.2,103.82,-91.857,1
4.645751,-0.036,1.107,-0.405,-110.717,101.074,-94.543,1
4.653623,0.0,1.005,-0.392,-121.948,96.984,-95.458,1
4.660643,0.034,0.924,-0.333,-126.037,91.979,-95.703,1
4.668109,0.051,0.874,-0.286,-118.286,87.585,-95.153,1
4.676023,0.06,0.85,-0.239,-104.675,84.167,-94.299,1
4.683764,0.091,0.834,-0.212,-78.369,79.895,-92.834,1
4.692527,0.15,0.809,-0.245,-58.532,76.171,-91.735,1
4.69945,0.2,0.795,-0.285,-33.691,69.58,-89.05,1
4.707057,0.244,0.792,-0.35,-15.258,62.194,-85.815,1
4.715353,0.307,0.777,-0.396,0.305,56.213,-81.298,1
4.723908,0.384,0.865,-0.45,13.61,51.818,-77.941,1
4.729768,0.494,1.014,-0.528,23.315,47.363,-79.528,1
4.737917,0.589,1.154,-0.574,27.465,43.945,-83.74,1
4.744928,0.595,1.252,-0.621,22.399,42.358,-87.463,1
4.752866,0.602,1.315,-0.684,2.014,41.259,-90.515,1
4.759997,0.63,1.384,-0.729,-32.348,41.442,-92.773,1
4.768196,0.664,1.49,-0.749,-75.805,41.687,-95.092,1
4.776535,0.606,1.689,-0.779,-108.154,41.259,-99.06,1
4.783206,0.592,1.908,-0.9,-119.873,35.278,-106.506,1
4.791616,0.58,2.062,-0.949,-110.9,25.817,-116.027,1
4.800266,0.673,2.102,-0.998,-85.388,16.235,-125.488,1
4.807483,0.708,2.137,-1.04,-65.551,6.835,-134.155,1
4.815478,0.74,2.104,-1.018,-50.842,-0.366,-142.761,1
4.823934,0.758,2.0,-0.95,-48.706,-5.981,-150.878,1
4.830964,0.841,1.86,-0.783,-55.725,-9.704,-157.409,1
4.839847,0.825,1.877,-0.663,-63.415,-11.657,-163.085,1
4.846382,0.957,1.69,-0.625,-55.908,-17.456,-168.823,1
4.854909,0.828,1.682,-0.365,-34.973,-21.667,-172.546,1
4.863786,0.74,1.737,-0.154,8.85,-26.062,-177.124,1
4.869973,0.759,1.652,-0.034,40.039,-28.442,-182.312,1
4.87867,0.756,1.235,0.044,55.236,-26.123,-184.753,1
4.88533,0.833,0.791,-0.192,23.986,-23.62,-185.18,1
4.893171,0.714,0.75,-0.068,-5.493,-23.315,-183.776,1
4.901223,0.732,0.799,-0.17,-13.183,-19.042,-182.434,1
4.90945,0.639,0.934,-0.103,-8.483,-24.841,-182.312,1
4.91789,0.597,1.06,-0.109,16.662,-24.291,-182.128,1
4.926181,0.521,1.146,-0.12,40.893,-30.151,-183.776,1
4.934103,0.478,1.228,-0.074,61.096,-27.954,-185.241,1
4.941036,0.358,1.298,-0.114,64.086,-29.541,-188.415,1
4.948273,0.289,1.352,-0.072,62.744,-26.733,-191.101,1
4.95695,0.233,1.434,-0.1,66.223,-27.099,-196.105,1
4.96393,0.197,1.497,-0.052,77.636,-26.672,-199.768,1
4.972144,0.153,1.477,-0.071,100.341,-28.198,-204.406,1
4.980137,0.185,1.434,-0.026,129.882,-29.785,-208.312,1
4.988345,0.203,1.343,-0.014,144.897,-28.564,-210.449,1
4.994976,0.192,1.246,0.012,142.456,-26.062,-212.097,1
5.003225,0.177,1.183,0.028,131.164,-21.362,-212.829,1
5.010395,0.14,1.144,0.045,118.896,-18.432,-213.623,1
5.018645,0.108,1.085,0.06,110.534,-14.831,-214.599,1
5.027483,0.073,1.023,0.066,105.102,-12.817,-215.087,1
5.034084,0.076,0.91,0.084,101.745,-10.62,-215.576,1
5.040912,0.017,0.852,0.089,95.275,-7.934,-216.064,1
5.049092,0.11,0.631,0.088,87.707,-7.263,-212.28,1
5.057983,0.266,0.598,0.122,82.641,-4.272,-210.327,1
5.0664,0.223,0.551,0.131,79.101,-2.014,-207.641,1
5.072811,0.253,0.467,0.111,68.359,2.319,-203.308,1
5.081078,0.333,0.418,0.109,56.457,3.906,-200.5,1
5.087888,0.344,0.372,0.109,36.01,5.92,-195.922,1
5.096217,0.386,0.356,0.092,15.869,8.117,-191.101,1
5.104173,0.371,0.465,0.094,-2.868,10.07,-185.913,1
5.110753,0.402,0.441,0.055,-6.652,8.422,-184.204,1
5.119032,0.318,0.46,0.085,-3.723,9.46,-180.236,1
5.127072,0.439,0.509,0.018,4.516,7.446,-177.612,1
5.133754,0.379,0.526,0.04,19.348,7.141,-176.696,1
5.14201,0.377,0.535,0.003,33.447,7.69,-174.804,1
5.149588,0.286,0.615,-0.016,53.466,9.399,-173.583,1
5.156144,0.072,0.671,-0.067,70.068,15.747,-174.926,1
5.164027,0.19,0.564,-0.222,64.758,20.751,-178.283,1
5.171982,0.238,0.514,-0.225,33.142,30.151,-181.274,1
5.181561,0.274,0.521,-0.306,6.958,38.085,-184.326,1
5.188619,0.287,0.543,-0.349,-13.793,44.372,-188.72,1
5.196395,0.253,0.565,-0.382,-20.08,46.752,-192.993,1
5.203317,0.285,0.627,-0.381,0.732,46.447,-196.655,1
5.211653,0.341,0.6,-0.395,36.376,42.907,-200.195,1
5.220006,0.331,0.533,-0.37,71.105,41.015,-201.843,1
5.226645,0.321,0.468,-0.392,85.021,39.794,-201.66,1
5.23526,0.349,0.412,-0.354,88.134,39.978,-201.66,1
5.242424,0.277,0.361,-0.333,83.374,41.381,-201.354,1
5.251081,0.225,0.31,-0.32,72.509,42.297,-201.171,1
5.257676,0.155,0.29,-0.284,66.894,43.762,-200.866,1
5.265922,0.101,0.259,-0.266,64.941,44.311,-200.866,1
5.272984,0.039,0.205,-0.237,65.734,46.02,-201.049,1
5.281761,-0.013,0.137,-0.236,65.917,47.851,-200.744,1
5.28841,-0.09,0.072,-0.217,65.307,50.659,-200.622,1
5.297074,-0.176,0.01,-0.206,60.485,54.992,-200.378,1
5.304538,-0.298,-0.06,-0.192,47.424,60.791,-199.89,1
5.312948,-0.402,-0.115,-0.186,25.146,67.443,-199.401,1
5.320011,-0.522,-0.162,-0.157,1.892,75.256,-199.279,1
5.329582,-0.569,-0.208,-0.149,-16.845,80.383,-199.768,1
5.338115,-0.615,-0.306,-0.104,-37.536,86.975,-197.998,1
5.345051,-0.654,-0.374,-0.126,-56.762,91.369,-195.617,1
5.353322,-0.694,-0.456,-0.124,-78.979,94.665,-193.481,1
5.362145,-0.719,-0.52,-0.136,-102.966,97.656,-190.368,1
5.370488,-0.768,-0.579,-0.163,-106.811,97.473,-186.706,1
5.377486,-0.798,-0.668,-0.148,-91.125,95.458,-183.288,1
5.386312,-0.835,-0.8,-0.177,-68.969,95.092,-178.527,1
5.39323,-0.884,-1.006,-0.232,-56.152,96.313,-173.461,1
5.402051,-0.924,-1.22,-0.302,-66.955,100.463,-166.259,1
5.410835,-0.964,-1.389,-0.342,-90.209,106.689,-158.935,1
5.417539,-0.99,-1.538,-0.366,-110.595,110.229,-148.925,1
5.426296,-1.069,-1.578,-0.346,-106.445,111.694,-139.282,1
5.434411,-1.036,-1.715,-0.377,-85.388,112.609,-128.112,1
5.442258,-1.027,-1.897,-0.407,-54.321,112.792,-114.257,1
5.450804,-1.07,-2.077,-0.397,-46.325,114.379,-100.769,1
5.459771,-1.097,-2.244,-0.431,-48.706,115.783,-82.336,1
5.466231,-1.144,-2.277,-0.409,-60.668,117.919,-67.321,1
5.475994,-1.175,-2.36,-0.391,-62.866,120.361,-47.729,1
5.482568,-1.219,-2.411,-0.36,-39.916,119.567,-30.334,1
5.490883,-1.347,-2.558,-0.332,-34.423,120.117,-12.084,1
5.498969,-1.346,-2.617,-0.301,-22.033,123.657,11.779,1
5.506034,-1.435,-2.672,-0.294,-4.516,124.938,32.47,1
5.514371,-1.556,-2.709,-0.266,7.934,127.441,53.833,1
5.52276,-1.646,-2.755,-0.213,19.47,130.371,76.293,1
5.531096,-1.736,-2.744,-0.226,20.507,135.681,103.942,1
5.537704,-1.821,-2.717,-0.186,18.31,140.747,129.089,1
5.546237,-1.989,-2.705,-0.195,8.911,147.766,153.991,1
5.554619,-2.037,-2.727,-0.177,5.126,153.503,180.358,1
5.562655,-2.227,-2.661,-0.185,11.535,160.095,208.312,1
5.569589,-2.493,-2.587,-0.188,38.208,162.658,241.333,1
5.577689,-2.768,-2.628,-0.224,46.874,168.273,270.996,1
5.585721,-2.993,-2.594,-0.293,42.419,173.461,301.696,1
5.593653,-3.33,-2.472,-0.332,43.945,179.321,333.801,1
5.600667,-3.751,-2.337,-0.417,54.443,182.25,366.76,1
5.607933,-4.317,-2.279,-0.458,51.147,187.194,399.047,1
5.61622,-4.76,-2.19,-0.572,49.743,191.65,433.715,1
5.624976,-5.298,-2.035,-0.602,33.569,198.059,474.914,1
5.631963,-5.966,-1.909,-0.71,24.169,203.613,511.108,1
5.640305,-6.729,-1.81,-0.787,5.676,210.327,548.828,1
5.648605,-7.519,-1.731,-0.859,-12.939,220.52,594.909,1
5.656932,-8.6,-1.667,-0.976,-21.972,230.102,644.348,1
5.66391,-9.655,-1.593,-1.077,-18.127,237.853,689.331,1
5.673359,-10.925,-1.595,-1.218,-9.948,242.736,737.853,1
5.679893,-12.642,-1.584,-1.386,3.356,246.459,790.649,1
5.688648,-14.318,-1.53,-1.56,24.902,244.201,846.557,1
5.695066,-15.999,-1.467,-1.745,67.993,232.116,916.686,1
5.703061,-15.998,-1.395,-1.936,120.361,211.181,981.567,1
5.710946,-15.999,-1.295,-2.079,174.926,181.335,1037.231,1
5.717734,-15.999,-1.175,-2.184,259.521,131.835,1107.788,1
5.726033,-15.999,-0.89,-2.229,355.59,60.18,1178.772,1
5.732628,-15.999,-0.376,-2.114,470.52,-50.842,1254.638,1
5.740853,-15.999,0.253,-1.897,537.536,-148.01,1301.635,1
5.749802,-15.999,1.072,-1.515,617.736,-299.133,1353.088,1
5.756853,-15.999,2.077,-1.041,696.899,-447.448,1375.61,1
5.765578,-15.999,2.912,-0.373,779.479,-605.957,1376.83,1
5.772264,-15.999,3.733,0.346,858.581,-781.921,1346.801,1
5.779363,-15.999,4.334,1.362,949.645,-967.346,1283.996,1
5.788155,-15.999,4.689,2.479,1053.1,-1156.494,1185.607,1
5.796566,-15.999,4.702,3.891,1156.616,-1365.661,1014.404,1
5.803122,-15.999,4.395,4.879,1202.575,-1506.835,836.364,1
5.811184,-15.999,4.989,5.856,1307.311,-1585.021,658.386,1
5.817719,-15.999,5.186,6.053,1493.286,-1655.456,342.285,1
5.826031,-15.999,4.74,5.795,1537.475,-1662.841,52.246,1
5.834216,-15.999,4.577,5.614,1498.535,-1608.886,-233.337,1
5.841467,-15.999,4.28,5.547,1413.146,-1478.027,-488.342,1
5.849293,-15.999,3.282,5.137,1329.528,-1312.56,-698.181,1
5.857598,-15.999,1.663,3.834,1244.567,-1114.135,-852.905,1
5.864052,-15.999,1.017,3.321,1078.857,-924.987,-956.542,1
5.872967,-15.999,0.741,3.149,921.325,-741.027,-1015.319,1
5.87933,-15.999,0.463,2.511,794.86,-576.355,-1045.898,1
5.888014,-15.999,0.262,2.12,672.729,-443.237,-1059.509,1
5.894979,-15.999,0.005,1.822,514.16,-304.87,-1052.856,1
5.902799,-15.999,-0.183,1.678,390.808,-214.904,-1032.47,1
5.9109,-15.999,-0.321,1.662,312.561,-149.292,-999.389,1
5.919305,-15.999,-0.428,1.598,303.161,-97.29,-960.632,1
5.926043,-15.999,-0.486,1.666,335.998,-50.964,-917.541,1
5.934624,-15.991,-0.818,1.553,368.225,-6.225,-871.154,1
5.941328,-14.52,-1.373,1.396,334.716,42.846,-823.181,1
5.949499,-13.006,-1.87,1.229,228.698,85.144,-771.728,1
5.956382,-11.229,-2.225,1.202,122.253,113.952,-719.665,1
5.963263,-9.751,-2.363,1.147,82.397,132.873,-669.067,1
5.970289,-8.449,-2.452,1.076,108.276,141.601,-620.849,1
5.979041,-7.434,-2.517,0.963,156.86,150.451,-580.2,1
5.985916,-6.77,-2.559,0.811,213.745,159.606,-532.714,1
5.992647,-6.166,-2.577,0.709,248.291,173.461,-485.29,1
5.99967,-5.715,-2.534,0.552,260.925,187.683,-438.171,1
6.007892,-5.425,-2.307,0.499,264.221,199.645,-392.15,1
6.016123,-5.158,-2.083,0.406,265.747,210.815,-348.327,1
6.024381,-4.752,-1.947,0.311,251.342,219.543,-307.373,1
6.031661,-4.383,-1.849,0.227,213.623,230.041,-269.775,1
6.038999,-4.038,-1.732,0.145,164.916,236.755,-236.694,1
6.047819,-3.686,-1.592,0.11,118.53,242.004,-203.552,1
6.054018,-3.4,-1.5,0.103,97.656,241.821,-178.771,1
6.062314,-3.1,-1.441,0.13,93.444,240.6,-156.25,1
6.071131,-2.829,-1.409,0.143,97.351,238.342,-135.192,1
6.078149,-2.561,-1.405,0.162,104.614,236.328,-114.562,1
6.085412,-2.363,-1.423,0.165,110.29,233.764,-94.116,1
6.094154,-2.172,-1.443,0.173,113.342,231.384,-73.974,1
6.102771,-1.945,-1.479,0.141,104.858,228.82,-51.574,1
6.111273,-1.742,-1.478,0.108,89.294,226.623,-33.447,1
6.117942,-1.577,-1.417,0.084,75.378,220.947,-14.587,1
6.12577,-1.493,-1.346,0.072,76.538,214.721,0.061,1
6.134105,-1.443,-1.297,0.054,83.923,207.031,13.549,1
6.141226,-1.388,-1.284,0.055,90.515,200.073,26.184,1
6.149456,-1.291,-1.291,0.046,90.454,194.396,38.208,1
6.158342,-1.181,-1.282,0.039,87.341,187.683,51.696,1
6.165332,-1.054,-1.275,0.046,88.562,181.762,63.171,1
6.171763,-0.912,-1.253,0.025,89.538,176.269,74.157,1
6.179931,-0.78,-1.195,0.002,91.979,168.457,84.777,1
6.186826,-0.663,-1.121,-0.008,98.51,161.743,92.529,1
6.193925,-0.554,-1.082,-0.014,105.041,152.465,102.05,1
6.202206,-0.405,-1.055,-0.012,111.572,144.592,111.206,1
6.211921,-0.298,-0.999,0.0,128.662,132.934,121.032,1
6.218987,-0.206,-0.957,0.024,146.301,124.45,129.15,1
6.226721,-0.141,-0.907,0.035,156.005,116.638,136.962,1
6.233706,-0.114,-0.817,0.062,161.193,110.961,143.554,1
6.242168,-0.104,-0.717,0.068,166.87,104.003,150.024,1
6.248992,-0.079,-0.634,0.074,169.677,99.182,154.602,1
6.255976,-0.042,-0.554,0.082,167.907,94.848,158.63,1
6.26439,-0.008,-0.462,0.085,164.489,92.529,161.499,1
6.272585,0.033,-0.384,0.081,160.278,88.745,164.428,1
6.279617,0.069,-0.302,0.091,160.034,85.021,166.931,1
6.286482,0.176,-0.204,0.08,165.71,79.956,169.067,1
6.294779,0.207,-0.143,0.112,163.94,74.768,170.166,1
6.302136,0.334,-0.042,0.097,148.01,73.242,171.264,1
6.310445,0.447,0.086,0.093,133.85,70.739,170.288,1
6.317503,0.504,0.222,0.092,125.427,69.396,168.518,1
6.324147,0.585,0.361,0.092,129.028,67.016,164.733,1
6.331114,0.667,0.499,0.118,143.066,65.734,160.4,1
6.339385,0.695,0.631,0.112,158.569,64.086,154.907,1
6.346073,0.64,0.742,0.139,169.433,63.903,148.559,1
6.35482,0.605,0.842,0.148,174.865,63.72,143.005,1
6.361621,0.585,0.962,0.171,182.25,64.086,135.986,1
6.368251,0.544,1.078,0.169,189.208,64.514,127.99,1
6.376524,0.52,1.202,0.172,196.838,64.575,119.628,1
6.383012,0.518,1.339,0.146,206.665,64.697,110.839,1
6.390093,0.626,1.453,0.129,215.942,63.659,101.989,1
6.3984,0.727,1.51,0.088,213.684,64.025,94.238,1
6.406419,0.915,1.615,0.069,202.453,64.88,86.853,1
6.413321,1.07,1.766,0.063,202.331,65.063,80.017,1
6.42162,1.198,1.875,0.042,213.012,62.805,72.265,1
6.428061,1.189,2.004,0.078,231.628,62.194,66.345,1
6.436778,1.198,2.027,0.057,247.131,60.729,58.288,1
6.442973,1.147,2.046,0.104,246.215,62.805,50.598,1
6.451619,1.091,2.077,0.112,235.839,66.162,42.114,1
6.459983,1.008,2.08,0.146,217.834,69.885,34.118,1
6.467035,1.007,1.92,0.109,177.917,77.941,28.381,1
6.474158,0.957,2.074,0.083,164.123,84.35,16.296,1
6.481178,0.84,2.171,0.061,180.969,89.111,8.056,1
6.489203,0.845,2.106,-0.055,176.635,93.749,-2.685,1
6.497429,0.858,2.079,-0.086,154.602,101.928,-11.901,1
6.505735,0.671,2.036,-0.154,127.685,108.581,-19.775,1
6.512294,0.695,1.991,-0.175,101.135,116.76,-30.395,1
6.521084,0.613,1.903,-0.206,97.656,123.046,-38.879,1
6.527705,0.619,1.78,-0.258,96.252,127.441,-45.715,1
6.536064,0.567,1.683,-0.333,88.745,135.314,-52.185,1
6.544376,0.529,1.622,-0.374,68.176,139.953,-58.593,1
6.55094,0.501,1.56,-0.378,49.804,146.24,-64.208,1
6.557906,0.444,1.5,-0.42,41.809,149.108,-69.946,1
6.566744,0.377,1.436,-0.382,53.527,150.39,-75.317,1
6.573809,0.314,1.313,-0.422,81.665,150.878,-80.078,1
6.582436,0.241,1.182,-0.436,98.999,151.306,-82.885,1
6.589469,0.206,1.087,-0.451,105.834,153.93,-84.472,1
6.596534,0.185,1.028,-0.466,106.201,154.907,-85.937,1
6.604818,0.129,0.977,-0.447,104.736,158.203,-86.975,1
6.613492,0.071,0.919,-0.457,100.097,160.156,-88.623,1
6.620142,0.038,0.842,-0.427,95.764,162.719,-89.111,1
6.627036,0.023,0.75,-0.44,90.087,164.733,-89.233,1
6.63544,0.036,0.659,-0.424,84.594,166.625,-88.195,1
6.642135,0.082,0.595,-0.436,83.19,168.395,-86.608,1
6.650345,0.078,0.562,-0.449,85.083,168.945,-84.96,1
6.657413,0.03,0.538,-0.471,87.036,169.616,-82.519,1
6.665666,-0.006,0.531,-0.499,89.05,168.884,-80.261,1
6.674039,-0.047,0.521,-0.511,94.543,167.541,-77.88,1
6.680943,-0.059,0.522,-0.528,105.346,166.137,-74.646,1
6.689534,-0.089,0.53,-0.546,115.722,164.245,-71.838,1
6.696299,-0.107,0.529,-0.56,124.511,162.597,-68.725,1
6.7046,-0.132,0.538,-0.599,129.516,160.705,-65.856,1
6.713273,-0.153,0.531,-0.623,128.112,159.24,-63.049,1
6.722109,-0.154,0.552,-0.644,125.427,157.714,-59.509,1
6.730536,-0.177,0.579,-0.656,127.38,155.273,-56.701,1
6.737618,-0.182,0.607,-0.668,137.695,152.893,-53.344,1
6.745977,-0.176,0.623,-0.676,150.756,150.39,-50.415,1
6.754734,-0.147,0.616,-0.683,162.841,148.742,-47.058,1
6.761763,-0.149,0.622,-0.72,169.616,147.46,-43.09,1
6.770381,-0.155,0.629,-0.734,167.541,147.216,-39.611,1
6.778995,-0.153,0.653,-0.767,159.606,147.827,-36.193,1
6.785812,-0.17,0.677,-0.767,152.038,148.071,-33.447,1
6.792905,-0.195,0.708,-0.778,149.047,149.23,-31.066,1
6.800983,-0.234,0.739,-0.792,148.193,149.353,-29.479,1
6.809787,-0.285,0.771,-0.792,148.62,150.939,-28.015,1
6.816273,-0.307,0.788,-0.807,151.367,151.916,-27.16,1
6.824713,-0.304,0.789,-0.821,152.893,153.747,-25.939,1
6.832846,-0.291,0.785,-0.857,143.92,156.738,-24.78,1
6.840677,-0.274,0.784,-0.887,119.995,160.827,-23.864,1
6.847733,-0.252,0.784,-0.924,78.979,166.748,-23.193,1
6.856551,-0.212,0.825,-0.959,28.93,172.485,-24.108,1
6.863153,-0.17,0.893,-0.98,-11.901,177.124,-26.367,1
6.871557,-0.178,0.974,-0.988,-26.428,178.955,-30.09,1
6.879799,-0.204,1.03,-1.001,-6.347,176.879,-33.508,1
6.888071,-0.192,1.07,-1.037,38.452,171.02,-35.949,1
6.894654,-0.137,1.087,-1.074,101.257,164.184,-36.621,1
6.902955,-0.107,1.087,-1.159,132.507,159.851,-35.949,1
6.911687,-0.181,1.125,-1.506,119.262,165.405,-34.545,1
6.918773,-0.04,1.208,-1.772,47.851,152.16,-38.879,1
6.925867,-0.239,1.31,-1.458,23.864,158.386,-41.076,1
6.934596,-0.148,1.378,-1.804,31.921,155.639,-44.982,1
6.941571,-0.309,1.45,-1.801,40.466,135.925,-51.391,1
6.95032,-0.316,1.47,-1.582,92.529,138.488,-53.955,1
6.95734,-0.365,1.384,-1.697,130.615,118.835,-59.204,1
6.964451,-0.375,1.264,-1.44,165.527,117.187,-60.485,1
6.972765,-0.27,1.168,-1.527,181.64,107.971,-61.462,1
6.980953,-0.33,1.143,-1.314,175.231,108.032,-61.523,1
6.989688,-0.333,1.119,-1.307,149.475,107.604,-62.194,1
6.996455,-0.387,1.14,-1.14,129.272,107.421,-63.171,1
7.005065,-0.389,1.173,-1.088,128.54,108.337,-64.453,1
7.012242,-0.437,1.176,-0.975,142.395,102.661,-66.101,1
7.020111,-0.419,1.051,-1.028,167.236,103.942,-66.04,1
7.028406,-0.409,0.447,-1.61,181.945,100.646,-63.598,1
7.037267,-0.367,0.105,-1.713,187.438,86.608,-58.532,1
7.043679,-0.349,0.016,-1.46,211.12,84.777,-50.415,1
7.051531,-0.277,0.079,-1.319,242.858,74.096,-42.541,1
7.059473,-0.259,0.187,-1.049,271.484,72.082,-34.301,1
7.068181,-0.282,0.21,-1.014,265.319,71.228,-25.939,1
7.075129,-0.354,0.222,-0.875,233.459,72.692,-19.836,1
7.084087,-0.252,0.197,-0.834,193.603,77.27,-14.16,1
7.090756,-0.327,0.206,-0.746,156.433,79.101,-9.643,1
7.098926,-0.316,0.327,-0.686,128.479,82.885,-5.554,1
7.106083,-0.293,0.513,-0.626,111.328,82.702,-3.54,1
7.113948,-0.156,1.176,-0.619,101.623,85.388,-1.586,1
7.122345,-0.106,1.517,-0.632,98.083,82.275,-7.019,1
7.130535,-0.146,1.626,-0.556,120.239,79.162,-11.474,1
7.137638,-0.162,1.757,-0.564,136.657,76.538,-16.113,1
7.145451,-0.168,1.751,-0.591,148.925,72.875,-21.85,1
7.153716,-0.169,1.632,-0.627,158.752,70.373,-25.817,1
7.161954,-0.192,1.433,-0.676,162.292,67.81,-28.259,1
7.168733,-0.204,1.175,-0.69,153.747,66.162,-29.235,1
7.176969,-0.199,0.973,-0.738,132.446,66.711,-28.869,1
7.18578,-0.2,0.999,-0.82,108.032,66.772,-27.954,1
7.191952,-0.187,1.097,-0.877,89.843,64.147,-27.16,1
7.200292,-0.144,1.139,-0.916,82.275,61.462,-27.099,1
7.207135,-0.073,1.162,-0.968,79.04,57.739,-26.794,1
7.21511,-0.017,1.172,-0.97,78.125,52.917,-26.245,1
7.223043,0.02,1.15,-0.948,75.256,48.4,-25.268,1
7.231691,0.039,1.102,-0.924,68.054,43.701,-24.23,1
7.238768,0.068,1.069,-0.863,60.546,39.367,-23.193,1
7.246408,0.098,1.042,-0.802,51.635,35.339,-21.85,1
7.254377,0.127,1.049,-0.722,44.372,30.7,-19.775,1
7.26316,0.182,1.116,-0.67,43.334,27.099,-18.554,1
7.271181,0.232,1.131,-0.657,46.63,23.498,-18.127,1
7.278213,0.257,1.107,-0.657,51.879,19.348,-17.272,1
7.285005,0.268,1.088,-0.668,59.265,15.991,-15.93,1
7.293304,0.255,1.017,-0.722,62.011,12.023,-15.075,1
7.301476,0.289,0.99,-0.718,63.171,9.094,-13.671,1
7.309739,0.281,0.94,-0.757,53.588,6.53,-11.962,1
7.31697,0.294,0.947,-0.747,42.968,4.394,-10.681,1
7.323955,0.325,0.897,-0.739,26.977,3.112,-8.728,1
7.332689,0.292,0.936,-0.703,12.268,1.831,-7.141,1
7.339243,0.267,0.976,-0.656,0.793,0.244,-5.92,1
7.347695,0.234,1.0,-0.61,-8.3,-0.854,-5.31,1
7.354823,0.17,1.026,-0.571,-15.563,-2.929,-4.699,1
7.364426,0.118,1.046,-0.538,-17.517,-5.249,-4.638,1
7.37106,0.093,1.067,-0.509,-13.732,-7.995,-4.76,1
7.378073,0.087,1.077,-0.471,-6.042,-10.925,-5.31,1
7.386455,0.069,1.066,-0.445,1.892,-13.793,-5.676,1
7.3952,0.049,1.019,-0.419,6.896,-16.174,-5.737,1
7.402117,0.057,0.991,-0.389,7.507,-18.249,-5.615,1
7.410938,0.059,0.966,-0.371,4.943,-19.531,-5.371,1
7.417942,0.07,0.947,-0.355,-0.183,-20.69,-5.187,1
7.42634,0.08,0.911,-0.329,-5.432,-21.789,-4.577,1
7.433296,0.077,0.851,-0.288,-9.582,-22.521,-2.563,1
7.441774,0.105,0.834,-0.251,-11.23,-21.179,1.098,1
7.450402,0.158,0.849,-0.26,-10.498,-23.376,2.99,1
7.457151,0.188,0.895,-0.173,0.976,-23.742,3.784,1
7.464136,0.208,0.931,-0.167,16.052,-24.963,3.601,1
7.472171,0.166,0.942,-0.133,30.517,-26.55,2.929,1
7.480393,0.137,0.935,-0.117,41.381,-26.0,2.197,1
7.488343,0.129,0.951,-0.117,41.687,-25.756,1.586,1
7.495074,0.113,0.985,-0.109,34.423,-23.437,0.183,1
7.503837,0.093,1.003,-0.144,17.272,-20.935,-1.708,1
7.51228,0.084,1.017,-0.166,-9.46,-18.066,-3.479,1
7.519005,0.104,1.004,-0.197,-31.127,-15.38,-4.76,1
7.527355,0.098,1.002,-0.225,-47.363,-13.977,-5.31,1
7.534376,0.085,0.982,-0.229,-54.992,-13.0,-5.859,1
7.542269,0.078,0.958,-0.242,-55.419,-12.512,-5.92,1
7.549289,0.065,0.956,-0.24,-50.964,-12.512,-5.676,1
7.557144,0.04,0.979,-0.223,-44.067,-11.962,-5.432,1
7.565382,0.015,1.011,-0.213,-38.208,-10.864,-5.676,1
7.572469,0.013,1.048,-0.197,-34.057,-8.972,-6.103,1
7.580324,0.021,1.098,-0.18,-35.705,-5.187,-7.446,1
7.588207,0.018,1.127,-0.179,-43.579,-0.061,-8.911,1
7.595121,0.025,1.114,-0.199,-57.678,5.004,-10.314,1
7.60354,0.054,1.121,-0.225,-73.669,10.253,-10.986,1
7.610188,0.062,1.139,-0.277,-85.937,13.488,-11.108,1
7.61764,0.117,1.077,-0.312,-88.562,15.38,-10.986,1
7.626328,0.121,1.068,-0.358,-88.806,16.723,-11.596,1
7.633081,0.114,1.038,-0.368,-82.641,16.601,-12.023,1
7.64133,0.11,1.012,-0.384,-73.303,17.089,-11.901,1
7.649895,0.125,1.017,-0.396,-64.025,16.235,-12.084,1
7.656528,0.136,1.026,-0.395,-53.771,15.136,-11.901,1
7.663633,0.162,1.033,-0.416,-40.954,12.878,-12.39,1
7.672181,0.191,1.04,-0.431,-25.207,10.07,-13.183,1
7.680569,0.208,1.041,-0.447,-11.962,6.958,-13.916,1
7.687556,0.204,1.018,-0.456,-5.615,5.554,-14.709,1
7.696008,0.215,0.994,-0.486,-7.507,3.784,-15.075,1
7.704678,0.225,0.992,-0.519,-11.779,2.38,-15.747,1
7.712638,0.245,0.981,-0.531,-12.451,-0.305,-15.869,1
7.719709,0.261,0.983,-0.547,-8.361,-3.234,-15.624,1
7.727915,0.275,0.97,-0.56,0.061,-7.08,-14.892,1
7.736266,0.285,0.982,-0.53,11.657,-11.352,-14.526,1
7.743127,0.302,1.001,-0.508,17.883,-13.977,-14.892,1
7.751842,0.327,1.009,-0.478,14.465,-14.587,-15.258,1
7.75858,0.35,1.048,-0.47,3.417,-13.549,-16.052,1
7.766686,0.355,1.074,-0.506,-9.155,-13.549,-17.333,1
7.773939,0.346,1.089,-0.532,-17.089,-14.465,-18.432,1
7.780865,0.357,1.119,-0.566,-20.385,-16.235,-19.592,1
7.789426,0.379,1.154,-0.571,-20.69,-18.249,-20.69,1
7.796585,0.397,1.226,-0.572,-18.127,-20.08,-22.399,1
7.805207,0.402,1.264,-0.576,-17.517,-22.094,-24.475,1
7.811765,0.422,1.297,-0.566,-20.202,-23.437,-26.855,1
7.819598,0.431,1.35,-0.58,-27.16,-23.62,-29.785,1
7.826445,0.45,1.395,-0.618,-35.766,-24.353,-33.203,1
7.834519,0.492,1.449,-0.663,-41.32,-25.573,-36.926,1
7.842901,0.558,1.517,-0.714,-42.297,-28.381,-40.527,1
7.849551,0.642,1.586,-0.713,-40.222,-31.372,-45.349,1
7.857797,0.707,1.654,-0.679,-41.198,-33.02,-50.109,1
7.866557,0.741,1.769,-0.618,-47.79,-33.447,-55.847,1
7.875513,0.731,1.871,-0.564,-59.692,-32.226,-63.11,1
7.882516,0.711,1.957,-0.533,-70.19,-31.86,-69.519,1
7.891223,0.669,2.042,-0.494,-76.232,-31.738,-77.575,1
7.899713,0.653,2.108,-0.466,-72.814,-32.287,-84.35,1
7.907908,0.631,2.159,-0.447,-61.523,-33.63,-93.2,1
7.915016,0.61,2.199,-0.434,-48.706,-34.973,-100.952,1
7.923245,0.626,2.252,-0.448,-33.691,-36.193,-108.215,1
7.930419,0.659,2.3,-0.493,-18.554,-37.353,-116.577,1
7.938664,0.683,2.318,-0.521,-9.033,-38.757,-126.403,1
7.947435,0.677,2.269,-0.46,-12.573,-38.696,-134.46,1
7.954669,0.71,2.187,-0.372,-20.568,-36.621,-143.005,1
7.96273,0.687,2.133,-0.282,-27.954,-35.034,-149.658,1
7.971035,0.764,2.138,-0.218,-34.79,-31.799,-155.761,1
7.979315,0.589,2.091,-0.101,-39.733,-30.883,-164.489,1
7.987752,0.618,1.963,0.088,-36.682,-28.503,-170.898,1
7.99425,0.453,1.883,0.163,-27.648,-25.817,-176.147,1
8.002475,0.459,1.914,0.173,-5.554,-25.573,-182.006,1
8.009532,0.588,1.522,0.188,25.939,-24.597,-189.636,1
8.018247,0.682,1.083,-0.065,11.718,-19.653,-189.392,1
8.025044,0.57,1.06,-0.048,0.183,-21.362,-189.819,1
8.033206,0.619,0.994,-0.143,0.732,-14.831,-188.598,1
8.041495,0.544,1.052,-0.22,-7.812,-19.958,-190.307,1
8.04973,0.404,1.146,-0.153,-5.737,-16.235,-190.673,1
8.058217,0.347,1.242,-0.226,1.098,-20.935,-193.786,1
8.065066,0.282,1.292,-0.16,14.404,-20.08,-196.044,1
8.074684,0.278,1.339,-0.213,31.127,-23.925,-199.829,1
8.081664,0.212,1.345,-0.156,44.067,-24.78,-202.27,1
8.090366,0.204,1.321,-0.187,52.673,-25.451,-204.406,1
8.098224,0.212,1.312,-0.143,59.997,-27.954,-207.031,1
8.106679,0.218,1.301,-0.143,64.331,-27.832,-207.946,1
8.114561,0.18,1.288,-0.12,62.988,-29.296,-209.777,1
8.121252,0.097,1.253,-0.117,52.734,-27.587,-210.571,1
8.1281,0.05,1.193,-0.133,28.198,-28.32,-210.876,1
8.136291,0.023,1.178,-0.093,-2.624,-26.794,-210.876,1
8.144604,-0.069,1.161,-0.106,-34.606,-27.343,-210.449,1
8.153323,-0.13,1.11,-0.069,-64.453,-27.954,-209.045,1
8.161813,-0.126,1.136,-0.052,-72.875,-31.188,-207.641,1
8.168847,-0.249,1.172,-0.002,-37.414,-37.658,-207.458,1
8.176164,-0.064,1.151,0.071,22.827,-43.273,-207.092,1
8.184121,-0.003,1.098,0.067,104.248,-49.499,-209.228,1
8.192028,-0.036,0.995,0.057,180.908,-52.429,-209.411,1
8.200763,-0.145,0.954,0.058,246.765,-52.856,-209.35,1
8.207947,-0.157,0.893,0.067,314.819,-50.598,-208.618,1
8.214863,-0.104,0.839,0.072,360.107,-45.227,-207.641,1
8.223615,-0.198,0.994,0.011,372.985,-32.653,-203.857,1
8.230625,0.086,0.855,-0.055,361.633,-31.188,-206.787,1
8.239415,-0.113,0.766,0.095,343.933,-13.366,-202.331,1
8.246515,-0.045,0.687,-0.027,301.147,-7.446,-201.11,1
8.254007,-0.172,0.659,0.042,257.263,11.291,-200.439,1
8.262696,-0.18,0.583,-0.045,211.975,17.517,-198.791,1
8.269779,-0.146,0.563,-0.087,170.532,32.409,-198.364,1
8.277949,-0.031,0.477,-0.112,120.483,39.367,-199.035,1
8.286359,0.11,0.384,-0.141,68.542,55.725,-200.378,1
8.293376,0.248,0.335,-0.205,21.118,65.673,-201.782,1
8.302098,0.447,0.295,-0.291,-22.277,77.27,-204.04,1
8.308845,0.439,0.37,-0.308,-38.024,77.819,-206.603,1
8.317669,0.402,0.442,-0.281,-6.408,76.782,-208.312,1
8.324715,0.458,0.465,-0.258,66.284,70.007,-209.655,1
8.33175,0.486,0.389,-0.272,119.506,67.626,-209.106,1
8.340491,0.46,0.333,-0.289,165.344,64.758,-206.359,1
8.347548,0.417,0.277,-0.29,189.88,65.673,-202.697,1
8.356294,0.347,0.236,-0.307,189.636,68.786,-198.791,1
8.36302,0.303,0.198,-0.298,168.395,72.57,-195.739,1
8.370015,0.28,0.166,-0.289,133.422,77.331,-193.298,1
8.378019,0.237,0.154,-0.265,94.055,81.726,-190.917,1
8.386706,0.174,0.126,-0.247,54.687,87.158,-189.575,1
8.39379,0.101,0.107,-0.237,16.906,91.796,-188.781,1
8.402178,0.025,0.109,-0.244,-15.441,96.435,-188.598,1
8.408832,-0.034,0.104,-0.259,-42.663,100.158,-188.781,1
8.417118,-0.111,0.113,-0.271,-64.331,103.088,-189.331,1
8.425716,-0.147,0.066,-0.319,-87.463,105.834,-190.551,1
8.432749,-0.199,0.052,-0.326,-101.44,108.337,-191.589,1
8.44126,-0.22,0.046,-0.355,-108.825,109.069,-192.626,1
8.449589,-0.282,0.033,-0.37,-103.027,108.764,-193.908,1
8.457504,-0.333,0.037,-0.392,-85.815,108.032,-194.152,1
8.465807,-0.376,0.037,-0.422,-63.659,106.262,-193.908,1
8.474311,-0.497,-0.01,-0.494,-46.203,105.102,-194.213,1
8.481224,-0.597,-0.068,-0.536,-46.936,105.468,-194.274,1
8.490155,-0.657,-0.187,-0.579,-63.598,107.482,-193.664,1
8.498673,-0.702,-0.302,-0.618,-88.378,109.13,-192.565,1
8.505677,-0.698,-0.413,-0.631,-94.909,108.276,-190.856,1
8.514372,-0.739,-0.522,-0.637,-79.528,105.407,-187.866,1
8.52329,-0.861,-0.648,-0.611,-64.941,102.966,-184.448,1
8.531669,-0.777,-0.849,-0.672,-56.03,102.661,-178.527,1
8.540011,-0.888,-1.026,-0.672,-67.26,101.135,-171.813,1
8.546561,-0.982,-1.113,-0.679,-74.462,101.745,-162.658,1
8.555407,-1.044,-1.193,-0.691,-62.988,98.693,-154.846,1
8.562469,-1.074,-1.261,-0.673,-24.597,93.505,-144.287,1
8.570795,-1.104,-1.388,-0.68,10.437,89.05,-135.009,1
8.579617,-1.149,-1.631,-0.643,20.019,86.975,-123.657,1
8.586057,-1.164,-1.807,-0.596,8.605,88.378,-108.032,1
8.595322,-1.217,-1.948,-0.546,-5.859,90.942,-93.383,1
8.602107,-1.264,-2.038,-0.498,-15.624,92.224,-77.88,1
8.612006,-1.384,-2.15,-0.47,-18.493,94.299,-61.889,1
8.61973,-1.439,-2.275,-0.387,-21.24,98.571,-40.954,1
8.626475,-1.512,-2.403,-0.407,-27.77,101.074,-21.972,1
8.635904,-1.441,-2.466,-0.329,-12.512,103.332,0.549,1
8.643089,-1.502,-2.55,-0.306,2.99,103.637,21.789,1
8.651312,-1.558,-2.652,-0.262,15.197,106.14,44.494,1
8.658396,-1.63,-2.721,-0.259,16.601,110.107,72.57,1
8.666606,-1.745,-2.75,-0.242,13.183,113.647,98.022,1
8.674866,-1.843,-2.775,-0.247,10.803,117.919,123.962,1
8.683025,-1.947,-2.808,-0.248,7.202,122.619,151.123,1
8.690209,-2.126,-2.832,-0.246,-5.249,128.112,179.87,1
8.698069,-2.349,-2.773,-0.227,-14.465,134.826,209.838,1
8.70688,-2.585,-2.715,-0.208,-9.277,140.502,245.361,1
8.714726,-2.975,-2.644,-0.211,5.249,144.042,278.198,1
8.721346,-3.35,-2.584,-0.244,19.042,148.376,317.993,1
8.73116,-3.769,-2.503,-0.284,21.484,152.221,352.6,1
8.737688,-4.189,-2.429,-0.332,22.399,156.738,389.343,1
8.746566,-4.736,-2.344,-0.4,17.028,161.499,426.94,1
8.753125,-5.443,-2.291,-0.501,1.098,167.358,466.247,1
8.762007,-6.1,-2.253,-0.563,-39.306,178.039,514.465,1
8.770666,-6.894,-2.194,-0.637,-78.979,190.917,558.044,1
8.778558,-7.99,-2.175,-0.711,-110.9,205.871,604.431,1
8.785682,-9.048,-2.17,-0.84,-120.971,223.51,662.963,1
8.79393,-10.248,-2.175,-0.95,-87.646,235.351,715.759,1
8.802468,-11.703,-2.25,-1.104,-32.775,241.21,774.23,1
8.809385,-13.848,-2.286,-1.297,25.817,240.295,848.022,1
8.817913,-15.901,-2.269,-1.459,69.03,231.567,916.625,1
8.825848,-15.996,-2.133,-1.655,130.92,213.806,989.562,1
8.834192,-15.999,-1.881,-1.824,215.637,170.532,1078.247,1
8.842939,-15.999,-1.512,-1.936,312.927,111.267,1156.433,1
8.84996,-15.999,-0.928,-1.928,477.783,3.417,1245.849,1
8.858263,-15.999,-0.38,-1.816,615.844,-124.389,1315.917,1
8.86612,-15.999,0.276,-1.516,701.66,-275.207,1371.765,1
8.874512,-15.999,1.257,-1.062,750.976,-437.683,1406.188,1
8.881219,-15.999,2.192,-0.482,795.715,-644.103,1413.391,1
8.888148,-15.999,3.106,0.38,887.756,-828.308,1393.737,1
8.896038,-15.999,3.57,1.163,1021.423,-1043.579,1331.97,1
8.904128,-15.999,4.07,2.338,1139.465,-1225.158,1247.192,1
8.910925,-15.999,4.602,3.4,1278.503,-1451.904,1092.895,1
8.917783,-15.999,4.791,4.139,1397.338,-1649.78,878.051,1
8.926111,-15.999,5.378,5.11,1611.389,-1800.353,604.003,1
8.934728,-15.999,5.732,5.515,1886.047,-1895.873,238.342,1
8.941979,-15.999,5.641,5.66,1970.58,-1853.332,-181.457,1
8.950644,-15.999,4.255,4.969,1745.849,-1643.554,-627.197,1
8.957929,-15.999,2.446,4.902,1165.771,-1393.737,-866.516,1
8.966309,-15.999,1.816,4.914,561.157,-1132.019,-968.017,1
8.974055,-15.999,1.894,4.561,356.14,-997.253,-988.464,1
8.981049,-15.999,1.969,4.439,446.96,-889.526,-1003.112,1
8.98997,-15.999,1.395,3.663,651.184,-786.865,-1031.921,1
8.996932,-15.999,0.813,3.035,780.639,-664.184,-1066.467,1
9.005829,-15.999,0.157,2.518,784.24,-519.226,-1086.242,1
9.012895,-15.999,-0.445,1.935,714.538,-383.056,-1083.74,1
9.01987,-15.999,-0.849,1.742,636.413,-249.572,-1054.138,1
9.028297,-15.999,-1.152,1.384,590.026,-155.761,-1013.61,1
9.036637,-15.999,-1.395,1.164,559.692,-82.092,-963.928,1
9.045243,-15.496,-1.831,0.911,515.686,-10.253,-908.752,1
9.052214,-13.959,-2.099,0.84,424.743,54.199,-834.716,1
9.060606,-12.619,-2.403,0.766,343.2,105.468,-768.005,1
9.068649,-11.225,-2.584,0.685,283.874,143.188,-704.711,1
9.07562,-9.569,-2.763,0.566,231.14,175.17,-641.113,1
9.084022,-8.405,-2.823,0.39,188.171,201.232,-582.275,1
9.092404,-7.528,-2.746,0.283,150.024,222.473,-518.371,1
9.099011,-6.938,-2.562,0.21,142.456,235.107,-467.834,1
9.107335,-6.524,-2.412,0.108,144.653,243.591,-419.189,1
9.11535,-6.098,-2.27,0.044,129.333,250.122,-374.084,1
9.123698,-5.447,-2.178,-0.024,99.853,253.784,-326.232,1
9.13165,-4.779,-2.129,-0.049,73.852,254.943,-283.02,1
9.139925,-4.271,-2.128,-0.056,53.405,253.967,-249.145,1
9.148369,-3.758,-2.135,-0.038,28.564,253.845,-217.834,1
9.157112,-3.354,-2.125,-0.024,4.821,252.807,-184.448,1
9.163664,-3.02,-2.108,-0.012,-9.399,251.953,-157.653,1
9.171841,-2.696,-2.069,-0.006,-22.338,249.267,-129.028,1
9.180272,-2.478,-2.019,0.001,-33.264,247.436,-105.773,1
9.187995,-2.28,-1.962,-0.019,-47.546,244.873,-84.472,1
9.1948,-2.084,-1.873,-0.003,-58.593,242.37,-64.514,1
9.203952,-1.959,-1.782,-0.016,-62.194,238.769,-46.691,1
9.210506,-1.864,-1.692,-0.02,-64.025,235.229,-27.648,1
9.218555,-1.776,-1.624,-0.047,-67.443,231.811,-12.451,1
9.22685,-1.697,-1.557,-0.063,-74.157,228.515,1.403,1
9.235098,-1.623,-1.491,-0.071,-82.641,225.708,14.16,1
9.243659,-1.542,-1.41,-0.09,-87.036,221.801,26.0,1
9.250279,-1.406,-1.336,-0.106,-85.021,216.308,39.062,1
9.258784,-1.294,-1.27,-0.125,-80.383,210.998,49.56,1
9.26727,-1.179,-1.211,-0.126,-75.683,205.932,60.058,1
9.274011,-1.086,-1.13,-0.128,-70.678,200.5,70.129,1
9.282677,-1.044,-1.023,-0.123,-65.856,195.007,79.467,1
9.28977,-1.012,-0.94,-0.099,-59.509,188.354,89.355,1
9.298169,-0.959,-0.868,-0.076,-53.283,183.227,97.473,1
9.306845,-0.902,-0.805,-0.056,-48.095,178.283,105.834,1
9.313512,-0.821,-0.73,-0.023,-43.884,172.851,115.356,1
9.322352,-0.744,-0.676,0.0,-41.137,169.128,123.046,1
9.329396,-0.62,-0.619,0.008,-39.794,165.1,130.31,1
9.338262,-0.486,-0.575,0.02,-42.419,161.804,136.962,1
9.344917,-0.35,-0.51,0.013,-43.334,157.47,142.822,1
9.353602,-0.232,-0.448,0.032,-38.085,152.343,148.376,1
9.360683,-0.124,-0.392,0.03,-25.207,145.812,153.747,1
9.367769,-0.038,-0.344,0.054,-8.422,139.099,158.081,1
9.376346,0.054,-0.3,0.066,10.803,133.056,162.78,1
9.383934,0.104,-0.255,0.074,27.099,127.075,166.809,1
9.390517,0.225,-0.217,0.085,39.611,123.413,170.349,1
9.399285,0.219,-0.205,0.054,39.428,118.53,174.011,1
9.404863,0.239,-0.142,0.074,35.827,116.333,177.185,1
9.414461,0.248,-0.081,0.051,30.7,113.769,179.443,1
9.421721,0.198,-0.016,0.062,22.521,111.267,181.213,1
9.427772,0.156,0.033,0.041,17.761,109.619,182.617,1
9.436049,0.136,0.07,0.041,14.587,107.055,183.471,1
9.442161,0.103,0.125,0.019,19.226,104.675,184.753,1
9.451017,0.192,0.198,-0.034,42.724,102.05,184.692,1
9.459749,0.181,0.165,-0.055,69.458,94.787,186.096,1
9.466985,0.271,0.163,-0.14,97.839,88.745,188.537,1
9.475324,0.286,0.169,-0.177,117.004,81.848,191.65,1
9.482519,0.383,0.213,-0.218,132.568,75.5,194.702,1
9.48925,0.412,0.251,-0.22,146.606,68.786,197.875,1
9.497706,0.463,0.278,-0.236,159.545,62.805,200.744,1
9.504161,0.476,0.29,-0.235,165.71,58.105,203.674,1
9.512944,0.471,0.308,-0.235,165.954,54.321,206.359,1
9.519106,0.458,0.312,-0.234,156.86,52.001,208.923,1
9.527794,0.427,0.333,-0.248,143.493,51.452,210.998,1
9.534318,0.412,0.349,-0.251,118.469,49.621,213.256,1
9.542641,0.391,0.384,-0.25,99.853,50.048,215.148,1
9.54976,0.381,0.427,-0.255,88.256,48.767,216.369,1
9.556712,0.356,0.489,-0.239,82.397,47.668,217.712,1
9.566544,0.337,0.55,-0.251,84.96,46.508,218.2,1
9.573595,0.293,0.604,-0.237,94.787,44.433,218.261,1
9.580583,0.255,0.648,-0.238,103.271,42.785,218.078,1
9.587667,0.211,0.678,-0.241,107.299,40.954,217.59,1
9.595573,0.19,0.701,-0.249,105.957,40.466,217.224,1
9.603736,0.172,0.725,-0.25,100.341,39.367,216.796,1
9.610854,0.148,0.766,-0.25,91.918,39.245,216.247,1
9.61929,0.119,0.818,-0.262,81.909,38.696,215.881,1
9.626514,0.124,0.871,-0.259,71.044,39.123,214.233,1
9.633548,0.037,0.865,-0.266,50.17,40.039,213.989,1
9.640509,0.025,0.932,-0.279,31.677,41.992,212.768,1
9.649184,0.015,0.997,-0.271,24.353,41.809,210.449,1
9.656342,0.006,1.054,-0.254,30.822,41.992,208.679,1
9.664944,0.009,1.104,-0.271,45.715,40.1,206.481,1
9.671919,-0.015,1.125,-0.272,61.889,37.841,203.735,1
9.680676,-0.034,1.173,-0.292,70.129,36.437,201.843,1
9.689215,-0.072,1.201,-0.304,65.734,34.851,198.791,1
9.696178,-0.092,1.23,-0.328,50.781,34.973,195.983,1
9.703107,-0.106,1.282,-0.317,28.747,34.973,193.603,1
9.710137,-0.125,1.326,-0.294,7.263,36.926,190.734,1
9.717977,-0.147,1.373,-0.285,-8.422,38.635,187.866,1
9.725862,-0.164,1.438,-0.27,-14.892,40.039,184.387,1
9.73283,-0.169,1.521,-0.267,-9.643,40.649,180.908,1
9.741244,-0.216,1.629,-0.271,5.31,38.757,177.368,1
9.748046,-0.284,1.718,-0.273,33.691,35.278,172.241,1
9.754461,-0.375,1.803,-0.273,65.856,30.029,167.114,1
9.762812,-0.414,1.825,-0.26,94.604,23.986,162.597,1
9.77119,-0.458,1.801,-0.243,101.623,19.531,158.081,1
9.777861,-0.508,1.772,-0.209,89.904,16.906,154.479,1
9.785618,-0.457,1.755,-0.166,70.434,15.563,151.855,1
9.7926,-0.376,1.737,-0.145,51.269,15.014,149.475,1
9.800969,-0.238,1.75,-0.132,39.733,14.587,147.583,1
9.807855,-0.35,1.803,-0.119,23.437,13.305,145.751,1
9.816694,-0.266,1.839,-0.121,22.216,10.192,144.042,1
9.823806,-0.32,1.852,-0.087,30.273,6.835,142.7,1
9.832488,-0.344,1.812,-0.097,35.461,3.723,142.211,1
9.839091,-0.37,1.761,-0.052,31.066,0.976,141.479,1
9.846695,-0.367,1.727,-0.035,22.216,1.342,141.784,1
9.853488,-0.388,1.713,-0.024,14.648,-0.305,141.235,1
9.862013,-0.387,1.698,0.011,15.747,0.183,140.808,1
9.869928,-0.394,1.688,0.004,18.432,-0.854,139.16,1
9.876873,-0.409,1.674,0.007,15.93,-0.793,137.023,1
9.883646,-0.402,1.657,-0.006,7.141,0.183,134.155,1
9.892665,-0.395,1.658,-0.018,-5.615,1.525,130.065,1
9.898983,-0.369,1.645,-0.024,-15.686,3.295,125.549,1
9.905872,-0.355,1.624,-0.027,-21.606,4.821,120.666,1
9.913895,-0.323,1.578,-0.032,-23.01,6.286,116.149,1
9.922013,-0.294,1.527,-0.029,-21.362,7.629,111.755,1
9.928629,-0.259,1.463,-0.022,-16.601,9.155,108.154,1
9.935824,-0.238,1.394,-0.019,-12.756,10.803,105.102,1
9.943778,-0.214,1.341,-0.021,-9.216,12.451,102.172,1
9.952012,-0.204,1.31,-0.02,-6.042,14.587,99.731,1
9.95909,-0.221,1.27,-0.021,-5.126,16.845,97.778,1
9.967394,-0.24,1.244,-0.02,-7.995,19.958,95.886,1
9.974108,-0.268,1.242,-0.028,-15.624,23.62,94.421,1
9.982302,-0.287,1.242,-0.029,-23.437,27.282,92.834,1
9.991102,-0.308,1.234,-0.037,-31.921,31.005,91.674,1
9.998257,-0.34,1.216,-0.048,-43.395,35.278,90.393,1
