timestamp_s,ax,ay,az,gx,gy,gz,label
0.004352,0.111,1.016,-0.021,-3.234,17.211,-0.366,1
0.0135,0.112,1.016,-0.024,-3.967,17.333,-0.671,1
0.020601,0.112,1.015,-0.024,-4.577,17.456,-0.793,1
0.027835,0.111,1.01,-0.025,-5.676,17.639,-1.037,1
0.035594,0.112,1.009,-0.028,-6.652,17.456,-1.159,1
0.04327,0.11,1.005,-0.028,-7.995,17.578,-1.281,1
0.050489,0.107,1.0,-0.031,-8.422,17.395,-1.098,1
0.058589,0.11,0.995,-0.035,-7.08,16.967,-1.525,1
0.065517,0.113,0.998,-0.04,-5.126,16.54,-1.22,1
0.073371,0.108,0.991,-0.039,-2.38,15.93,-1.098,1
0.08165,0.11,0.99,-0.04,-0.183,15.93,-1.037,1
0.089946,0.107,0.988,-0.036,0.976,15.686,-1.037,1
0.098057,0.105,0.989,-0.029,1.159,15.441,-1.098,1
0.105305,0.107,0.993,-0.029,0.732,15.808,-1.037,1
0.112475,0.105,0.986,-0.034,-0.122,15.808,-0.854,1
0.12142,0.105,0.985,-0.03,-0.305,15.686,-0.549,1
0.128491,0.109,0.986,-0.031,0.0,15.686,-0.366,1
0.136088,0.107,0.988,-0.029,0.122,15.686,-0.427,1
0.144143,0.105,0.988,-0.028,0.61,15.686,-0.183,1
0.151671,0.099,0.988,-0.023,-0.122,15.808,-0.244,1
0.159501,0.098,0.994,-0.021,-0.854,15.808,-0.244,1
0.169317,0.103,0.994,-0.016,-1.464,16.113,-0.061,1
0.177266,0.103,1.001,-0.015,-2.197,16.113,-0.122,1
0.184549,0.1,0.997,-0.017,-2.746,15.93,0.0,1
0.192832,0.099,0.989,-0.018,-2.746,15.747,0.122,1
0.199831,0.105,0.988,-0.021,-1.953,15.624,0.122,1
0.209174,0.104,0.985,-0.024,-0.915,15.747,0.305,1
0.217034,0.107,0.991,-0.021,1.098,15.197,0.427,1
0.22356,0.106,0.988,-0.02,2.868,15.075,0.549,1
0.231372,0.106,0.988,-0.02,3.479,14.953,0.671,1
0.241113,0.108,0.976,-0.024,2.868,14.953,0.854,1
0.248099,0.109,0.983,-0.022,1.953,14.831,0.915,1
0.256088,0.109,0.987,-0.015,1.77,14.831,1.159,1
0.264103,0.104,0.993,-0.018,1.77,14.587,1.098,1
0.272145,0.105,0.992,-0.018,1.525,15.014,0.976,1
0.279328,0.105,0.996,-0.015,1.403,15.014,0.915,1
0.286733,0.102,0.995,-0.018,0.976,15.136,1.098,1
0.296389,0.1,1.0,-0.016,0.427,14.953,0.915,1
0.30317,0.098,1.009,-0.021,0.793,15.075,0.61,1
0.310671,0.099,1.005,-0.021,1.831,14.709,0.732,1
0.318149,0.103,1.003,-0.028,2.99,14.526,0.549,1
0.326594,0.108,1.0,-0.026,4.15,14.404,0.183,1
0.332731,0.104,1.001,-0.031,5.371,14.16,0.427,1
0.34026,0.104,0.997,-0.041,5.493,14.038,0.122,1
0.348469,0.11,0.994,-0.045,5.859,13.916,0.0,1
0.356165,0.114,0.994,-0.047,5.065,13.916,-0.244,1
0.363793,0.116,1.0,-0.051,4.455,13.671,-0.305,1
0.372875,0.118,1.003,-0.051,3.051,13.854,-0.671,1
0.380393,0.124,1.007,-0.055,1.281,13.793,-0.732,1
0.38953,0.127,1.011,-0.058,-0.305,13.732,-0.854,1
0.396245,0.13,1.011,-0.066,-1.831,13.549,-0.793,1
0.403726,0.131,1.017,-0.07,-3.295,13.305,-0.915,1
0.412942,0.133,1.018,-0.071,-4.699,13.061,-1.098,1
0.420718,0.141,1.019,-0.081,-6.225,12.878,-1.159,1
0.43031,0.146,1.016,-0.088,-7.69,12.817,-1.22,1
0.438564,0.158,1.017,-0.089,-8.239,12.573,-1.342,1
0.445756,0.163,1.019,-0.092,-8.85,11.962,-1.525,1
0.457412,0.163,1.027,-0.093,-9.338,11.291,-1.831,1
0.464317,0.161,1.03,-0.094,-10.131,10.559,-2.441,1
0.472877,0.158,1.036,-0.093,-11.108,10.253,-3.234,1
0.480182,0.151,1.04,-0.097,-12.817,9.765,-3.601,1
0.488972,0.138,1.039,-0.099,-14.709,9.521,-4.272,1
0.496549,0.129,1.037,-0.1,-15.991,8.85,-4.577,1
0.504512,0.135,1.043,-0.104,-17.028,8.422,-5.554,1
0.51154,0.138,1.043,-0.101,-17.578,8.178,-5.981,1
0.519318,0.134,1.041,-0.104,-18.31,7.568,-6.53,1
0.527703,0.135,1.045,-0.11,-19.042,7.324,-6.958,1
0.535872,0.146,1.043,-0.115,-20.019,6.713,-7.507,1
0.544123,0.145,1.055,-0.115,-21.423,6.286,-8.544,1
0.551279,0.141,1.068,-0.122,-22.705,6.042,-9.948,1
0.561588,0.136,1.074,-0.123,-23.254,5.798,-10.925,1
0.568524,0.137,1.073,-0.131,-22.583,5.432,-12.39,1
0.577401,0.22,1.053,-0.143,-19.714,5.004,-14.221,1
0.584476,0.206,1.079,-0.144,-18.005,4.394,-16.235,1
0.593234,0.175,1.121,-0.137,-15.808,4.821,-18.31,1
0.600118,0.167,1.122,-0.163,-15.075,3.906,-19.958,1
0.609286,0.212,1.104,-0.175,-13.793,3.845,-21.728,1
0.618063,0.251,1.084,-0.197,-12.695,2.807,-23.315,1
0.624559,0.253,1.061,-0.214,-11.962,1.831,-24.047,1
0.63201,0.237,1.05,-0.219,-13.549,0.549,-25.207,1
0.641321,0.229,1.054,-0.22,-15.624,-0.244,-25.878,1
0.648561,0.2,1.07,-0.228,-18.249,-1.098,-26.55,1
0.655861,0.167,1.078,-0.234,-19.409,-2.319,-26.245,1
0.664866,0.139,1.08,-0.244,-17.883,-3.845,-25.451,1
0.673324,0.138,1.066,-0.263,-14.16,-5.249,-24.475,1
0.681384,0.156,1.06,-0.25,-7.324,-6.958,-23.864,1
0.688778,0.192,1.077,-0.237,0.61,-8.85,-23.925,1
0.696899,0.245,1.123,-0.162,12.329,-10.498,-24.841,1
0.704616,0.286,1.192,-0.126,23.986,-11.108,-26.306,1
0.713084,0.315,1.237,-0.134,34.118,-11.962,-28.747,1
0.721196,0.355,1.256,-0.203,39.184,-12.268,-31.738,1
0.729775,0.354,1.277,-0.197,41.381,-14.099,-34.301,1
0.737067,0.326,1.273,-0.23,40.527,-13.732,-36.926,1
0.745208,0.308,1.245,-0.293,33.142,-14.831,-39.001,1
0.754233,0.289,1.206,-0.374,20.141,-13.793,-40.588,1
0.762539,0.283,1.173,-0.468,4.516,-15.014,-41.748,1
0.769665,0.279,1.137,-0.566,-14.221,-15.747,-42.114,1
0.778436,0.282,1.117,-0.607,-40.1,-18.127,-41.809,1
0.787049,0.286,1.116,-0.606,-60.302,-20.202,-41.381,1
0.794245,0.279,1.129,-0.571,-78.613,-23.925,-40.588,1
0.803406,0.271,1.149,-0.505,-83.801,-26.977,-39.733,1
0.809892,0.309,1.202,-0.417,-90.026,-30.7,-41.32,1
0.818174,0.323,1.236,-0.34,-93.627,-32.348,-42.785,1
0.826286,0.31,1.228,-0.268,-98.205,-34.912,-44.311,1
0.835021,0.302,1.188,-0.221,-102.661,-36.376,-45.837,1
0.843911,0.288,1.146,-0.184,-105.773,-37.475,-46.936,1
0.852558,0.283,1.118,-0.163,-106.811,-38.452,-47.912,1
0.859898,0.269,1.075,-0.138,-103.881,-39.794,-48.645,1
0.870689,0.257,1.051,-0.125,-98.205,-40.405,-49.194,1
0.877681,0.259,1.017,-0.107,-92.346,-40.649,-49.377,1
0.885406,0.245,0.99,-0.09,-88.378,-40.283,-49.377,1
0.893875,0.227,0.96,-0.071,-85.571,-39.245,-49.316,1
0.90312,0.219,0.943,-0.057,-84.35,-38.146,-49.316,1
0.91114,0.218,0.951,-0.036,-84.228,-36.071,-49.621,1
0.918828,0.225,0.954,-0.02,-82.458,-33.813,-50.17,1
0.92939,0.238,0.963,-0.013,-80.261,-32.226,-50.72,1
0.937516,0.268,0.964,-0.016,-78.186,-30.151,-51.269,1
0.945854,0.289,0.953,-0.034,-76.782,-28.137,-51.513,1
0.953286,0.299,0.945,-0.055,-75.744,-26.794,-51.879,1
0.962998,0.34,0.929,-0.08,-75.805,-25.878,-51.94,1
0.970824,0.442,0.901,-0.103,-80.383,-24.108,-51.33,1
0.978145,0.413,0.885,-0.12,-85.021,-23.071,-51.269,1
0.987105,0.45,0.863,-0.15,-88.562,-22.705,-51.269,1
0.994623,0.441,0.844,-0.173,-89.599,-22.949,-50.537,1
1.003254,0.492,0.807,-0.187,-90.087,-22.521,-49.682,1
1.011207,0.528,0.79,-0.18,-88.439,-21.911,-49.56,1
1.019107,0.498,0.795,-0.173,-83.862,-22.155,-48.583,1
1.02617,0.468,0.782,-0.144,-75.5,-22.888,-47.729,1
1.036032,0.428,0.777,-0.149,-63.659,-23.132,-46.081,1
1.043018,0.44,0.737,-0.12,-51.086,-23.071,-44.25,1
1.051934,0.448,0.713,-0.18,-40.893,-22.766,-42.175,1
1.059903,0.436,0.688,-0.137,-34.118,-21.545,-39.672,1
1.068184,0.458,0.639,-0.136,-35.644,-20.629,-36.56,1
1.074844,0.471,0.662,-0.136,-37.475,-18.188,-34.179,1
1.083125,0.504,0.71,-0.089,-39.306,-15.869,-32.287,1
1.09064,0.581,0.7,-0.137,-39.428,-13.427,-31.066,1
1.098737,0.648,0.645,-0.185,-42.541,-12.451,-30.334,1
1.10689,0.64,0.646,-0.21,-45.715,-11.047,-28.869,1
1.115774,0.643,0.61,-0.223,-48.339,-10.009,-27.099,1
1.122766,0.631,0.645,-0.238,-47.485,-7.873,-23.376,1
1.131526,0.64,0.697,-0.233,-41.198,-5.554,-20.568,1
1.138613,0.651,0.759,-0.293,-31.127,-3.356,-18.493,1
1.146911,0.619,0.812,-0.33,-21.911,-3.356,-17.272,1
1.153922,0.616,0.851,-0.368,-12.145,-3.723,-16.662,1
1.162595,0.56,0.892,-0.409,-3.112,-5.676,-17.272,1
1.169726,0.595,0.991,-0.343,10.986,-8.666,-18.92,1
1.178302,0.653,1.041,-0.41,32.958,-9.643,-21.789,1
1.186358,0.632,1.078,-0.523,40.649,-14.282,-24.78,1
1.194256,0.66,1.146,-0.482,50.231,-15.441,-27.587,1
1.201037,0.619,1.193,-0.593,50.292,-17.578,-30.944,1
1.209162,0.634,1.211,-0.607,48.034,-19.836,-34.24,1
1.216969,0.649,1.253,-0.683,42.236,-21.301,-38.574,1
1.22505,0.667,1.27,-0.726,34.912,-22.949,-42.236,1
1.233835,0.735,1.31,-0.755,26.123,-25.146,-46.63,1
1.240412,0.761,1.314,-0.708,16.052,-26.245,-51.147,1
1.248262,0.782,1.303,-0.666,-0.61,-26.916,-55.236,1
1.255322,0.784,1.301,-0.594,-15.808,-26.794,-59.814,1
1.263751,0.774,1.284,-0.573,-22.277,-27.404,-63.964,1
1.270925,0.762,1.279,-0.516,-21.179,-29.296,-66.711,1
1.279064,0.741,1.291,-0.45,6.591,-32.226,-71.96,1
1.286054,0.683,1.246,-0.395,39.489,-35.095,-75.744,1
1.294479,0.678,1.164,-0.35,73.547,-37.902,-80.078,1
1.301522,0.685,1.066,-0.3,90.087,-38.757,-83.007,1
1.309069,0.656,0.97,-0.262,98.144,-38.208,-85.937,1
1.31752,0.629,0.909,-0.219,91.552,-35.766,-88.623,1
1.325192,0.64,0.844,-0.19,75.866,-32.348,-90.698,1
1.333535,0.662,0.781,-0.191,52.246,-28.564,-92.224,1
1.339886,0.687,0.738,-0.191,25.451,-25.329,-93.383,1
1.347781,0.691,0.712,-0.176,6.042,-22.521,-94.36,1
1.35613,0.721,0.706,-0.17,-2.014,-21.423,-94.97,1
1.36275,0.76,0.693,-0.17,-1.831,-20.874,-95.458,1
1.371161,0.826,0.689,-0.166,1.647,-21.301,-95.214,1
1.379648,0.884,0.689,-0.142,16.052,-21.789,-95.825,1
1.38636,0.9,0.677,-0.137,27.221,-21.85,-95.703,1
1.395818,0.898,0.606,-0.149,19.714,-21.179,-93.811,1
1.402194,0.982,0.622,-0.126,13.977,-20.385,-93.688,1
1.410236,0.987,0.664,-0.093,21.484,-19.836,-95.397,1
1.419652,0.897,0.653,-0.097,26.245,-18.615,-94.909,1
1.425463,0.917,0.651,-0.104,26.733,-17.761,-94.482,1
1.434032,0.951,0.558,-0.115,3.479,-16.357,-90.148,1
1.442796,1.019,0.599,-0.088,-9.887,-14.282,-90.454,1
1.451175,0.957,0.601,-0.071,-20.141,-13.488,-89.782,1
1.457697,0.882,0.543,-0.098,-28.259,-11.169,-87.89,1
1.465814,0.852,0.561,-0.065,-40.405,-9.399,-86.12,1
1.475269,0.817,0.554,-0.08,-52.795,-7.934,-84.533,1
1.482751,0.729,0.561,-0.062,-59.57,-5.92,-83.862,1
1.491386,0.685,0.584,-0.068,-66.101,-4.76,-82.641,1
1.498539,0.63,0.591,-0.06,-67.81,-3.173,-81.848,1
1.507482,0.586,0.623,-0.073,-64.208,-2.441,-81.909,1
1.516247,0.543,0.637,-0.073,-53.71,-1.831,-82.763,1
1.523869,0.503,0.662,-0.085,-30.212,-2.075,-84.716,1
1.532157,0.451,0.648,-0.096,-15.441,-2.136,-85.327,1
1.539873,0.47,0.632,-0.105,-5.554,-2.014,-85.327,1
1.549926,0.536,0.598,-0.138,-5.126,0.61,-85.693,1
1.556372,0.484,0.572,-0.131,-26.672,3.845,-86.608,1
1.564687,0.536,0.571,-0.182,-50.048,6.408,-86.181,1
1.572253,0.506,0.579,-0.189,-71.166,10.681,-86.608,1
1.581955,0.566,0.55,-0.226,-91.857,12.878,-87.341,1
1.58919,0.577,0.562,-0.231,-111.633,13.916,-87.89,1
1.597618,0.585,0.597,-0.249,-112.976,13.732,-89.05,1
1.605538,0.562,0.613,-0.256,-103.088,12.756,-90.332,1
1.614595,0.525,0.63,-0.301,-92.59,12.145,-92.041,1
1.62122,0.474,0.615,-0.355,-79.589,12.023,-94.909,1
1.629732,0.596,0.581,-0.375,-80.139,11.169,-96.13,1
1.636561,0.676,0.575,-0.384,-80.139,12.268,-98.144,1
1.644716,0.721,0.577,-0.412,-77.392,9.643,-100.036,1
1.653947,0.8,0.571,-0.409,-70.922,9.643,-101.074,1
1.660209,0.832,0.562,-0.411,-64.636,7.202,-102.6,1
1.668715,0.764,0.556,-0.393,-59.326,5.737,-104.37,1
1.677245,0.751,0.539,-0.374,-55.908,2.685,-106.201,1
1.68465,0.688,0.524,-0.339,-47.79,0.122,-107.36,1
1.693494,0.739,0.473,-0.303,-36.193,-3.479,-108.337,1
1.70009,0.73,0.413,-0.274,-28.93,-6.347,-108.276,1
1.708403,0.729,0.367,-0.233,-20.935,-8.117,-107.91,1
1.716567,0.753,0.336,-0.202,-8.789,-11.352,-109.191,1
1.723692,0.683,0.311,-0.164,6.958,-12.878,-110.351,1
1.733514,0.64,0.261,-0.147,24.963,-14.038,-110.534,1
1.740088,0.637,0.21,-0.113,43.029,-13.732,-111.145,1
1.749314,0.604,0.15,-0.099,59.448,-12.023,-113.159,1
1.756532,0.5,0.099,-0.074,66.955,-9.033,-115.356,1
1.764843,0.362,0.038,-0.044,64.025,-5.493,-117.126,1
1.772435,0.254,-0.003,0.003,50.231,-0.061,-118.53,1
1.781343,0.187,-0.034,0.037,34.667,4.882,-119.995,1
1.787681,0.161,-0.075,0.083,18.554,10.07,-121.276,1
1.795801,0.117,-0.12,0.136,6.408,15.136,-122.436,1
1.803458,0.095,-0.153,0.174,1.342,19.409,-122.985,1
1.811841,0.041,-0.195,0.219,0.122,24.475,-123.168,1
1.820566,-0.02,-0.236,0.258,3.967,28.747,-122.619,1
1.826878,-0.071,-0.283,0.303,12.268,33.02,-120.727,1
1.835514,-0.123,-0.354,0.318,21.24,37.353,-118.225,1
1.843405,-0.151,-0.409,0.362,30.7,44.189,-114.44,1
1.851809,-0.201,-0.475,0.376,43.701,50.109,-108.398,1
1.85982,-0.213,-0.536,0.432,62.316,58.105,-102.294,1
1.86674,-0.236,-0.611,0.412,79.406,64.147,-96.008,1
1.874151,-0.31,-0.706,0.43,90.942,75.012,-86.914,1
1.883111,-0.385,-0.769,0.392,90.637,82.885,-78.308,1
1.891288,-0.419,-0.816,0.372,87.158,92.529,-69.213,1
1.898279,-0.432,-0.883,0.332,78.979,100.952,-60.058,1
1.906531,-0.452,-0.954,0.27,56.335,113.464,-48.828,1
1.914431,-0.43,-1.016,0.213,24.963,122.68,-38.757,1
1.922262,-0.405,-1.058,0.159,-6.591,133.117,-28.381,1
1.931041,-0.446,-1.064,0.126,-39.978,141.723,-16.357,1
1.939109,-0.585,-1.017,0.108,-57.739,149.719,-3.601,1
1.947899,-0.663,-0.971,0.112,-50.354,154.724,7.019,1
1.956407,-0.806,-0.931,0.105,-36.865,159.118,19.287,1
1.965117,-0.744,-0.994,0.067,-8.666,163.574,33.386,1
1.972388,-0.876,-1.041,0.039,-2.624,167.297,46.447,1
1.98023,-0.935,-1.074,-0.034,-6.896,174.316,63.415,1
1.989181,-1.088,-1.044,-0.032,-14.404,181.091,77.148,1
1.996643,-1.272,-0.937,-0.09,-17.639,187.072,92.529,1
2.005302,-1.546,-0.871,-0.107,-8.666,192.138,106.018,1
2.014784,-1.735,-0.841,-0.169,10.986,196.35,121.887,1
2.022343,-1.896,-0.84,-0.196,29.663,201.049,140.075,1
2.030083,-1.962,-0.866,-0.278,45.715,204.711,159.912,1
2.037737,-2.023,-0.861,-0.32,62.622,208.618,178.588,1
2.046633,-2.075,-0.871,-0.358,81.726,210.51,199.523,1
2.056232,-2.248,-0.823,-0.424,123.84,212.768,228.027,1
2.065277,-2.265,-0.876,-0.529,180.419,208.984,261.413,1
2.073907,-2.458,-0.961,-0.649,239.746,203.613,298.706,1
2.081226,-2.669,-1.046,-0.752,287.475,193.908,340.026,1
2.089818,-2.894,-1.171,-0.845,308.959,184.204,379.516,1
2.098754,-3.239,-1.276,-0.893,304.26,172.058,427.246,1
2.10779,-3.706,-1.214,-0.975,298.584,152.648,473.205,1
2.116918,-4.331,-1.141,-1.07,319.03,132.812,519.775,1
2.124148,-4.851,-1.039,-1.094,356.994,102.966,564.758,1
2.132007,-5.501,-0.945,-1.171,388.366,72.143,603.393,1
2.141243,-6.028,-0.818,-1.191,428.039,27.221,646.423,1
2.149072,-6.544,-0.703,-1.198,457.58,-16.296,680.602,1
2.157833,-7.324,-0.597,-1.2,475.83,-72.814,718.139,1
2.16702,-8.272,-0.407,-1.199,495.056,-135.498,752.258,1
2.17579,-9.168,-0.224,-1.18,517.517,-192.504,775.573,1
2.18299,-10.084,-0.052,-1.088,543.151,-263.183,796.386,1
2.190155,-10.937,0.017,-1.012,542.175,-330.444,807.25,1
2.199371,-11.877,0.323,-0.931,570.373,-407.531,811.889,1
2.206476,-12.648,0.625,-0.732,616.455,-479.064,806.396,1
2.214853,-13.724,0.893,-0.593,661.437,-553.405,789.367,1
2.2235,-14.58,1.081,-0.303,661.193,-632.385,760.314,1
2.230523,-15.073,1.299,-0.046,621.459,-691.65,729.736,1
2.239174,-15.696,1.598,0.416,584.411,-748.779,693.237,1
2.246,-15.999,1.954,0.807,593.627,-797.668,654.174,1
2.25372,-15.999,2.243,1.299,632.934,-845.947,604.248,1
2.263176,-15.999,2.196,1.742,664.123,-891.052,544.86,1
2.270812,-15.848,1.963,2.095,689.269,-913.635,471.862,1
2.278991,-15.137,2.12,2.185,702.636,-930.969,377.258,1
2.286315,-14.394,2.375,2.364,714.172,-922.973,271.362,1
2.295519,-13.359,2.585,2.413,734.558,-906.433,177.551,1
2.30264,-12.496,2.691,2.528,788.818,-892.272,85.51,1
2.311522,-11.112,2.501,2.427,904.418,-865.417,-27.587,1
2.319175,-9.969,1.991,2.212,981.75,-832.702,-125.854,1
2.328033,-9.07,1.324,1.799,987.915,-771.057,-231.323,1
2.335617,-8.54,0.943,1.508,929.199,-710.021,-306.884,1
2.343729,-7.823,0.669,1.24,817.81,-630.798,-376.281,1
2.351611,-7.22,0.495,1.129,693.969,-564.758,-418.823,1
2.360526,-6.625,0.375,0.995,568.725,-501.953,-447.814,1
2.367814,-6.128,0.292,0.87,434.265,-438.598,-465.759,1
2.376484,-5.75,0.257,0.82,340.393,-390.991,-471.557,1
2.385675,-5.485,0.269,0.866,272.827,-352.6,-472.412,1
2.392013,-5.244,0.295,0.921,226.196,-313.598,-471.679,1
2.401367,-5.052,0.295,1.062,200.622,-285.705,-470.153,1
2.408064,-5.055,0.298,1.02,199.951,-254.577,-467.712,1
2.417047,-5.001,0.269,1.069,199.035,-233.398,-464.721,1
2.426098,-4.798,0.238,1.083,208.618,-208.862,-460.388,1
2.433105,-4.543,0.215,1.075,234.191,-185.729,-454.345,1
2.43977,-4.245,0.115,1.045,267.334,-162.353,-447.204,1
2.448283,-3.884,-0.034,1.026,288.024,-139.282,-438.964,1
2.457065,-3.421,-0.237,0.971,285.888,-108.276,-426.574,1
2.465994,-3.061,-0.376,0.958,262.329,-84.289,-414.611,1
2.472964,-2.769,-0.496,0.944,225.708,-61.279,-400.817,1
2.480068,-2.458,-0.631,0.942,176.269,-37.536,-384.155,1
2.488729,-2.198,-0.722,0.952,134.521,-18.493,-369.079,1
2.497279,-1.95,-0.764,0.966,100.585,-3.356,-353.759,1
2.504036,-1.753,-0.776,0.994,81.237,10.253,-338.012,1
2.511696,-1.602,-0.766,1.008,76.782,21.85,-319.641,1
2.521314,-1.466,-0.747,1.047,90.393,32.958,-303.894,1
2.528835,-1.337,-0.899,1.008,108.947,41.992,-283.569,1
2.535611,-1.204,-0.903,1.015,129.882,51.269,-266.906,1
2.543773,-1.107,-0.91,0.973,140.441,58.044,-250.488,1
2.551913,-1.062,-0.9,0.939,143.31,67.321,-234.008,1
2.559242,-1.002,-0.849,0.884,142.578,76.11,-216.186,1
2.568554,-0.93,-0.84,0.846,141.296,83.068,-200.622,1
2.575626,-0.834,-0.824,0.814,138.183,89.477,-185.607,1
2.585015,-0.758,-0.798,0.762,134.277,95.458,-171.081,1
2.59176,-0.652,-0.791,0.73,126.953,102.539,-154.602,1
2.599553,-0.583,-0.783,0.697,118.225,107.727,-141.174,1
2.609009,-0.473,-0.755,0.664,105.773,113.037,-126.708,1
2.616285,-0.409,-0.733,0.615,93.749,117.126,-114.929,1
2.625266,-0.359,-0.706,0.588,81.176,120.117,-101.44,1
2.633004,-0.311,-0.7,0.563,78.125,122.253,-90.209,1
2.640787,-0.268,-0.684,0.563,82.031,123.474,-79.284,1
2.649402,-0.189,-0.666,0.519,107.177,122.131,-66.833,1
2.657093,-0.151,-0.661,0.504,120.361,122.863,-56.335,1
2.665893,-0.106,-0.657,0.417,117.614,122.436,-44.738,1
2.673769,-0.063,-0.66,0.4,106.628,125.061,-35.278,1
2.682467,0.007,-0.632,0.347,89.111,124.633,-26.062,1
2.68975,0.042,-0.585,0.338,85.51,126.708,-18.31,1
2.697195,0.097,-0.535,0.302,83.129,124.755,-11.291,1
2.705839,0.14,-0.493,0.277,84.838,125.793,-3.601,1
2.713089,0.195,-0.48,0.251,83.007,123.046,2.258,1
2.720508,0.254,-0.464,0.251,79.833,122.68,8.422,1
2.72936,0.324,-0.445,0.21,75.927,119.934,13.366,1
2.735939,0.349,-0.398,0.215,76.599,118.347,18.676,1
2.743406,0.354,-0.36,0.182,78.735,115.905,23.193,1
2.752397,0.372,-0.324,0.187,83.007,113.952,27.16,1
2.75894,0.431,-0.321,0.159,85.571,111.022,31.921,1
2.768294,0.498,-0.304,0.151,85.754,108.154,36.193,1
2.775014,0.524,-0.278,0.142,85.083,106.018,39.794,1
2.783856,0.552,-0.248,0.11,81.848,103.088,42.846,1
2.791153,0.588,-0.215,0.111,77.453,102.172,45.959,1
2.798905,0.638,-0.192,0.081,70.434,99.67,48.4,1
2.806735,0.652,-0.163,0.091,65.429,99.365,51.025,1
2.815876,0.663,-0.139,0.081,62.561,97.961,52.673,1
2.823112,0.697,-0.125,0.075,62.866,97.045,54.26,1
2.832317,0.749,-0.091,0.065,64.27,95.092,56.579,1
2.838738,0.83,-0.058,0.066,67.077,93.444,59.692,1
2.848589,0.867,-0.049,0.093,72.998,90.698,62.744,1
2.856044,0.91,-0.03,0.106,84.899,86.486,66.833,1
2.864151,0.954,-0.008,0.129,96.618,81.787,70.068,1
2.872789,0.976,0.013,0.149,113.708,75.5,73.913,1
2.879891,1.016,0.028,0.185,130.737,70.861,77.453,1
2.887908,1.02,0.041,0.182,147.338,65.856,80.2,1
2.894818,1.005,0.042,0.175,160.339,62.255,82.153,1
2.9028,1.002,0.058,0.159,167.297,58.532,83.557,1
2.911485,0.996,0.081,0.142,165.161,56.152,83.618,1
2.917714,0.998,0.114,0.093,151.489,54.687,80.871,1
2.926716,0.97,0.18,0.073,128.784,54.809,75.439,1
2.933321,0.905,0.266,0.03,103.332,56.213,69.702,1
2.942223,0.894,0.356,0.027,84.716,58.776,63.232,1
2.948607,0.92,0.42,0.018,82.885,60.485,58.776,1
2.956341,0.947,0.491,0.016,92.163,59.997,52.001,1
2.96567,0.988,0.551,0.006,110.656,60.058,46.752,1
2.972796,0.983,0.573,-0.019,126.281,57.006,40.71,1
2.980284,1.015,0.573,-0.015,144.348,56.152,35.034,1
2.989152,1.053,0.555,-0.014,156.188,53.405,30.761,1
2.99705,1.081,0.535,0.0,164.428,53.466,27.282,1
3.004159,1.064,0.523,0.001,163.879,52.673,23.986,1
3.013121,1.027,0.516,0.012,161.437,54.077,20.812,1
3.021978,1.027,0.448,-0.009,148.803,54.382,18.432,1
3.029703,1.078,0.461,0.006,134.277,57.922,15.502,1
3.037315,1.051,0.465,-0.017,127.136,58.898,11.596,1
3.044229,1.013,0.458,-0.021,120.178,60.974,9.643,1
3.052582,1.047,0.446,-0.039,113.342,62.133,7.385,1
3.062273,1.036,0.439,-0.046,108.337,63.537,5.065,1
3.06941,1.016,0.442,-0.057,109.374,64.147,3.051,1
3.078818,0.985,0.445,-0.055,114.868,64.819,1.403,1
3.086903,0.986,0.444,-0.055,124.877,65.124,-0.061,1
3.093351,0.97,0.432,-0.059,131.835,65.673,-1.525,1
3.100152,0.92,0.419,-0.06,132.995,66.894,-2.38,1
3.109236,0.896,0.414,-0.051,131.164,68.42,-3.173,1
3.118281,0.882,0.406,-0.056,128.601,70.19,-4.333,1
3.125278,0.864,0.403,-0.045,126.159,72.082,-5.249,1
3.133093,0.847,0.415,-0.048,126.525,73.669,-5.798,1
3.141238,0.842,0.402,-0.053,127.99,74.584,-6.225,1
3.150545,0.827,0.403,-0.065,126.892,76.416,-6.774,1
3.157006,0.797,0.399,-0.083,123.107,77.392,-7.446,1
3.166321,0.819,0.416,-0.092,119.445,79.101,-7.446,1
3.173733,0.839,0.445,-0.118,117.858,80.566,-7.751,1
3.182886,0.836,0.469,-0.122,119.995,80.993,-7.934,1
3.19038,0.847,0.497,-0.143,126.586,81.237,-8.361,1
3.199986,0.851,0.517,-0.145,137.39,80.871,-8.239,1
3.20738,0.841,0.528,-0.154,151.306,80.688,-8.422,1
3.21564,0.829,0.515,-0.16,166.381,81.176,-8.483,1
3.222663,0.826,0.512,-0.179,172.302,82.336,-8.544,1
3.231195,0.812,0.501,-0.189,168.518,84.045,-7.934,1
3.238291,0.791,0.501,-0.205,155.273,87.097,-7.812,1
3.246479,0.772,0.514,-0.218,141.357,89.294,-7.995,1
3.254387,0.745,0.532,-0.226,128.601,91.491,-8.361,1
3.26262,0.742,0.557,-0.235,123.779,92.224,-8.911,1
3.269101,0.74,0.578,-0.239,128.967,92.407,-9.765,1
3.277699,0.743,0.595,-0.247,141.601,91.247,-9.948,1
3.287213,0.757,0.608,-0.266,158.447,89.904,-10.375,1
3.293437,0.748,0.601,-0.287,167.297,88.989,-10.62,1
3.301164,0.732,0.593,-0.31,168.029,88.989,-10.742,1
3.308929,0.704,0.588,-0.335,163.085,89.111,-10.62,1
3.318341,0.702,0.588,-0.378,152.343,90.881,-10.62,1
3.325656,0.71,0.59,-0.446,135.131,92.712,-11.047,1
3.332853,0.698,0.603,-0.479,111.083,95.458,-11.901,1
3.342417,0.691,0.62,-0.511,84.655,96.496,-12.878,1
3.350424,0.712,0.65,-0.525,73.852,97.778,-14.099,1
3.358026,0.707,0.682,-0.539,73.303,96.252,-15.808,1
3.365264,0.717,0.668,-0.566,83.984,94.543,-17.395,1
3.374818,0.708,0.651,-0.551,95.336,92.59,-18.31,1
3.382461,0.711,0.616,-0.574,108.642,89.843,-19.287,1
3.391721,0.72,0.573,-0.561,117.919,88.256,-19.531,1
3.39838,0.732,0.547,-0.582,118.041,87.097,-19.531,1
3.40618,0.724,0.534,-0.592,111.206,87.341,-19.775,1
3.415473,0.711,0.512,-0.612,99.121,85.998,-20.141,1
3.423518,0.725,0.502,-0.638,87.951,87.036,-20.385,1
3.431857,0.72,0.506,-0.635,74.218,85.693,-21.362,1
3.439942,0.722,0.502,-0.655,67.504,86.181,-21.911,1
3.447406,0.692,0.5,-0.651,60.18,84.96,-22.888,1
3.456982,0.67,0.485,-0.672,60.974,83.74,-24.047,1
3.46519,0.638,0.461,-0.654,65.307,82.519,-24.78,1
3.474671,0.625,0.461,-0.68,67.871,80.749,-25.512,1
3.481452,0.625,0.469,-0.67,74.279,79.223,-25.695,1
3.489947,0.632,0.446,-0.705,77.941,77.026,-25.512,1
3.497667,0.609,0.431,-0.68,76.904,76.354,-25.573,1
3.504998,0.596,0.429,-0.691,73.425,75.256,-26.0,1
3.513634,0.541,0.431,-0.694,66.284,75.5,-26.55,1
3.520714,0.536,0.457,-0.692,59.814,75.805,-27.954,1
3.528637,0.523,0.474,-0.686,60.424,75.622,-28.93,1
3.536516,0.524,0.485,-0.695,63.659,74.584,-29.785,1
3.543806,0.537,0.506,-0.698,73.608,73.303,-30.639,1
3.551447,0.554,0.512,-0.734,84.533,71.044,-31.372,1
3.560832,0.602,0.495,-0.753,92.956,69.274,-31.616,1
3.568284,0.636,0.469,-0.777,95.397,66.406,-32.348,1
3.575307,0.644,0.458,-0.776,94.055,64.697,-32.775,1
3.584712,0.773,0.417,-0.773,90.27,62.927,-31.494,1
3.593035,0.893,0.44,-0.805,90.332,60.058,-28.991,1
3.600852,0.977,0.438,-0.804,86.975,57.739,-26.794,1
3.60808,1.059,0.443,-0.861,75.561,56.03,-24.291,1
3.617529,1.07,0.453,-0.908,59.082,54.26,-21.667,1
3.624632,0.979,0.483,-0.957,40.649,52.124,-19.348,1
3.63247,0.867,0.537,-0.978,28.137,50.964,-18.31,1
3.639965,0.794,0.553,-1.016,19.958,48.522,-18.493,1
3.647549,0.74,0.499,-1.06,2.99,46.569,-18.92,1
3.656704,0.699,0.552,-1.06,-18.859,44.433,-19.714,1
3.664181,0.642,0.58,-1.078,-20.385,41.381,-20.996,1
3.671905,0.691,0.59,-1.099,-8.117,34.301,-23.62,1
3.679767,0.652,0.583,-1.088,18.188,27.709,-25.817,1
3.68848,0.657,0.536,-1.094,44.616,22.277,-27.709,1
3.697051,0.696,0.465,-1.091,60.119,16.723,-29.235,1
3.704573,0.731,0.412,-1.084,64.697,11.169,-30.09,1
3.713021,0.742,0.363,-1.073,57.678,8.483,-29.968,1
3.721048,0.776,0.338,-1.055,46.447,5.676,-29.479,1
3.728795,0.791,0.325,-1.027,38.513,3.845,-28.747,1
3.738221,0.793,0.322,-1.015,35.095,0.366,-27.893,1
3.746455,0.794,0.321,-0.996,37.536,-2.685,-27.343,1
3.75367,0.794,0.312,-0.987,43.029,-6.408,-27.099,1
3.761288,0.8,0.301,-0.962,49.682,-10.559,-26.489,1
3.769895,0.799,0.278,-0.939,53.894,-13.793,-25.695,1
3.776828,0.79,0.251,-0.929,50.781,-15.991,-25.085,1
3.785716,0.778,0.233,-0.912,44.616,-19.287,-24.169,1
3.794657,0.803,0.222,-0.889,40.222,-20.324,-22.888,1
3.801781,0.847,0.184,-0.856,37.292,-23.803,-21.972,1
3.810858,0.823,0.148,-0.834,41.32,-26.245,-20.69,1
3.818294,0.872,0.116,-0.795,52.978,-30.029,-18.371,1
3.825285,0.889,0.11,-0.762,70.19,-32.409,-16.845,1
3.833366,0.944,0.074,-0.721,86.425,-34.851,-15.686,1
3.842278,0.944,0.05,-0.688,101.074,-36.499,-13.977,1
3.8497,0.948,0.034,-0.669,110.351,-37.597,-12.451,1
3.856781,0.948,0.044,-0.657,111.877,-38.024,-9.887,1
3.864303,0.963,0.074,-0.638,109.313,-37.841,-8.3,1
3.873681,0.96,0.108,-0.616,108.886,-38.146,-6.347,1
3.880674,0.966,0.13,-0.601,106.689,-38.635,-4.394,1
3.888552,0.988,0.143,-0.586,100.158,-38.574,-2.624,1
3.897616,0.998,0.16,-0.573,95.336,-38.391,-0.976,1
3.904723,0.979,0.183,-0.545,92.529,-38.635,0.793,1
3.911967,0.959,0.191,-0.533,92.224,-38.757,2.502,1
3.920457,0.908,0.192,-0.515,91.552,-38.513,4.211,1
3.928114,0.868,0.201,-0.508,90.148,-38.513,6.286,1
3.935284,0.871,0.214,-0.488,88.745,-38.452,8.361,1
3.944616,0.863,0.227,-0.485,83.496,-37.719,10.314,1
3.952434,0.808,0.243,-0.471,68.908,-36.376,12.817,1
3.960887,0.796,0.285,-0.459,52.368,-35.278,15.014,1
3.968711,0.792,0.324,-0.438,43.762,-34.667,17.15,1
3.977919,0.787,0.355,-0.426,40.649,-34.667,19.287,1
3.985308,0.795,0.371,-0.412,41.748,-35.827,22.094,1
3.993692,0.815,0.362,-0.398,49.926,-37.414,26.062,1
4.002549,0.841,0.349,-0.389,61.462,-40.039,29.479,1
4.009293,0.907,0.335,-0.368,78.674,-43.273,33.569,1
4.017965,0.964,0.332,-0.345,102.722,-47.119,37.719,1
4.025964,1.046,0.332,-0.318,131.591,-52.124,41.931,1
4.035224,1.074,0.342,-0.297,150.939,-55.541,45.654,1
4.042098,0.989,0.366,-0.266,160.034,-59.448,49.621,1
4.050295,0.902,0.41,-0.225,160.156,-61.767,52.551,1
4.059384,0.865,0.477,-0.166,161.499,-65.429,55.236,1
4.067224,0.893,0.564,-0.135,177.001,-68.725,56.518,1
4.074348,0.88,0.627,-0.077,199.584,-72.998,56.274,1
4.082692,0.8,0.687,-0.04,223.876,-76.477,55.297,1
4.090666,0.686,0.713,0.014,240.722,-80.627,53.344,1
4.099057,0.624,0.72,0.059,242.492,-83.618,50.048,1
4.106911,0.549,0.748,0.108,241.271,-84.838,45.41,1
4.11337,0.513,0.772,0.142,232.91,-84.167,40.649,1
4.121637,0.534,0.727,0.146,205.322,-83.312,35.888,1
4.128791,0.589,0.818,0.199,179.199,-79.65,29.846,1
4.138624,0.481,0.844,0.229,156.188,-75.805,24.353,1
4.147031,0.445,0.76,0.244,107.36,-68.664,19.714,1
4.154623,0.531,0.772,0.329,54.016,-61.34,14.221,1
4.163358,0.537,0.738,0.402,-20.263,-48.828,10.681,1
4.172082,0.522,0.82,0.487,-90.942,-39.123,6.713,1
4.179206,0.536,0.863,0.609,-144.042,-27.465,3.906,1
4.187787,0.537,0.918,0.676,-169.677,-20.507,0.732,1
4.197127,0.527,0.969,0.748,-176.391,-12.145,-2.441,1
4.204427,0.568,1.061,0.844,-156.555,-5.92,-7.507,1
4.214522,0.64,1.129,0.941,-110.534,0.122,-13.793,1
4.222556,0.644,1.128,1.03,-66.65,5.371,-20.263,1
4.228739,0.597,1.112,1.114,-41.625,12.023,-26.123,1
4.236177,0.552,1.071,1.223,-25.756,20.385,-31.555,1
4.24635,0.53,0.816,1.212,-57.617,32.592,-33.325,1
4.25489,0.6,0.802,1.295,-113.952,47.485,-38.33,1
4.262923,0.572,0.827,1.361,-143.554,63.903,-41.015,1
4.270298,0.496,0.885,1.433,-131.347,74.646,-45.837,1
4.279035,0.453,0.902,1.451,-85.449,83.618,-49.56,1
4.285902,0.421,0.837,1.462,-28.625,90.393,-52.734,1
4.294171,0.446,0.719,1.422,24.841,99.243,-54.931,1
4.300795,0.429,0.605,1.375,53.833,107.971,-54.565,1
4.309155,0.405,0.519,1.331,61.645,120.483,-53.222,1
4.317151,0.317,0.411,1.257,55.541,133.117,-51.269,1
4.324131,0.245,0.317,1.176,40.039,147.094,-48.217,1
4.330999,0.222,0.28,1.123,27.282,159.667,-45.898,1
4.339827,0.24,0.2,1.017,12.451,172.058,-41.87,1
4.346819,0.196,0.158,0.887,-1.586,181.64,-38.391,1
4.355558,0.123,0.126,0.774,-10.009,191.833,-33.63,1
4.362181,0.149,0.083,0.621,-17.395,198.608,-29.846,1
4.371571,0.088,0.07,0.475,-24.353,203.186,-25.939,1
4.380476,0.08,0.057,0.406,-27.465,209.838,-22.338,1
4.388983,0.009,0.046,0.26,-21.057,210.693,-18.31,1
4.397597,-0.04,-0.005,0.165,-16.723,215.881,-12.939,1
4.406187,0.032,-0.044,0.004,-21.545,219.238,-7.812,1
4.415082,-0.043,-0.057,-0.091,-26.428,222.473,-2.075,1
4.422625,-0.149,-0.063,-0.169,-28.991,226.196,3.479,1
4.430044,-0.312,-0.077,-0.226,-33.874,228.759,7.263,1
4.438288,-0.449,-0.108,-0.27,-50.964,234.374,11.047,1
4.44775,-0.504,-0.108,-0.333,-67.626,238.037,13.977,1
4.456107,-0.616,-0.077,-0.363,-80.322,241.943,15.686,1
4.463575,-0.803,-0.046,-0.39,-91.064,245.727,17.089,1
4.472693,-0.968,-0.017,-0.436,-95.031,250.061,17.761,1
4.481693,-1.09,0.0,-0.449,-96.435,251.098,17.089,1
4.488416,-1.048,0.008,-0.484,-88.012,254.516,17.883,1
4.497412,-1.004,0.012,-0.567,-68.237,253.662,18.798,1
4.504596,-1.08,-0.019,-0.676,-54.626,254.516,21.545,1
4.515631,-1.113,-0.098,-0.787,-57.495,252.624,25.39,1
4.522897,-1.021,-0.167,-0.92,-74.646,253.906,31.738,1
4.532134,-0.981,-0.209,-1.001,-96.252,254.394,37.475,1
4.539988,-0.944,-0.248,-1.145,-114.807,255.615,42.663,1
4.54817,-0.959,-0.26,-1.216,-135.986,255.187,47.973,1
4.55664,-0.972,-0.254,-1.291,-146.362,253.601,52.856,1
4.5646,-0.988,-0.238,-1.32,-146.972,249.938,57.861,1
4.573719,-1.041,-0.225,-1.381,-142.089,245.727,62.927,1
4.581565,-1.094,-0.23,-1.423,-135.803,241.699,67.626,1
4.591589,-1.139,-0.2,-1.477,-127.075,236.511,73.486,1
4.598577,-1.231,-0.203,-1.513,-121.765,231.933,79.162,1
4.606966,-1.381,-0.227,-1.617,-127.868,228.332,84.777,1
4.614216,-1.379,-0.282,-1.688,-145.751,225.28,89.294,1
4.622563,-1.439,-0.317,-1.785,-170.349,224.06,92.834,1
4.631076,-1.466,-0.353,-1.833,-198.364,221.801,96.74,1
4.637981,-1.452,-0.382,-1.859,-218.383,220.458,99.792,1
4.64677,-1.455,-0.421,-1.868,-235.9,217.407,102.539,1
4.653677,-1.396,-0.441,-1.861,-240.417,214.233,105.285,1
4.662471,-1.364,-0.436,-1.823,-226.867,208.496,108.642,1
4.671474,-1.433,-0.429,-1.778,-188.659,200.622,113.342,1
4.6798,-1.484,-0.426,-1.761,-138.366,190.795,118.408,1
4.688686,-1.451,-0.453,-1.793,-51.086,175.964,127.319,1
4.696202,-1.366,-0.514,-1.892,46.325,155.944,138.854,1
4.704481,-1.394,-0.581,-1.981,104.492,140.563,151.184,1
4.712687,-1.513,-0.661,-2.079,113.891,126.281,167.541,1
4.721491,-1.551,-0.677,-2.1,92.59,117.492,181.945,1
4.728311,-1.607,-0.658,-2.128,64.208,107.177,197.57,1
4.738811,-1.655,-0.662,-2.167,44.311,97.778,213.134,1
4.747443,-1.728,-0.671,-2.207,25.756,86.12,229.248,1
4.754131,-1.797,-0.656,-2.248,35.827,72.448,244.873,1
4.761941,-1.895,-0.646,-2.277,76.416,53.1,258.3,1
4.772406,-1.948,-0.742,-2.277,145.629,32.226,271.179,1
4.779648,-2.074,-0.89,-2.427,180.541,5.187,286.682,1
4.790015,-2.131,-0.976,-2.464,179.992,-17.7,304.016,1
4.799395,-2.32,-1.061,-2.477,174.011,-42.358,321.105,1
4.806781,-2.57,-1.135,-2.438,178.222,-66.04,338.561,1
4.815001,-2.702,-1.211,-2.482,175.537,-90.209,356.262,1
4.82414,-2.896,-1.209,-2.441,176.94,-111.816,371.582,1
4.831477,-3.239,-1.175,-2.387,192.993,-138.244,388.183,1
4.841423,-3.436,-1.171,-2.333,207.763,-165.893,403.686,1
4.850294,-3.728,-1.095,-2.272,229.797,-196.411,418.151,1
4.858224,-3.979,-1.033,-2.179,264.77,-227.722,430.236,1
4.865206,-4.23,-1.062,-2.109,274.353,-256.042,439.636,1
4.87309,-4.36,-1.022,-1.993,280.761,-285.461,450.561,1
4.88351,-4.58,-0.97,-1.895,284.118,-311.889,458.496,1
4.891183,-4.838,-0.851,-1.738,276.55,-340.026,466.613,1
4.900244,-5.044,-0.682,-1.582,270.202,-368.164,473.266,1
4.906938,-5.149,-0.535,-1.389,266.479,-397.033,478.637,1
4.916092,-5.328,-0.329,-1.202,285.156,-421.936,479.37,1
4.92322,-5.556,-0.159,-1.084,293.762,-450.988,476.318,1
4.933789,-5.86,0.101,-0.86,306.274,-482.482,469.482,1
4.940422,-6.128,0.385,-0.704,334.35,-515.747,457.153,1
4.949698,-6.326,0.564,-0.531,361.755,-544.311,441.833,1
4.956655,-6.625,0.783,-0.35,387.268,-575.073,419.067,1
4.965787,-6.846,0.939,-0.189,401.367,-599.609,396.606,1
4.974427,-6.949,1.088,-0.042,404.846,-620.849,371.887,1
4.981695,-7.176,1.212,0.155,397.521,-642.822,340.82,1
4.989617,-7.11,1.324,0.314,399.841,-662.231,309.204,1
4.998621,-7.076,1.633,0.562,470.275,-678.71,272.583,1
5.006663,-6.896,1.787,0.868,617.309,-696.472,216.857,1
5.015606,-6.088,1.594,1.161,706.665,-701.721,156.127,1
5.024607,-5.519,1.397,1.46,736.144,-698.364,81.176,1
5.031659,-5.538,1.417,1.831,775.939,-681.152,6.713,1
5.03948,-5.785,1.263,2.009,815.307,-662.536,-60.363,1
5.04848,-5.788,0.783,2.259,779.296,-627.868,-123.107,1
5.056633,-5.33,0.123,2.523,626.586,-575.988,-173.4,1
5.065365,-4.741,-0.243,2.924,355.834,-508.3,-208.312,1
5.072232,-3.983,-0.308,3.369,111.511,-444.763,-218.261,1
5.080813,-3.389,-0.096,3.762,13.61,-397.399,-213.5,1
5.088235,-2.973,0.034,3.927,50.415,-365.234,-208.129,1
5.097141,-2.632,-0.001,3.945,129.272,-336.12,-206.603,1
5.106299,-2.237,-0.225,3.784,197.387,-299.133,-206.848,1
5.115095,-1.851,-0.508,3.645,208.007,-261.657,-203.918,1
5.122928,-1.28,-0.715,3.405,181.213,-225.952,-195.922,1
5.131553,-0.873,-0.771,3.313,155.456,-195.007,-183.532,1
5.138962,-0.791,-0.77,3.226,156.372,-174.682,-171.936,1
5.146003,-0.676,-0.757,3.182,170.043,-152.709,-160.217,1
5.153439,-0.546,-0.757,3.021,174.072,-132.873,-149.475,1
5.16174,-0.34,-0.769,2.878,153.564,-111.145,-138.977,1
5.17063,-0.179,-0.748,2.708,116.088,-92.529,-128.479,1
5.177311,-0.048,-0.72,2.64,82.092,-74.523,-117.736,1
5.186049,0.112,-0.705,2.525,53.222,-56.152,-105.59,1
5.193283,0.182,-0.688,2.451,41.137,-44.555,-97.106,1
5.200355,0.227,-0.668,2.349,35.461,-31.86,-87.402,1
5.207991,0.243,-0.65,2.271,36.376,-21.362,-78.369,1
5.214471,0.26,-0.645,2.192,40.344,-10.253,-69.091,1
5.22161,0.261,-0.634,2.083,39.611,-0.305,-59.448,1
5.229385,0.264,-0.62,1.985,33.569,10.131,-50.231,1
5.235943,0.272,-0.576,1.877,28.259,17.456,-42.724,1
5.244874,0.291,-0.52,1.797,25.085,25.512,-33.691,1
5.250993,0.284,-0.444,1.694,26.428,32.104,-25.695,1
5.257896,0.266,-0.388,1.613,25.573,38.269,-18.493,1
5.266689,0.269,-0.346,1.52,19.47,43.945,-12.939,1
5.274957,0.272,-0.293,1.435,2.746,50.903,-5.676,1
5.282063,0.287,-0.238,1.361,-13.732,56.701,-0.305,1
5.290456,0.286,-0.174,1.287,-27.832,60.852,5.126,1
5.2976,0.286,-0.101,1.21,-38.33,64.636,9.765,1
5.304558,0.266,-0.045,1.141,-45.654,67.626,13.793,1
5.31332,0.279,0.0,1.081,-48.889,69.58,17.333,1
5.319457,0.296,0.035,1.021,-50.598,70.8,20.996,1
5.328214,0.293,0.083,0.975,-51.147,72.204,23.864,1
5.335154,0.283,0.128,0.931,-49.682,73.059,26.428,1
5.342311,0.273,0.176,0.893,-45.043,73.181,28.564,1
5.350995,0.269,0.212,0.858,-38.33,72.814,30.822,1
5.357794,0.272,0.247,0.834,-31.249,71.655,33.142,1
5.367112,0.286,0.276,0.823,-26.977,71.105,35.522,1
5.372999,0.277,0.283,0.827,-28.686,70.922,38.024,1
5.383102,0.264,0.326,0.856,-33.447,70.983,40.954,1
5.390592,0.228,0.387,0.886,-41.259,71.228,43.945,1
5.397405,0.181,0.482,0.952,-51.574,72.875,45.471,1
5.404773,0.13,0.587,1.025,-58.654,75.683,45.593,1
5.413862,0.139,0.687,1.078,-48.645,77.392,44.128,1
5.421622,0.142,0.766,1.139,-27.709,78.857,42.297,1
5.429563,0.186,0.829,1.182,-1.708,80.749,39.733,1
5.436745,0.204,0.869,1.216,21.972,82.702,36.56,1
5.443637,0.203,0.9,1.27,39.55,86.12,33.569,1
5.451313,0.216,0.91,1.295,48.4,90.27,30.456,1
5.459475,0.204,0.914,1.339,50.354,96.13,28.198,1
5.46625,0.184,0.931,1.375,45.166,102.233,25.756,1
5.474782,0.154,0.95,1.398,37.841,109.497,23.315,1
5.481741,0.138,0.983,1.431,30.883,116.699,20.202,1
5.488914,0.12,1.009,1.467,28.198,123.84,16.784,1
5.496126,0.071,1.042,1.489,27.832,131.53,13.244,1
5.503081,0.052,1.058,1.5,26.428,137.573,10.314,1
5.512021,0.022,1.08,1.516,20.568,145.141,6.225,1
5.518591,-0.018,1.096,1.536,19.348,153.076,2.197,1
5.525736,-0.03,1.11,1.535,23.071,160.583,-1.586,1
5.534413,-0.045,1.113,1.53,27.465,168.579,-5.065,1
5.543112,-0.058,1.087,1.482,29.357,178.833,-8.911,1
5.549485,-0.057,1.06,1.425,26.245,187.805,-12.939,1
5.557787,-0.06,1.051,1.354,22.644,196.105,-17.211,1
5.565759,-0.085,1.038,1.281,20.568,203.796,-21.057,1
5.572744,-0.109,1.014,1.185,15.93,211.059,-25.146,1
5.57991,-0.131,0.983,1.102,6.225,217.468,-29.602,1
5.587743,-0.152,0.965,1.038,-5.737,222.961,-34.118,1
5.59607,-0.125,0.926,0.937,-11.84,228.759,-38.696,1
5.604466,-0.121,0.891,0.861,-17.517,232.238,-43.09,1
5.612487,-0.107,0.845,0.764,-21.85,236.816,-47.851,1
5.619463,-0.1,0.792,0.664,-28.564,238.952,-51.818,1
5.628111,-0.083,0.745,0.583,-35.461,241.821,-55.908,1
5.636798,-0.077,0.711,0.482,-40.832,242.797,-60.485,1
5.643607,-0.075,0.674,0.402,-40.771,243.774,-63.781,1
5.651416,-0.055,0.624,0.3,-38.818,242.919,-66.894,1
5.659109,-0.03,0.577,0.226,-30.151,242.675,-69.335,1
5.667859,0.005,0.53,0.146,-20.202,240.844,-70.983,1
5.673869,0.038,0.475,0.073,-12.451,239.807,-71.655,1
5.6824,0.068,0.395,0.0,-8.239,238.403,-72.57,1
5.688947,0.071,0.347,-0.051,-7.324,237.121,-73.303,1
5.697863,0.075,0.279,-0.101,-2.685,234.68,-73.608,1
5.705242,0.186,0.215,-0.166,-1.586,232.971,-74.157,1
5.71169,0.196,0.166,-0.225,-8.117,230.407,-73.913,1
5.719889,0.227,0.13,-0.282,-22.766,229.248,-73.547,1
5.726706,0.241,0.109,-0.358,-45.959,225.83,-71.838,1
5.734023,0.363,0.097,-0.467,-66.894,222.595,-68.908,1
5.74255,0.566,0.105,-0.576,-76.965,218.261,-64.941,1
5.749433,0.769,0.095,-0.689,-77.514,212.463,-61.828,1
5.757503,0.884,0.114,-0.749,-67.81,206.359,-59.265,1
5.764154,0.895,0.125,-0.801,-47.241,198.608,-56.335,1
5.77239,0.824,0.149,-0.835,-18.371,189.208,-52.795,1
5.779609,0.74,0.179,-0.861,24.047,179.016,-48.034,1
5.786479,0.707,0.18,-0.888,61.584,169.311,-43.273,1
5.794188,0.697,0.177,-0.933,100.463,159.301,-37.536,1
5.802533,0.656,0.174,-0.957,129.272,147.949,-30.334,1
5.809443,0.592,0.189,-0.983,140.014,140.991,-24.047,1
5.817786,0.523,0.23,-1.002,140.014,134.582,-18.981,1
5.824518,0.461,0.298,-1.021,134.521,130.249,-15.991,1
5.831785,0.414,0.385,-1.043,127.014,124.816,-15.319,1
5.841095,0.343,0.515,-1.029,126.708,120.117,-15.808,1
5.847158,0.305,0.604,-1.023,131.713,115.112,-17.089,1
5.853007,0.307,0.651,-1.001,133.728,111.389,-18.066,1
5.860852,0.336,0.669,-0.979,131.896,107.055,-19.042,1
5.867825,0.374,0.692,-0.954,128.906,102.783,-19.958,1
5.875989,0.403,0.712,-0.92,127.014,98.754,-20.812,1
5.883112,0.391,0.71,-0.91,123.596,95.52,-21.118,1
5.890952,0.419,0.752,-0.88,122.863,91.552,-21.85,1
5.897853,0.414,0.761,-0.856,124.877,88.378,-22.46,1
5.906069,0.46,0.772,-0.833,126.098,85.388,-23.376,1
5.913626,0.501,0.781,-0.806,126.77,83.435,-24.108,1
5.920292,0.513,0.799,-0.795,126.403,81.115,-25.085,1
5.926955,0.525,0.827,-0.767,127.624,78.918,-25.939,1
5.9348,0.546,0.849,-0.75,131.53,76.232,-27.038,1
5.941706,0.571,0.85,-0.726,135.559,74.218,-28.015,1
5.949459,0.577,0.835,-0.698,140.075,72.204,-28.991,1
5.956395,0.556,0.826,-0.674,144.348,70.983,-28.808,1
5.964146,0.526,0.833,-0.641,150.39,70.129,-28.808,1
5.971928,0.588,0.796,-0.629,150.634,69.702,-29.602,1
5.978488,0.63,0.748,-0.612,141.113,69.885,-30.029,1
5.986286,0.622,0.741,-0.591,124.938,70.8,-30.578,1
5.992848,0.579,0.728,-0.568,109.313,72.082,-31.127,1
6.000008,0.562,0.718,-0.554,95.092,74.035,-31.677,1
6.007943,0.575,0.693,-0.547,81.726,75.805,-31.86,1
6.014576,0.596,0.653,-0.529,61.035,78.552,-31.982,1
6.02254,0.601,0.616,-0.515,37.231,81.665,-31.982,1
6.029334,0.612,0.575,-0.513,16.662,84.533,-31.982,1
6.036141,0.644,0.525,-0.502,4.333,86.914,-31.86,1
6.045392,0.692,0.487,-0.52,-5.432,89.599,-31.127,1
6.052,0.763,0.428,-0.54,-17.211,92.712,-29.907,1
6.060132,0.801,0.423,-0.567,-32.409,95.52,-29.174,1
6.066984,0.756,0.44,-0.592,-53.527,98.266,-28.869,1
6.075303,0.703,0.506,-0.629,-72.204,100.097,-29.541,1
6.082535,0.682,0.56,-0.655,-93.994,100.708,-30.761,1
6.089109,0.66,0.645,-0.687,-104.98,99.914,-33.081,1
6.09737,0.653,0.694,-0.748,-105.895,96.679,-35.827,1
6.104088,0.687,0.755,-0.791,-92.712,91.735,-39.489,1
6.1116,0.649,0.782,-0.856,-69.152,85.876,-42.602,1
6.119651,0.662,0.777,-0.939,-40.771,78.063,-45.837,1
6.127704,0.632,0.742,-1.013,-12.512,70.739,-48.034,1
6.135737,0.61,0.708,-1.087,5.249,63.598,-49.926,1
6.143617,0.562,0.66,-1.152,11.718,56.64,-51.391,1
6.15283,0.536,0.628,-1.187,9.46,51.452,-52.917,1
6.161684,0.485,0.596,-1.241,5.432,46.386,-53.466,1
6.168702,0.451,0.593,-1.243,5.004,41.259,-54.626,1
6.177341,0.403,0.582,-1.234,7.751,35.888,-55.236,1
6.184208,0.419,0.564,-1.206,16.296,31.494,-56.03,1
6.192172,0.42,0.537,-1.194,28.259,25.512,-56.274,1
6.200412,0.42,0.505,-1.148,40.832,20.568,-56.091,1
6.207521,0.426,0.459,-1.115,49.56,15.686,-55.908,1
6.214896,0.428,0.42,-1.07,54.077,11.901,-54.992,1
6.223574,0.433,0.37,-1.026,52.917,9.033,-53.955,1
6.232452,0.455,0.335,-0.98,47.79,6.53,-52.124,1
6.239179,0.467,0.312,-0.931,44.311,5.065,-50.598,1
6.246004,0.474,0.305,-0.889,42.541,3.417,-48.645,1
6.25425,0.484,0.298,-0.836,42.114,2.502,-47.119,1
6.263686,0.497,0.283,-0.789,41.748,1.403,-45.166,1
6.270929,0.521,0.265,-0.741,42.175,0.793,-43.151,1
6.279571,0.546,0.237,-0.711,41.137,0.122,-41.137,1
6.287137,0.58,0.225,-0.671,41.015,-0.366,-39.306,1
6.295518,0.575,0.205,-0.64,42.114,-0.427,-37.231,1
6.303213,0.586,0.17,-0.613,37.963,-0.488,-35.034,1
6.309653,0.587,0.16,-0.572,31.555,0.915,-32.653,1
6.317893,0.6,0.151,-0.546,24.597,1.77,-30.822,1
6.325942,0.605,0.158,-0.523,17.211,3.234,-28.747,1
6.332561,0.597,0.16,-0.511,10.925,4.699,-26.733,1
6.340847,0.608,0.176,-0.499,4.394,5.798,-24.963,1
6.348097,0.613,0.181,-0.501,1.953,6.713,-23.132,1
6.356754,0.632,0.184,-0.493,2.624,7.263,-21.85,1
6.363284,0.646,0.187,-0.494,5.31,8.178,-20.385,1
6.371255,0.662,0.186,-0.503,6.286,8.483,-18.981,1
6.379625,0.665,0.189,-0.498,4.516,9.643,-17.7,1
6.387223,0.674,0.189,-0.509,4.394,10.314,-16.296,1
6.395927,0.693,0.191,-0.52,6.164,10.559,-15.075,1
6.403301,0.724,0.182,-0.551,4.638,10.925,-13.854,1
6.410843,0.742,0.2,-0.575,2.258,11.352,-12.878,1
6.418129,0.769,0.225,-0.614,1.892,10.986,-11.901,1
6.426202,0.793,0.25,-0.651,1.77,10.07,-11.474,1
6.434558,0.833,0.262,-0.698,-3.295,9.277,-11.047,1
6.443143,0.886,0.275,-0.735,-12.939,8.056,-10.742,1
6.451097,0.929,0.3,-0.764,-17.761,6.591,-10.681,1
6.457887,0.956,0.32,-0.793,-17.089,3.662,-10.559,1
6.466403,0.977,0.33,-0.824,-12.939,1.22,-10.681,1
6.473259,0.993,0.337,-0.856,-10.192,-1.647,-10.864,1
6.482302,0.998,0.357,-0.883,-9.948,-4.455,-10.986,1
6.490998,0.969,0.395,-0.92,-9.521,-7.507,-11.718,1
6.499201,0.919,0.444,-0.918,-8.239,-10.803,-12.756,1
6.505729,0.872,0.479,-0.921,-3.906,-14.038,-14.343,1
6.514819,0.848,0.5,-0.914,4.455,-18.371,-16.296,1
6.52253,0.831,0.506,-0.911,11.596,-22.033,-18.371,1
6.529538,0.815,0.5,-0.888,16.479,-25.329,-20.263,1
6.537223,0.799,0.49,-0.866,18.859,-27.954,-21.911,1
6.54409,0.796,0.477,-0.843,19.409,-30.822,-23.498,1
6.552502,0.796,0.48,-0.812,21.362,-33.203,-25.268,1
6.559248,0.785,0.498,-0.794,23.254,-35.766,-26.611,1
6.566193,0.781,0.521,-0.762,25.207,-37.536,-28.137,1
6.574575,0.786,0.536,-0.731,30.212,-39.672,-30.273,1
6.581497,0.795,0.542,-0.687,36.499,-41.809,-32.47,1
6.590585,0.819,0.544,-0.649,41.931,-43.457,-34.362,1
6.597605,0.847,0.533,-0.603,45.227,-44.921,-36.865,1
6.605851,0.889,0.53,-0.55,46.569,-45.837,-38.574,1
6.61452,0.92,0.525,-0.483,47.302,-46.386,-40.344,1
6.621949,0.986,0.538,-0.411,44.738,-46.691,-41.442,1
6.630818,0.939,0.595,-0.291,46.386,-45.471,-43.334,1
6.638598,0.964,0.628,-0.21,50.109,-44.311,-45.471,1
6.645578,0.924,0.634,-0.124,53.222,-41.198,-47.363,1
6.654963,0.924,0.709,-0.042,58.898,-38.452,-50.292,1
6.662909,0.872,0.718,0.046,58.166,-32.592,-53.649,1
6.670888,0.881,0.718,0.112,48.889,-27.343,-57.128,1
6.677491,0.927,0.776,0.221,43.212,-20.507,-60.424,1
6.685059,0.862,0.785,0.306,39.001,-13.244,-63.598,1
6.693633,0.807,0.804,0.408,33.935,-5.493,-67.321,1
6.700402,0.916,0.791,0.44,17.15,4.394,-70.617,1
6.708776,0.751,0.787,0.541,8.911,14.099,-74.279,1
6.716033,0.822,0.736,0.542,-2.685,25.512,-78.674,1
6.723691,0.858,0.767,0.608,-11.596,36.132,-82.458,1
6.731626,0.727,0.743,0.635,-2.929,46.203,-85.998,1
6.739962,0.737,0.653,0.602,2.441,54.87,-89.233,1
6.748781,0.773,0.642,0.588,-2.746,65.795,-92.712,1
6.755608,0.622,0.609,0.533,-5.798,75.866,-95.458,1
6.764362,0.608,0.572,0.468,-13.916,86.547,-99.304,1
6.77111,0.552,0.552,0.377,-20.141,95.581,-102.966,1
6.779438,0.509,0.501,0.275,-27.954,103.21,-106.018,1
6.786337,0.455,0.466,0.17,-36.743,110.351,-109.313,1
6.794328,0.389,0.437,0.102,-41.076,116.21,-112.792,1
6.804487,0.328,0.363,-0.016,-43.334,121.276,-116.149,1
6.811386,0.32,0.281,-0.12,-40.344,125.061,-118.957,1
6.818499,0.311,0.183,-0.24,-35.339,127.685,-120.788,1
6.826807,0.281,0.084,-0.345,-33.447,130.126,-121.52,1
6.833828,0.278,0.0,-0.449,-28.625,130.859,-121.337,1
6.8438,0.307,-0.1,-0.548,-21.362,129.577,-119.873,1
6.851032,0.315,-0.21,-0.642,-16.479,129.394,-117.004,1
6.859812,0.261,-0.226,-0.709,-14.892,127.99,-113.83,1
6.867931,0.227,-0.286,-0.783,-12.268,126.037,-109.802,1
6.875856,0.224,-0.354,-0.861,-5.004,124.084,-106.201,1
6.884563,0.247,-0.425,-0.942,-0.671,121.704,-101.074,1
6.892692,0.225,-0.458,-1.026,-1.586,119.934,-96.618,1
6.901215,0.187,-0.485,-1.116,-9.826,116.516,-91.369,1
6.9087,0.172,-0.501,-1.192,-6.347,112.365,-86.853,1
6.915466,0.166,-0.562,-1.305,5.31,105.773,-81.176,1
6.923081,0.125,-0.611,-1.396,5.432,101.806,-76.843,1
6.931982,0.122,-0.652,-1.488,8.728,93.994,-70.312,1
6.939964,0.192,-0.72,-1.526,25.146,86.486,-64.575,1
6.949423,0.069,-0.756,-1.595,31.921,75.988,-57.861,1
6.956607,0.152,-0.856,-1.695,34.484,69.396,-50.048,1
6.964031,0.111,-0.896,-1.71,21.85,58.349,-41.87,1
6.9733,0.206,-0.885,-1.761,23.925,53.955,-33.752,1
6.980768,0.174,-0.92,-1.837,16.479,39.916,-25.268,1
6.988717,0.268,-0.873,-1.792,15.747,36.987,-17.456,1
6.997883,0.302,-0.857,-1.923,24.536,21.423,-11.169,1
7.005855,0.233,-0.871,-1.833,26.306,13.427,-2.746,1
7.012431,0.347,-0.841,-1.958,43.212,1.403,4.272,1
7.021316,0.378,-0.849,-1.866,55.419,-10.314,11.352,1
7.028152,0.391,-0.821,-1.876,55.358,-18.371,18.859,1
7.035959,0.41,-0.75,-1.818,45.471,-29.479,26.428,1
7.044671,0.413,-0.646,-1.801,40.344,-36.376,32.47,1
7.052909,0.415,-0.519,-1.745,37.109,-45.654,37.719,1
7.060054,0.393,-0.412,-1.711,31.433,-53.466,42.358,1
7.069087,0.401,-0.301,-1.677,22.216,-60.668,45.349,1
7.077722,0.427,-0.183,-1.619,17.15,-68.542,48.095,1
7.086889,0.439,-0.075,-1.545,9.948,-75.744,49.804,1
7.094194,0.437,0.046,-1.468,4.211,-82.397,50.292,1
7.101714,0.434,0.156,-1.374,4.089,-87.768,49.56,1
7.111321,0.478,0.252,-1.255,3.906,-92.834,48.278,1
7.119254,0.492,0.388,-1.082,4.15,-96.984,45.654,1
7.127956,0.458,0.524,-0.912,7.812,-99.426,41.809,1
7.134826,0.498,0.601,-0.769,15.991,-102.661,36.499,1
7.143322,0.547,0.648,-0.618,26.367,-104.003,31.066,1
7.152084,0.577,0.67,-0.458,31.372,-104.187,24.719,1
7.159446,0.62,0.544,-0.369,8.483,-101.989,21.057,1
7.166739,0.644,0.659,-0.18,-10.62,-98.754,15.38,1
7.175708,0.624,0.625,0.009,-11.108,-94.787,11.962,1
7.182565,0.654,0.652,0.124,-0.793,-91.918,7.446,1
7.189904,0.597,0.615,0.26,12.023,-86.914,2.868,1
7.19725,0.596,0.593,0.402,32.836,-81.115,-3.295,1
7.205425,0.563,0.537,0.524,44.921,-74.829,-7.263,1
7.213881,0.521,0.494,0.611,54.321,-64.331,-12.451,1
7.221681,0.438,0.476,0.733,62.866,-53.649,-17.944,1
7.230194,0.412,0.459,0.804,72.57,-40.039,-23.071,1
7.239128,0.394,0.41,0.894,75.744,-25.573,-27.77,1
7.247429,0.329,0.317,0.939,73.974,-6.53,-32.104,1
7.255725,0.369,0.229,0.97,61.95,9.765,-34.423,1
7.26383,0.33,0.182,0.984,54.626,26.245,-35.827,1
7.272352,0.299,0.102,0.974,55.297,41.381,-36.254,1
7.280277,0.247,0.032,0.956,64.331,59.204,-35.644,1
7.287733,0.19,-0.046,0.886,72.448,75.744,-33.996,1
7.296304,0.144,-0.128,0.824,76.049,90.515,-31.127,1
7.304128,0.077,-0.203,0.741,73.791,107.36,-26.489,1
7.313691,0.004,-0.256,0.679,67.687,122.192,-21.545,1
7.319886,-0.103,-0.301,0.579,60.119,136.169,-16.113,1
7.329157,-0.201,-0.326,0.496,52.856,151.855,-9.277,1
7.337809,-0.29,-0.37,0.377,47.058,164.062,-2.685,1
7.345264,-0.385,-0.407,0.281,36.01,179.748,6.713,1
7.35262,-0.505,-0.423,0.187,28.442,189.331,13.0,1
7.361802,-0.625,-0.432,0.106,18.737,199.584,20.568,1
7.37069,-0.738,-0.445,0.03,8.789,211.425,29.907,1
7.377971,-0.859,-0.448,-0.074,0.854,221.679,39.001,1
7.386313,-0.994,-0.44,-0.154,-2.563,229.797,47.119,1
7.394405,-1.184,-0.457,-0.245,-12.939,239.257,56.457,1
7.402767,-1.279,-0.462,-0.322,-17.211,244.567,64.147,1
7.410177,-1.35,-0.47,-0.413,-10.192,249.877,73.303,1
7.41828,-1.509,-0.454,-0.533,8.85,252.38,84.289,1
7.426706,-1.587,-0.546,-0.641,19.287,253.662,94.604,1
7.433056,-1.715,-0.606,-0.748,17.028,255.187,106.628,1
7.441244,-1.853,-0.672,-0.807,-0.732,256.469,118.591,1
7.449016,-1.938,-0.754,-0.901,-14.77,260.07,130.615,1
7.457093,-2.114,-0.833,-1.036,-25.39,261.413,142.089,1
7.465133,-2.135,-0.857,-1.132,-32.47,262.084,157.958,1
7.473484,-2.267,-0.895,-1.228,-41.32,264.526,173.889,1
7.482261,-2.405,-0.894,-1.283,-45.593,263.427,189.208,1
7.489328,-2.562,-0.867,-1.308,-24.536,258.728,208.007,1
7.497197,-2.624,-0.882,-1.298,9.094,254.516,225.341,1
7.504222,-2.632,-0.893,-1.364,62.072,243.347,243.896,1
7.512418,-2.685,-0.901,-1.355,133.178,230.59,265.747,1
7.521077,-2.835,-0.93,-1.37,230.773,205.383,294.433,1
7.527831,-2.986,-0.968,-1.398,318.969,182.128,323.303,1
7.536651,-3.226,-1.038,-1.457,380.31,152.648,354.736,1
7.544014,-3.42,-1.124,-1.511,406.921,124.877,387.451,1
7.552192,-3.665,-1.157,-1.556,407.226,88.989,425.292,1
7.560596,-3.907,-1.133,-1.52,407.348,58.959,457.702,1
7.567118,-4.167,-1.053,-1.516,420.837,23.681,488.464,1
7.574946,-4.541,-0.993,-1.483,448.303,-13.671,518.127,1
7.583341,-4.999,-0.926,-1.511,478.454,-55.419,545.776,1
7.590723,-5.539,-0.837,-1.479,508.3,-107.299,573.547,1
7.600278,-6.04,-0.772,-1.463,525.939,-155.212,594.421,1
7.607731,-6.499,-0.665,-1.397,541.015,-203.857,611.633,1
7.618064,-6.959,-0.526,-1.307,550.415,-263.427,624.755,1
7.625838,-7.433,-0.363,-1.221,552.734,-322.936,630.126,1
7.633506,-7.942,-0.184,-1.133,548.95,-373.046,628.234,1
7.641153,-8.58,0.035,-1.022,538.391,-421.142,621.398,1
7.649025,-9.083,0.243,-0.907,514.221,-473.205,607.605,1
7.657377,-9.46,0.469,-0.758,480.407,-520.69,588.806,1
7.665188,-9.711,0.67,-0.597,447.57,-558.166,570.373,1
7.674356,-9.691,0.735,-0.448,401.367,-597.9,546.752,1
7.683522,-9.858,0.855,-0.261,356.018,-627.075,526.672,1
7.691015,-10.224,1.009,-0.02,320.617,-657.592,506.652,1
7.698367,-10.375,1.144,0.23,321.594,-679.016,489.379,1
7.707662,-10.708,1.217,0.46,339.721,-701.049,469.482,1
7.714673,-10.978,1.45,0.677,391.052,-719.177,443.969,1
7.721955,-11.105,1.616,0.928,452.453,-739.379,411.865,1
7.728883,-10.888,1.629,1.105,503.601,-755.615,375.061,1
7.738189,-10.535,1.58,1.323,533.508,-771.057,332.519,1
7.745782,-10.207,1.539,1.506,546.264,-779.052,285.034,1
7.753487,-9.785,1.63,1.679,554.077,-785.4,226.379,1
7.762437,-9.345,2.024,1.853,611.572,-782.531,173.278,1
7.771509,-8.943,2.228,1.767,795.776,-779.235,77.209,1
7.780264,-8.342,1.946,1.771,849.548,-764.648,-5.004,1
7.78737,-7.971,1.653,1.666,811.401,-739.44,-98.449,1
7.796102,-7.304,1.428,1.742,773.681,-702.636,-168.579,1
7.804608,-6.562,1.093,1.609,707.275,-656.372,-236.694,1
7.813709,-5.776,0.782,1.586,595.031,-599.304,-286.254,1
7.822786,-5.032,0.514,1.568,442.138,-544.616,-317.138,1
7.831502,-4.527,0.428,1.669,295.227,-493.041,-331.481,1
7.839548,-4.241,0.42,1.743,201.232,-454.833,-335.144,1
7.848016,-3.967,0.375,1.913,130.004,-417.663,-335.51,1
7.855146,-3.796,0.357,2.066,94.909,-392.517,-335.021,1
7.864058,-3.619,0.301,2.263,93.2,-365.478,-334.838,1
7.8713,-3.4,0.23,2.433,130.737,-345.275,-335.327,1
7.880274,-3.129,0.106,2.548,208.19,-319.519,-336.608,1
7.887707,-2.799,-0.134,2.576,262.939,-293.579,-336.425,1
7.895407,-2.504,-0.408,2.542,279.357,-256.53,-334.106,1
7.903198,-2.183,-0.658,2.474,244.628,-223.449,-329.04,1
7.910751,-1.887,-0.827,2.454,189.88,-188.903,-320.861,1
7.919194,-1.635,-0.922,2.429,129.76,-158.386,-310.607,1
7.92613,-1.447,-0.912,2.426,90.82,-130.065,-298.828,1
7.934161,-1.329,-0.901,2.382,66.528,-107.299,-286.438,1
7.941687,-1.26,-0.883,2.393,61.584,-85.998,-273.315,1
7.94967,-1.037,-0.928,2.372,58.837,-67.81,-261.657,1
7.958562,-0.915,-0.896,2.393,93.444,-48.828,-246.765,1
7.967882,-0.801,-0.928,2.335,120.544,-31.86,-234.252,1
7.975488,-0.695,-0.969,2.282,126.342,-10.925,-218.933,1
7.982901,-0.596,-0.975,2.202,115.173,7.568,-205.2,1
7.991004,-0.464,-0.931,2.131,97.473,28.381,-189.331,1
7.998391,-0.419,-0.886,2.037,80.505,44.982,-175.353,1
8.006374,-0.446,-0.813,1.975,64.27,59.997,-161.865,1
8.014991,-0.478,-0.708,1.889,55.419,73.364,-149.719,1
8.022911,-0.484,-0.645,1.836,55.114,84.167,-138.061,1
8.031502,-0.419,-0.606,1.765,60.058,96.496,-125.122,1
8.039296,-0.342,-0.582,1.709,58.959,106.201,-114.501,1
8.046259,-0.283,-0.549,1.655,54.321,116.333,-104.187,1
8.055402,-0.264,-0.497,1.608,48.95,125.732,-95.336,1
8.062314,-0.245,-0.43,1.542,46.142,135.986,-85.51,1
8.069416,-0.226,-0.37,1.487,45.837,143.737,-78.002,1
8.079907,-0.181,-0.303,1.427,48.889,150.756,-70.312,1
8.088822,-0.145,-0.233,1.357,55.908,157.47,-62.072,1
8.097846,-0.149,-0.169,1.265,67.199,164.55,-52.978,1
8.104608,-0.138,-0.114,1.187,73.669,170.104,-46.02,1
8.114335,-0.143,-0.063,1.113,75.5,174.743,-40.1,1
8.123142,-0.136,-0.012,1.05,77.026,179.748,-33.935,1
8.131003,-0.136,0.024,0.975,78.552,183.105,-28.137,1
8.138236,-0.128,0.056,0.937,78.125,186.218,-23.437,1
8.146579,-0.088,0.092,0.881,74.829,188.598,-18.676,1
8.155191,-0.051,0.134,0.856,74.523,190.734,-14.953,1
8.162734,-0.025,0.17,0.82,77.087,191.833,-11.657,1
8.172055,-0.01,0.188,0.774,80.688,193.054,-7.629,1
8.177907,0.02,0.204,0.711,82.092,193.969,-4.455,1
8.187058,0.057,0.208,0.647,82.519,195.068,-1.22,1
8.194636,0.114,0.219,0.584,83.19,196.289,1.831,1
8.201809,0.176,0.228,0.51,82.58,197.143,5.004,1
8.210607,0.205,0.227,0.446,79.223,198.669,8.605,1
8.218197,0.227,0.227,0.376,72.387,200.378,11.535,1
8.226812,0.219,0.228,0.33,64.331,201.904,13.61,1
8.235191,0.22,0.231,0.282,56.396,203.979,15.441,1
8.242316,0.228,0.242,0.247,50.415,204.65,16.174,1
8.249711,0.223,0.239,0.222,46.813,206.237,16.418,1
8.25724,0.232,0.239,0.188,43.212,207.519,16.479,1
8.266676,0.251,0.224,0.17,41.687,209.106,16.235,1
8.274519,0.28,0.206,0.136,37.292,210.449,15.869,1
8.28284,0.244,0.174,0.114,28.198,212.585,16.174,1
8.290865,0.264,0.128,0.082,11.23,214.721,16.296,1
8.299178,0.214,0.094,0.061,-9.155,218.2,17.211,1
8.306574,0.182,0.164,-0.042,7.324,221.679,16.357,1
8.313882,0.052,0.202,0.025,38.269,218.872,16.479,1
8.322904,0.052,0.175,-0.111,78.796,217.712,18.249,1
8.331582,0.039,0.182,-0.038,124.511,212.707,20.263,1
8.339508,0.083,0.175,-0.145,180.297,212.097,24.597,1
8.347534,0.028,0.191,-0.125,246.154,204.345,31.738,1
8.355726,0.212,0.142,-0.275,313.049,197.631,40.832,1
8.364853,0.211,0.12,-0.235,360.29,190.307,49.865,1
8.372416,0.214,0.1,-0.381,397.582,180.419,60.729,1
8.380228,0.127,0.099,-0.358,413.696,171.874,72.753,1
8.387386,0.135,0.105,-0.477,404.785,163.085,82.336,1
8.395899,0.113,0.137,-0.43,380.187,158.386,91.857,1
8.403804,0.115,0.182,-0.493,339.538,153.869,99.487,1
8.411061,0.05,0.258,-0.44,290.588,151.184,106.079,1
8.42001,0.051,0.341,-0.476,232.849,149.353,111.083,1
8.428186,0.043,0.45,-0.416,188.903,148.864,114.44,1
8.436104,0.083,0.54,-0.456,163.757,147.644,115.661,1
8.444852,0.038,0.623,-0.433,149.047,146.789,116.394,1
8.452054,0.094,0.7,-0.482,139.77,145.324,116.699,1
8.462,0.145,0.797,-0.521,130.981,144.348,115.905,1
8.467698,0.195,0.875,-0.631,117.736,143.493,114.135,1
8.478168,0.205,0.95,-0.679,101.318,142.15,111.267,1
8.485356,0.243,0.987,-0.686,95.886,140.136,108.459,1
8.493874,0.271,1.022,-0.634,104.614,137.329,104.98,1
8.501025,0.288,1.036,-0.583,121.215,134.704,102.661,1
8.509534,0.34,1.044,-0.563,138.488,132.019,100.524,1
8.518541,0.369,1.033,-0.548,140.502,129.455,99.06,1
8.525938,0.425,0.942,-0.448,134.521,129.455,98.205,1
8.534357,0.365,1.106,-0.567,120.727,133.667,95.947,1
8.540915,0.375,1.143,-0.533,105.529,128.417,93.322,1
8.548044,0.415,1.162,-0.495,115.539,131.225,91.796,1
8.55741,0.398,1.235,-0.536,123.046,126.953,89.111,1
8.564554,0.378,1.254,-0.454,134.033,127.014,86.914,1
8.57221,0.382,1.272,-0.481,139.282,125.732,84.289,1
8.58123,0.359,1.295,-0.429,138.061,126.77,81.359,1
8.588183,0.351,1.316,-0.451,129.394,127.502,78.613,1
8.595022,0.326,1.316,-0.396,117.98,129.76,75.5,1
8.6026,0.35,1.337,-0.388,108.032,132.751,72.326,1
8.61167,0.392,1.432,-0.346,101.501,133.911,68.359,1
8.618615,0.422,1.472,-0.299,100.158,137.329,63.354,1
8.626901,0.459,1.486,-0.222,104.248,138.549,58.532,1
8.634913,0.474,1.455,-0.236,114.746,142.028,54.687,1
8.64317,0.473,1.4,-0.269,123.657,143.005,50.354,1
8.650368,0.494,1.374,-0.293,134.216,145.996,47.79,1
8.658991,0.489,1.366,-0.297,142.211,147.644,45.593,1
8.666142,0.457,1.345,-0.307,140.93,153.686,43.945,1
8.674903,0.344,1.356,-0.302,121.52,158.752,41.931,1
8.682058,0.283,1.408,-0.247,96.069,166.564,39.245,1
8.691545,0.227,1.477,-0.163,70.8,174.133,34.179,1
8.699228,0.132,1.534,-0.073,58.166,182.189,28.076,1
8.706385,0.053,1.554,0.001,57.556,187.561,21.911,1
8.715949,0.013,1.56,0.029,66.223,191.711,15.808,1
8.724077,-0.026,1.52,0.006,83.862,195.739,9.704,1
8.731886,-0.054,1.466,-0.086,90.881,200.256,6.286,1
8.740288,-0.146,1.41,-0.159,70.678,206.481,2.441,1
8.747539,-0.237,1.354,-0.246,25.329,215.576,-2.136,1
8.756655,-0.268,1.346,-0.43,-15.441,221.862,-7.263,1
8.763905,-0.273,1.374,-0.542,-40.039,223.876,-13.488,1
8.771548,-0.31,1.336,-0.601,-42.419,225.036,-20.568,1
8.782109,-0.333,1.268,-0.717,-32.348,221.984,-25.756,1
8.788977,-0.328,1.159,-0.829,-7.629,217.041,-30.639,1
8.798065,-0.285,1.108,-0.937,28.259,209.167,-33.386,1
8.805377,-0.238,1.133,-0.991,66.101,201.721,-33.813,1
8.813891,-0.225,1.215,-1.037,103.088,194.213,-33.203,1
8.822342,-0.253,1.291,-1.029,133.483,186.828,-31.738,1
8.83028,-0.267,1.394,-1.011,142.7,181.701,-30.7,1
8.838326,-0.258,1.47,-0.981,139.526,176.574,-30.517,1
8.84696,-0.235,1.535,-0.945,134.216,172.79,-31.433,1
8.855726,-0.21,1.57,-0.911,133.85,167.114,-32.531,1
8.862919,-0.183,1.571,-0.88,142.211,161.804,-33.569,1
8.870068,-0.163,1.518,-0.864,154.663,155.456,-33.447,1
8.880794,-0.177,1.46,-0.854,158.874,151.367,-32.592,1
8.888362,-0.177,1.417,-0.836,151.794,147.827,-32.104,1
8.896183,-0.156,1.386,-0.822,137.451,144.653,-31.982,1
8.904922,-0.14,1.364,-0.815,120.117,140.441,-32.287,1
8.912788,-0.117,1.315,-0.817,110.046,136.352,-33.081,1
8.921333,-0.108,1.282,-0.803,106.445,130.187,-33.752,1
8.929905,-0.101,1.227,-0.786,113.952,123.291,-33.691,1
8.937116,-0.097,1.149,-0.799,122.741,116.455,-33.63,1
8.946217,-0.093,1.063,-0.786,132.08,109.68,-32.409,1
8.952715,-0.073,0.981,-0.791,141.784,101.684,-30.395,1
8.961619,-0.062,0.933,-0.747,148.376,94.665,-28.137,1
8.968695,-0.04,0.902,-0.688,154.174,89.294,-25.268,1
8.977681,-0.007,0.88,-0.647,154.296,83.129,-21.789,1
8.987497,0.025,0.891,-0.567,148.01,79.345,-18.554,1
8.994492,0.05,0.926,-0.504,133.056,76.66,-16.845,1
9.003716,0.081,0.923,-0.453,113.159,75.805,-16.052,1
9.010683,0.101,0.938,-0.376,88.745,74.096,-16.052,1
9.018167,0.143,0.943,-0.325,61.706,73.974,-16.418,1
9.027023,0.177,0.946,-0.307,37.353,72.509,-16.967,1
9.034262,0.192,0.955,-0.238,17.272,71.411,-17.822,1
9.041409,0.189,0.964,-0.232,7.385,69.641,-18.432,1
9.050775,0.179,0.976,-0.198,1.22,67.26,-19.165,1
9.059484,0.158,1.004,-0.164,2.38,63.781,-19.409,1
9.067502,0.143,1.033,-0.14,9.521,60.18,-19.653,1
9.075027,0.143,1.043,-0.118,23.315,55.847,-18.798,1
9.082103,0.137,1.04,-0.114,36.437,52.612,-17.883,1
9.08992,0.13,1.036,-0.12,48.339,49.133,-17.395,1
9.099419,0.128,1.049,-0.121,58.898,46.813,-16.54,1
9.107086,0.132,1.082,-0.111,70.373,44.006,-15.808,1
9.114769,0.125,1.111,-0.1,75.683,42.419,-15.441,1
9.123432,0.133,1.153,-0.077,77.758,41.748,-14.953,1
9.131091,0.154,1.211,-0.05,76.171,41.076,-14.831,1
9.139319,0.168,1.26,-0.012,70.373,41.198,-15.38,1
9.147789,0.179,1.315,0.015,63.354,41.625,-15.563,1
9.15654,0.187,1.346,0.045,54.687,41.992,-16.723,1
9.164311,0.195,1.385,0.062,46.63,42.968,-18.005,1
9.172041,0.196,1.408,0.076,40.527,43.151,-19.287,1
9.179657,0.193,1.416,0.08,35.034,43.823,-20.812,1
9.18971,0.194,1.414,0.083,30.395,44.067,-22.155,1
9.198424,0.203,1.416,0.086,25.634,44.189,-23.986,1
9.205882,0.206,1.408,0.085,21.972,44.189,-25.878,1
9.213302,0.207,1.382,0.092,19.836,44.189,-27.404,1
9.221285,0.212,1.354,0.09,18.981,43.884,-28.93,1
9.230912,0.198,1.325,0.093,19.165,43.579,-29.968,1
9.237061,0.185,1.279,0.093,20.263,43.762,-31.372,1
9.245912,0.17,1.224,0.094,20.69,44.006,-32.409,1
9.253308,0.155,1.157,0.073,16.601,44.128,-32.897,1
9.262532,0.143,1.108,0.107,16.845,44.616,-33.264,1
9.270414,0.149,1.053,0.081,16.479,45.288,-33.508,1
9.278172,0.15,0.996,0.077,14.77,45.898,-33.691,1
9.286571,0.16,0.959,0.067,9.033,46.691,-33.63,1
9.293341,0.164,0.934,0.099,8.117,47.79,-33.63,1
9.301804,0.172,0.899,0.073,7.446,48.461,-33.447,1
9.308573,0.181,0.868,0.083,6.591,48.583,-33.508,1
9.317458,0.191,0.841,0.081,6.53,49.621,-33.447,1
9.32481,0.202,0.809,0.083,5.004,50.231,-33.142,1
9.331679,0.212,0.781,0.084,2.685,51.452,-32.714,1
9.340037,0.206,0.757,0.082,-0.976,52.062,-32.653,1
9.347925,0.204,0.734,0.088,-6.591,53.283,-32.47,1
9.355853,0.205,0.706,0.075,-12.512,54.443,-32.043,1
9.364055,0.199,0.681,0.062,-18.005,55.725,-32.165,1
9.371983,0.198,0.64,0.023,-23.437,56.701,-31.677,1
9.379117,0.208,0.616,0.007,-28.625,57.495,-30.944,1
9.386824,0.212,0.606,-0.014,-31.188,57.739,-30.334,1
9.395576,0.218,0.591,-0.032,-31.616,58.044,-29.724,1
9.405273,0.235,0.588,-0.047,-29.968,57.739,-28.991,1
9.413219,0.243,0.586,-0.058,-25.451,57.25,-27.343,1
9.421405,0.254,0.586,-0.069,-19.897,56.701,-26.55,1
9.428601,0.281,0.585,-0.083,-11.84,55.786,-24.536,1
9.436329,0.306,0.589,-0.086,-4.455,55.053,-23.01,1
9.445274,0.332,0.594,-0.072,1.831,54.809,-21.24,1
9.45402,0.346,0.593,-0.084,6.347,54.565,-19.348,1
9.461828,0.361,0.582,-0.083,7.385,54.565,-17.028,1
9.468689,0.367,0.573,-0.094,6.225,54.504,-14.77,1
9.477183,0.373,0.59,-0.097,4.882,54.626,-12.634,1
9.485507,0.379,0.632,-0.104,5.432,54.443,-10.314,1
9.492005,0.379,0.663,-0.101,7.934,54.138,-8.056,1
9.500303,0.381,0.697,-0.113,11.108,53.71,-6.103,1
9.507791,0.391,0.727,-0.118,15.808,52.856,-3.479,1
9.516135,0.395,0.757,-0.128,19.47,52.368,-1.77,1
9.523799,0.396,0.782,-0.149,21.972,51.574,0.244,1
9.532017,0.392,0.799,-0.163,22.827,51.269,2.441,1
9.539672,0.387,0.819,-0.178,21.85,50.72,3.967,1
9.546719,0.382,0.843,-0.19,19.653,49.987,5.92,1
9.554252,0.378,0.866,-0.208,15.502,49.377,7.263,1
9.563098,0.377,0.887,-0.218,10.62,49.072,8.728,1
9.570445,0.375,0.913,-0.236,5.859,47.973,10.009,1
9.578501,0.37,0.941,-0.243,1.708,47.302,11.108,1
9.587326,0.368,0.971,-0.25,-1.647,45.898,12.268,1
9.593948,0.375,0.998,-0.26,-4.211,44.616,12.939,1
9.600967,0.38,1.023,-0.276,-6.225,42.846,13.549,1
9.607942,0.378,1.032,-0.292,-9.094,41.198,13.977,1
9.615641,0.379,1.052,-0.298,-12.329,39.184,14.282,1
9.624719,0.384,1.07,-0.312,-14.282,37.048,14.221,1
9.631326,0.384,1.075,-0.328,-17.15,34.118,13.977,1
9.638849,0.373,1.086,-0.336,-18.005,31.311,13.977,1
9.647652,0.365,1.089,-0.352,-17.883,28.442,13.671,1
9.65425,0.364,1.087,-0.355,-16.723,25.207,13.244,1
9.662679,0.361,1.091,-0.365,-14.404,22.338,12.939,1
9.670428,0.353,1.085,-0.372,-11.352,18.737,12.451,1
9.678752,0.342,1.082,-0.376,-7.324,14.465,11.901,1
9.687943,0.327,1.072,-0.382,-3.662,11.169,11.169,1
9.695004,0.314,1.056,-0.378,1.403,6.896,10.681,1
9.702418,0.306,1.043,-0.383,5.554,2.99,10.131,1
9.711229,0.297,1.03,-0.378,10.07,-0.671,9.765,1
9.718752,0.299,1.019,-0.371,14.526,-4.943,9.338,1
9.729121,0.3,1.006,-0.354,17.395,-8.422,9.155,1
9.736513,0.307,0.997,-0.331,20.019,-11.779,8.972,1
9.743592,0.317,0.989,-0.299,22.216,-14.892,9.094,1
9.752635,0.328,0.987,-0.276,23.864,-17.333,9.216,1
9.759443,0.331,0.974,-0.25,24.597,-19.47,9.399,1
9.768978,0.328,0.957,-0.23,24.719,-21.362,9.46,1
9.775873,0.326,0.929,-0.213,23.803,-23.193,9.643,1
9.785167,0.321,0.91,-0.198,22.46,-24.475,9.887,1
9.792249,0.313,0.883,-0.186,20.263,-25.573,9.887,1
9.799833,0.301,0.869,-0.178,17.639,-26.55,10.314,1
9.807988,0.291,0.859,-0.173,15.258,-27.343,10.437,1
9.817229,0.277,0.851,-0.176,12.695,-28.32,10.437,1
9.824153,0.255,0.844,-0.179,8.911,-29.174,10.498,1
9.832853,0.241,0.839,-0.185,1.647,-29.785,10.803,1
9.840396,0.224,0.822,-0.163,-1.525,-29.968,10.803,1
9.849315,0.234,0.819,-0.199,-4.333,-31.066,11.169,1
9.856751,0.228,0.818,-0.186,-5.737,-31.738,11.413,1
9.863994,0.232,0.804,-0.192,-4.638,-32.653,11.901,1
9.872672,0.225,0.781,-0.207,-5.859,-33.142,12.39,1
9.881183,0.213,0.756,-0.214,-8.605,-33.264,12.634,1
9.888346,0.201,0.741,-0.195,-11.779,-34.118,13.732,1
9.895825,0.207,0.754,-0.19,-11.901,-34.057,14.343,1
9.904423,0.2,0.745,-0.195,-11.291,-34.973,14.648,1
9.911596,0.192,0.747,-0.175,-10.62,-35.461,15.197,1
9.920721,0.189,0.756,-0.169,-8.728,-35.888,15.747,1
9.927679,0.193,0.771,-0.168,-7.019,-36.804,16.296,1
9.936823,0.199,0.798,-0.15,-5.004,-37.17,16.784,1
9.945863,0.217,0.833,-0.138,-2.319,-37.902,17.395,1
9.95504,0.242,0.872,-0.133,0.305,-38.513,17.944,1
9.963958,0.252,0.897,-0.139,2.136,-39.123,18.066,1
9.971866,0.247,0.914,-0.156,0.854,-39.245,17.944,1
9.979507,0.23,0.908,-0.17,-2.685,-39.978,17.7,1
9.987552,0.211,0.907,-0.193,-8.361,-40.71,17.456,1
9.99556,0.189,0.896,-0.207,-16.54,-41.503,17.211,1
