timestamp_s,ax,ay,az,gx,gy,gz,label
0.00599,0.551,0.272,0.783,-1.403,-2.685,0.854,1
0.013537,0.558,0.272,0.782,-0.122,-2.685,0.854,1
0.021561,0.562,0.27,0.783,-0.183,-3.234,1.098,1
0.029819,0.56,0.274,0.793,-1.342,-3.54,1.159,1
0.036746,0.557,0.281,0.806,-2.563,-3.601,1.281,1
0.043895,0.55,0.285,0.823,-2.624,-3.784,1.281,1
0.052519,0.545,0.282,0.836,-1.953,-3.723,1.098,1
0.059911,0.542,0.27,0.842,-1.403,-3.784,1.037,1
0.067038,0.539,0.273,0.848,-1.525,-3.417,1.037,1
0.075614,0.533,0.282,0.848,-2.502,-3.051,1.159,1
0.083759,0.529,0.286,0.853,-4.272,-2.563,1.098,1
0.091909,0.528,0.288,0.852,-5.004,-2.136,1.037,1
0.098976,0.523,0.287,0.853,-4.089,-1.892,0.732,1
0.106214,0.52,0.282,0.858,-2.929,-1.953,0.549,1
0.114865,0.514,0.271,0.852,-1.464,-1.892,0.854,1
0.123216,0.513,0.255,0.849,-0.671,-1.586,0.976,1
0.129888,0.523,0.253,0.843,-1.647,-1.098,1.098,1
0.136934,0.528,0.258,0.836,-4.089,-0.915,1.586,1
0.145098,0.532,0.27,0.836,-6.408,-0.854,1.77,1
0.153304,0.541,0.28,0.84,-7.507,-0.549,1.586,1
0.160385,0.541,0.294,0.839,-7.629,-0.549,1.831,1
0.169816,0.547,0.309,0.838,-7.385,-0.549,1.525,1
0.176959,0.547,0.322,0.841,-6.958,-0.61,1.77,1
0.184165,0.548,0.332,0.839,-6.103,-0.671,1.281,1
0.192916,0.545,0.335,0.843,-4.943,-0.549,0.854,1
0.201125,0.541,0.328,0.84,-3.051,-0.671,0.671,1
0.209027,0.538,0.326,0.833,-1.037,-0.793,0.366,1
0.218608,0.536,0.321,0.831,0.122,-0.854,-0.122,1
0.224961,0.526,0.315,0.828,1.22,-1.037,-0.183,1
0.233039,0.527,0.304,0.833,1.77,-0.793,-0.366,1
0.241271,0.52,0.281,0.83,2.38,-0.793,-0.549,1
0.249692,0.521,0.265,0.835,2.441,-0.793,-0.549,1
0.257279,0.531,0.261,0.835,1.037,-0.671,-0.427,1
0.263828,0.536,0.27,0.833,-1.037,-0.244,0.0,1
0.270795,0.53,0.273,0.832,-2.319,-0.244,0.183,1
0.279032,0.527,0.274,0.841,-2.319,-0.305,0.061,1
0.286478,0.525,0.275,0.84,-0.976,-0.305,0.183,1
0.295407,0.523,0.268,0.841,0.366,-0.183,0.427,1
0.302805,0.523,0.262,0.847,0.732,-0.305,0.61,1
0.309588,0.531,0.271,0.85,-0.488,-0.061,0.732,1
0.317579,0.535,0.288,0.853,-1.953,0.305,0.976,1
0.325912,0.548,0.306,0.85,-3.051,0.732,0.976,1
0.333739,0.544,0.315,0.845,-3.417,0.915,0.61,1
0.34078,0.537,0.331,0.847,-2.563,0.915,0.366,1
0.349127,0.528,0.338,0.836,-1.22,0.915,-0.183,1
0.356983,0.517,0.333,0.829,-0.061,0.915,-0.183,1
0.365121,0.514,0.327,0.823,0.732,0.976,-0.61,1
0.372331,0.515,0.312,0.817,1.342,0.732,-0.915,1
0.380601,0.521,0.301,0.807,1.586,0.793,-0.854,1
0.38785,0.524,0.29,0.803,0.976,0.549,-0.793,1
0.397014,0.523,0.283,0.803,0.122,0.61,-0.915,1
0.404579,0.531,0.281,0.805,-0.671,0.549,-0.854,1
0.41122,0.53,0.271,0.808,-0.732,0.183,-0.549,1
0.418933,0.532,0.268,0.809,-0.732,0.305,-0.671,1
0.427667,0.531,0.26,0.812,-0.549,0.366,-0.305,1
0.435832,0.536,0.261,0.808,-0.305,0.244,-0.183,1
0.444674,0.537,0.26,0.808,-0.183,0.183,0.122,1
0.452298,0.54,0.257,0.801,0.122,-0.183,0.244,1
0.459347,0.541,0.262,0.803,0.0,0.0,0.488,1
0.467294,0.539,0.268,0.802,-0.061,-0.366,0.671,1
0.47549,0.535,0.269,0.799,0.366,-0.427,0.61,1
0.483142,0.533,0.27,0.798,0.793,-0.488,0.671,1
0.49036,0.533,0.275,0.797,1.342,-0.671,0.915,1
0.498888,0.529,0.27,0.794,0.793,-0.732,0.793,1
0.506173,0.526,0.276,0.799,-0.061,-0.976,1.037,1
0.513879,0.528,0.277,0.798,-1.098,-1.098,1.22,1
0.522597,0.528,0.283,0.802,-1.281,-1.098,0.976,1
0.531026,0.534,0.286,0.804,-1.342,-1.403,1.342,1
0.538554,0.53,0.292,0.805,-1.281,-1.586,0.915,1
0.546599,0.532,0.297,0.807,-0.854,-1.892,0.976,1
0.554003,0.531,0.299,0.819,-0.305,-1.892,0.915,1
0.561492,0.535,0.298,0.821,0.0,-2.014,1.037,1
0.570465,0.528,0.301,0.823,0.244,-1.77,0.793,1
0.577352,0.527,0.295,0.829,0.732,-1.953,0.915,1
0.585569,0.524,0.297,0.833,0.732,-1.77,0.915,1
0.593638,0.525,0.294,0.833,0.244,-1.464,0.732,1
0.600984,0.526,0.299,0.834,-0.366,-1.22,0.732,1
0.607898,0.519,0.3,0.833,-1.037,-1.037,0.732,1
0.616199,0.521,0.304,0.835,-1.464,-0.854,0.61,1
0.624645,0.526,0.309,0.839,-2.075,-0.793,0.671,1
0.631093,0.521,0.312,0.843,-2.136,-0.671,0.366,1
0.639262,0.524,0.311,0.842,-2.319,-0.671,0.366,1
0.647839,0.529,0.301,0.847,-2.014,-0.427,0.0,1
0.654164,0.531,0.3,0.845,-1.77,-0.549,0.122,1
0.662157,0.537,0.294,0.842,-1.464,-0.122,0.061,1
0.668898,0.535,0.291,0.841,-1.892,-0.244,0.183,1
0.67534,0.533,0.292,0.838,-2.197,0.0,0.122,1
0.684117,0.527,0.288,0.845,-1.77,0.183,0.183,1
0.692771,0.537,0.288,0.842,-1.098,0.366,0.427,1
0.699292,0.531,0.291,0.84,-0.915,0.366,0.305,1
0.706703,0.531,0.296,0.841,-0.976,0.366,0.305,1
0.715091,0.527,0.298,0.839,-0.732,0.488,0.305,1
0.722142,0.523,0.296,0.835,-0.793,0.61,0.549,1
0.731346,0.527,0.301,0.833,-0.976,0.732,0.488,1
0.738074,0.525,0.305,0.835,-2.075,0.793,0.061,1
0.746585,0.533,0.3,0.832,-2.99,0.915,-0.061,1
0.752964,0.535,0.302,0.829,-3.601,0.915,0.183,1
0.760693,0.537,0.303,0.829,-4.028,0.976,-0.061,1
0.769817,0.537,0.303,0.827,-4.089,1.098,-0.061,1
0.77675,0.532,0.301,0.823,-3.601,1.037,-0.305,1
0.784771,0.529,0.305,0.818,-2.441,0.854,-0.488,1
0.792438,0.529,0.304,0.826,-0.366,0.854,-0.366,1
0.801326,0.53,0.301,0.819,0.854,0.854,-0.183,1
0.808966,0.529,0.299,0.822,1.464,0.732,-0.061,1
0.815943,0.532,0.298,0.822,1.708,0.793,-0.244,1
0.823024,0.532,0.292,0.821,1.586,0.732,0.0,1
0.830427,0.532,0.296,0.812,1.403,0.976,-0.122,1
0.83805,0.53,0.306,0.812,0.366,0.793,0.0,1
0.8461,0.528,0.307,0.812,-0.732,0.732,-0.244,1
0.853402,0.53,0.311,0.806,-1.037,0.732,-0.305,1
0.862384,0.53,0.316,0.809,-1.525,0.671,-0.61,1
0.869318,0.53,0.314,0.807,-1.647,0.488,-0.732,1
0.878345,0.531,0.309,0.808,-1.525,0.366,-0.976,1
0.885646,0.529,0.3,0.815,-1.159,0.122,-1.037,1
0.894883,0.535,0.299,0.811,-1.098,0.244,-1.037,1
0.901681,0.532,0.295,0.819,-0.854,0.244,-0.976,1
0.908975,0.531,0.291,0.823,-0.366,0.122,-0.854,1
0.916488,0.531,0.29,0.829,0.366,0.061,-0.854,1
0.925888,0.535,0.286,0.827,1.037,0.0,-0.793,1
0.932814,0.535,0.291,0.831,1.22,0.183,-0.549,1
0.940577,0.53,0.29,0.825,1.22,0.732,-0.671,1
0.94939,0.53,0.296,0.819,0.244,0.549,-0.61,1
0.956499,0.526,0.297,0.821,0.183,0.427,-0.549,1
0.964173,0.526,0.306,0.816,0.793,0.549,-0.671,1
0.971767,0.53,0.31,0.812,1.586,0.366,-0.732,1
0.980403,0.528,0.312,0.812,1.953,0.427,-1.098,1
0.988439,0.533,0.31,0.804,2.441,0.305,-0.976,1
0.995127,0.534,0.311,0.806,3.112,0.0,-1.159,1
1.003936,0.531,0.316,0.805,3.967,-0.061,-1.281,1
1.010182,0.532,0.312,0.805,4.76,-0.427,-1.281,1
1.018367,0.53,0.309,0.803,4.821,-0.183,-1.22,1
1.024962,0.533,0.302,0.809,4.577,-0.732,-1.159,1
1.034514,0.535,0.298,0.814,4.272,-0.427,-1.342,1
1.040677,0.532,0.298,0.817,3.906,-0.549,-1.464,1
1.050354,0.53,0.292,0.819,3.784,-0.488,-1.525,1
1.056667,0.529,0.288,0.822,3.479,-0.549,-1.403,1
1.065849,0.53,0.287,0.825,2.624,-0.427,-1.281,1
1.073238,0.533,0.279,0.827,1.953,-0.183,-1.403,1
1.080722,0.531,0.271,0.83,0.854,-0.244,-1.342,1
1.088059,0.536,0.268,0.833,0.061,0.122,-1.22,1
1.096295,0.535,0.27,0.83,-0.549,0.122,-1.098,1
1.103647,0.539,0.27,0.833,-1.22,0.183,-0.915,1
1.112613,0.535,0.274,0.837,-1.098,0.244,-0.732,1
1.119383,0.535,0.275,0.836,-0.61,0.427,-0.671,1
1.128263,0.535,0.274,0.838,0.671,0.61,-0.732,1
1.135069,0.535,0.274,0.831,1.281,0.427,-0.366,1
1.142686,0.532,0.268,0.832,1.281,0.671,-0.305,1
1.150831,0.534,0.269,0.821,1.098,0.671,-0.122,1
1.159177,0.534,0.276,0.818,0.305,0.915,0.0,1
1.167956,0.536,0.281,0.81,0.122,0.732,0.0,1
1.173838,0.534,0.288,0.801,-0.427,0.793,0.305,1
1.18307,0.534,0.297,0.799,-0.854,0.488,0.061,1
1.190173,0.533,0.302,0.799,-0.976,0.488,0.0,1
1.198415,0.535,0.31,0.795,-1.098,0.122,-0.244,1
1.206659,0.533,0.303,0.8,-0.854,0.0,-0.305,1
1.214829,0.533,0.303,0.801,-0.244,-0.366,-0.549,1
1.221568,0.539,0.297,0.802,0.122,-0.305,-0.793,1
1.230735,0.535,0.291,0.797,0.0,-0.488,-0.671,1
1.237933,0.533,0.294,0.806,0.0,-0.671,-0.732,1
1.244519,0.535,0.285,0.808,-0.122,-0.732,-0.732,1
1.254102,0.533,0.281,0.807,-0.183,-0.732,-0.427,1
1.261915,0.531,0.281,0.81,-0.183,-0.793,-0.61,1
1.269233,0.529,0.278,0.813,-0.671,-0.854,-0.305,1
1.276183,0.531,0.274,0.816,-0.976,-0.854,-0.244,1
1.285616,0.531,0.276,0.817,-1.098,-0.732,-0.183,1
1.292576,0.533,0.277,0.821,-0.732,-0.732,-0.122,1
1.30153,0.533,0.278,0.826,-0.366,-0.732,0.0,1
1.308387,0.53,0.277,0.824,-0.183,-0.671,0.305,1
1.317648,0.531,0.283,0.824,-0.488,-0.793,0.305,1
1.324483,0.533,0.284,0.822,-0.549,-0.671,0.305,1
1.334031,0.532,0.285,0.822,-1.281,-0.732,0.183,1
1.340289,0.529,0.289,0.82,-1.647,-0.915,0.488,1
1.34911,0.531,0.288,0.822,-1.342,-0.793,0.305,1
1.355937,0.533,0.294,0.824,-1.708,-0.671,0.549,1
1.365374,0.531,0.293,0.83,-1.098,-0.976,0.305,1
1.372033,0.531,0.303,0.837,-0.366,-0.854,0.305,1
1.38086,0.525,0.302,0.839,0.488,-0.671,0.183,1
1.387535,0.53,0.301,0.842,1.098,-0.549,0.122,1
1.396376,0.528,0.307,0.847,1.22,-0.61,0.244,1
1.404099,0.527,0.31,0.845,1.831,-0.366,-0.122,1
1.412142,0.526,0.305,0.847,2.746,-0.305,0.061,1
1.419824,0.526,0.31,0.847,3.662,0.183,-0.122,1
1.426669,0.527,0.309,0.845,3.54,0.061,0.122,1
1.434204,0.528,0.313,0.839,2.685,0.244,-0.244,1
1.441731,0.53,0.311,0.844,2.929,0.244,-0.366,1
1.450939,0.533,0.314,0.841,3.295,0.366,-0.305,1
1.457983,0.541,0.312,0.839,3.662,0.488,-0.671,1
1.465575,0.545,0.315,0.835,3.234,0.549,-0.793,1
1.472921,0.539,0.312,0.83,3.234,0.366,-0.915,1
1.480646,0.538,0.318,0.832,3.967,0.61,-1.037,1
1.489323,0.535,0.313,0.822,5.554,0.305,-1.22,1
1.496615,0.531,0.305,0.826,7.141,0.488,-1.586,1
1.504228,0.53,0.298,0.816,7.751,0.366,-1.464,1
1.513525,0.531,0.303,0.817,7.629,0.488,-1.464,1
1.519668,0.528,0.301,0.814,7.141,0.305,-1.708,1
1.527428,0.532,0.3,0.818,6.469,0.183,-1.647,1
1.53535,0.535,0.295,0.819,6.225,0.305,-2.075,1
1.544315,0.534,0.292,0.817,5.737,0.183,-2.075,1
1.551475,0.538,0.286,0.819,4.638,0.183,-2.319,1
1.558958,0.536,0.285,0.82,3.112,0.244,-2.38,1
1.567784,0.538,0.283,0.824,2.014,0.183,-2.258,1
1.575514,0.545,0.281,0.83,1.953,0.305,-2.441,1
1.583146,0.548,0.281,0.833,1.77,0.305,-2.319,1
1.590264,0.544,0.273,0.834,2.014,0.244,-2.197,1
1.598316,0.543,0.27,0.839,2.929,0.305,-2.441,1
1.605935,0.535,0.265,0.845,3.784,0.427,-2.136,1
1.612565,0.532,0.262,0.845,4.638,0.732,-2.014,1
1.620423,0.529,0.255,0.841,4.821,0.793,-2.014,1
1.627882,0.529,0.253,0.832,4.15,0.976,-1.647,1
1.637056,0.528,0.247,0.826,2.014,1.586,-1.525,1
1.645875,0.527,0.26,0.823,-0.061,1.77,-1.098,1
1.652784,0.527,0.273,0.81,-2.136,2.197,-0.915,1
1.659352,0.539,0.285,0.805,-3.356,2.075,-0.854,1
1.667546,0.536,0.292,0.807,-3.784,1.953,-1.037,1
1.676242,0.537,0.291,0.801,-2.685,1.342,-1.281,1
1.683842,0.538,0.292,0.798,-1.159,1.159,-1.342,1
1.690542,0.54,0.287,0.801,0.488,0.732,-1.647,1
1.697597,0.533,0.279,0.8,1.892,0.427,-1.464,1
1.706548,0.534,0.27,0.797,2.319,0.305,-1.342,1
1.715649,0.534,0.259,0.796,2.136,-0.122,-1.22,1
1.722232,0.531,0.254,0.795,0.671,0.183,-1.22,1
1.731264,0.527,0.249,0.794,-0.793,-0.122,-1.159,1
1.738311,0.528,0.251,0.798,-2.197,-0.427,-0.915,1
1.747215,0.529,0.256,0.798,-2.929,-0.305,-0.427,1
1.755454,0.531,0.258,0.797,-3.479,-0.488,-0.427,1
1.762804,0.53,0.254,0.803,-3.723,-0.671,-0.549,1
1.771853,0.532,0.256,0.808,-3.845,-0.732,-0.305,1
1.780284,0.531,0.252,0.807,-4.333,-1.037,-0.183,1
1.787185,0.533,0.248,0.808,-5.004,-1.281,-0.122,1
1.79634,0.537,0.247,0.812,-5.187,-1.159,0.061,1
1.804838,0.537,0.241,0.817,-4.882,-1.159,0.183,1
1.81199,0.535,0.241,0.816,-4.577,-1.159,0.61,1
1.820623,0.535,0.24,0.808,-5.065,-1.342,0.732,1
1.827762,0.533,0.236,0.804,-5.859,-1.281,1.098,1
1.836491,0.532,0.239,0.799,-6.408,-1.159,1.159,1
1.842865,0.53,0.251,0.802,-6.53,-1.525,1.647,1
1.850898,0.534,0.245,0.794,-7.08,-1.77,1.892,1
1.859218,0.544,0.257,0.804,-7.202,-1.647,2.075,1
1.867359,0.541,0.275,0.798,-6.469,-2.075,2.38,1
1.876663,0.556,0.245,0.775,-6.408,-2.38,2.685,1
1.883541,0.586,0.255,0.777,-7.324,-2.441,2.746,1
1.891194,0.589,0.256,0.76,-9.094,-2.38,3.295,1
1.900194,0.599,0.258,0.749,-10.559,-3.112,3.601,1
1.907242,0.595,0.265,0.739,-12.207,-4.15,4.15,1
1.915871,0.591,0.27,0.734,-13.488,-4.394,4.333,1
1.92377,0.591,0.278,0.712,-15.258,-5.31,4.76,1
1.931701,0.601,0.293,0.698,-18.249,-6.225,4.943,1
1.939919,0.605,0.307,0.671,-22.277,-7.019,5.187,1
1.947207,0.608,0.32,0.65,-27.465,-8.178,5.065,1
1.956313,0.625,0.346,0.629,-32.47,-9.704,4.882,1
1.963286,0.645,0.369,0.618,-35.705,-11.779,4.394,1
1.970994,0.681,0.403,0.608,-36.071,-13.732,3.723,1
1.980029,0.694,0.442,0.605,-33.63,-16.052,2.624,1
1.98714,0.695,0.487,0.615,-28.503,-18.493,0.671,1
1.995167,0.679,0.529,0.634,-20.263,-20.996,-1.281,1
2.00338,0.68,0.545,0.663,-13.366,-22.888,-3.479,1
2.011133,0.679,0.564,0.68,-7.751,-24.536,-5.615,1
2.018691,0.664,0.6,0.698,-3.906,-25.817,-8.3,1
2.027608,0.645,0.617,0.722,-2.319,-26.977,-10.62,1
2.034809,0.62,0.631,0.754,-1.953,-27.893,-12.878,1
2.044011,0.602,0.642,0.799,-1.647,-28.32,-15.502,1
2.051571,0.594,0.64,0.821,-0.671,-28.381,-17.883,1
2.058387,0.594,0.636,0.825,0.244,-28.503,-20.751,1
2.066278,0.571,0.626,0.837,1.77,-29.418,-23.376,1
2.073973,0.551,0.605,0.874,5.432,-29.907,-26.611,1
2.083918,0.54,0.602,0.891,10.131,-30.151,-29.479,1
2.091306,0.513,0.592,0.903,14.526,-30.7,-32.287,1
2.098693,0.483,0.567,0.965,18.737,-31.249,-35.4,1
2.106273,0.461,0.529,1.021,26.55,-30.517,-38.452,1
2.115667,0.437,0.471,1.066,33.02,-29.602,-40.771,1
2.122969,0.412,0.399,1.085,35.339,-27.526,-42.419,1
2.130656,0.392,0.348,1.105,32.775,-25.146,-43.212,1
2.138118,0.363,0.217,1.113,25.39,-21.667,-43.457,1
2.146957,0.321,0.114,1.162,13.183,-18.676,-43.395,1
2.154187,0.304,0.013,1.224,2.99,-13.671,-42.053,1
2.163355,0.256,-0.052,1.277,2.258,-10.009,-40.222,1
2.171991,0.208,-0.223,1.29,4.882,-6.958,-37.597,1
2.178716,0.146,-0.395,1.367,6.835,-3.173,-33.691,1
2.186757,0.098,-0.598,1.444,9.399,0.61,-29.174,1
2.194922,0.042,-0.811,1.507,10.803,4.577,-22.766,1
2.203742,-0.015,-1.028,1.584,10.62,9.765,-13.488,1
2.211328,-0.062,-1.25,1.672,9.826,14.404,-3.051,1
2.219464,-0.106,-1.499,1.79,10.192,20.08,10.742,1
2.226496,-0.139,-1.699,1.905,15.686,25.512,24.475,1
2.234146,-0.177,-1.876,2.0,24.169,30.395,40.039,1
2.242295,-0.258,-2.034,2.105,31.982,35.766,56.701,1
2.24953,-0.348,-2.154,2.234,40.527,40.893,74.951,1
2.25676,-0.463,-2.352,2.297,57.373,46.02,93.322,1
2.266349,-0.564,-2.441,2.4,58.41,51.879,112.915,1
2.273855,-0.777,-2.526,2.568,40.1,63.415,137.634,1
2.280681,-0.921,-2.605,2.674,21.24,73.913,159.057,1
2.289533,-1.069,-2.542,2.808,9.948,84.96,180.114,1
2.296649,-1.226,-2.412,2.955,5.493,97.106,200.256,1
2.304592,-1.361,-2.202,3.074,11.84,111.022,221.069,1
2.312344,-1.502,-1.956,3.194,31.616,123.84,237.976,1
2.320127,-1.633,-1.732,3.285,49.438,137.329,253.54,1
2.328766,-1.828,-1.523,3.4,57.373,152.16,268.615,1
2.336448,-2.062,-1.371,3.476,57.495,173.278,285.766,1
2.344089,-2.268,-1.166,3.473,49.255,192.626,300.292,1
2.352979,-2.455,-0.868,3.423,39.855,210.754,313.11,1
2.360748,-2.669,-0.51,3.363,32.714,228.698,324.401,1
2.368518,-2.87,-0.101,3.279,23.01,249.45,334.655,1
2.375386,-3.044,0.361,3.185,16.54,266.296,340.515,1
2.383969,-3.166,0.793,3.069,14.282,283.63,344.36,1
2.390382,-3.27,1.307,2.89,14.648,299.865,346.313,1
2.398002,-3.399,1.864,2.678,13.977,314.27,346.801,1
2.407271,-3.481,2.322,2.468,24.047,325.561,343.933,1
2.414129,-3.471,2.701,2.22,55.786,333.618,340.026,1
2.421919,-3.431,3.046,1.868,89.904,337.646,335.327,1
2.429914,-3.404,3.467,1.449,99.487,337.463,328.491,1
2.438908,-3.376,3.701,1.186,88.745,338.561,316.406,1
2.447877,-3.242,3.903,0.957,71.166,341.003,299.316,1
2.454756,-3.124,4.045,0.702,56.884,344.36,280.822,1
2.462252,-2.995,4.132,0.415,43.64,346.374,255.493,1
2.469731,-2.787,4.138,0.141,29.907,348.51,230.773,1
2.478753,-2.593,4.104,-0.148,14.221,348.815,204.345,1
2.486247,-2.419,4.05,-0.423,7.141,347.106,177.124,1
2.493482,-2.298,3.965,-0.668,8.85,342.285,149.78,1
2.501267,-2.057,3.774,-0.916,20.141,335.021,123.535,1
2.510383,-1.864,3.533,-1.081,30.517,324.951,95.886,1
2.517561,-1.656,3.272,-1.183,33.386,315.246,74.646,1
2.526621,-1.438,2.955,-1.25,35.4,306.152,56.579,1
2.534725,-1.244,2.674,-1.293,36.071,295.288,39.123,1
2.542357,-1.106,2.421,-1.302,37.597,285.827,27.038,1
2.550451,-0.934,2.147,-1.286,42.358,277.343,18.127,1
2.558638,-0.743,1.922,-1.368,38.024,268.859,10.62,1
2.566099,-0.609,1.761,-1.497,28.869,260.192,5.92,1
2.573555,-0.457,1.589,-1.644,24.902,249.755,2.685,1
2.581062,-0.325,1.436,-1.81,26.123,236.816,1.037,1
2.589613,-0.247,1.345,-1.898,26.672,219.604,-0.427,1
2.598294,-0.102,1.167,-1.934,28.32,205.017,0.732,1
2.605614,-0.019,1.099,-1.929,32.043,191.284,1.403,1
2.613139,0.02,1.017,-1.896,32.043,175.292,3.173,1
2.621937,0.059,0.945,-1.822,29.113,163.024,4.333,1
2.628987,0.071,0.886,-1.762,25.085,152.282,6.164,1
2.636258,0.112,0.879,-1.726,20.629,142.333,7.141,1
2.644986,0.134,0.875,-1.692,19.592,131.225,7.629,1
2.651985,0.165,0.833,-1.628,21.789,120.727,8.239,1
2.660907,0.2,0.806,-1.579,22.766,108.947,9.094,1
2.668755,0.248,0.8,-1.552,23.925,100.158,9.704,1
2.676496,0.29,0.801,-1.545,23.681,90.454,10.131,1
2.684636,0.322,0.79,-1.531,20.568,81.481,10.131,1
2.692326,0.334,0.782,-1.509,16.235,70.983,10.253,1
2.700263,0.364,0.76,-1.451,12.39,61.767,10.192,1
2.707093,0.375,0.733,-1.353,6.042,52.978,10.437,1
2.714411,0.381,0.716,-1.22,-0.427,45.959,11.047,1
2.723141,0.385,0.718,-1.094,-3.417,39.855,11.291,1
2.730152,0.413,0.761,-0.996,-0.549,34.057,11.23,1
2.737695,0.428,0.752,-0.889,4.638,27.526,10.681,1
2.746824,0.458,0.716,-0.771,7.507,22.399,10.925,1
2.753204,0.5,0.678,-0.693,4.699,19.165,12.451,1
2.760925,0.525,0.654,-0.655,-2.807,16.662,14.16,1
2.769308,0.543,0.632,-0.632,-14.465,14.221,16.357,1
2.777927,0.575,0.594,-0.585,-33.752,12.084,18.676,1
2.786039,0.566,0.592,-0.525,-48.4,10.681,20.812,1
2.794013,0.593,0.627,-0.475,-57.861,9.948,22.583,1
2.802552,0.594,0.634,-0.457,-60.18,7.08,24.291,1
2.809493,0.573,0.635,-0.413,-57.373,5.065,26.123,1
2.817731,0.553,0.646,-0.373,-50.476,3.662,27.77,1
2.826504,0.538,0.66,-0.342,-40.893,2.136,28.869,1
2.833015,0.559,0.679,-0.322,-33.203,1.037,30.029,1
2.842031,0.58,0.703,-0.339,-28.259,0.122,30.456,1
2.848955,0.592,0.685,-0.337,-25.146,-2.197,30.639,1
2.85718,0.513,0.738,-0.327,-23.254,-1.953,30.578,1
2.866028,0.464,0.762,-0.352,-24.047,-4.028,30.578,1
2.873266,0.471,0.8,-0.326,-23.498,-5.554,29.968,1
2.881176,0.468,0.83,-0.297,-24.963,-7.08,29.296,1
2.889443,0.488,0.835,-0.258,-23.986,-8.605,28.381,1
2.898214,0.518,0.877,-0.229,-19.042,-8.728,27.648,1
2.905275,0.488,0.865,-0.236,-20.568,-9.582,25.695,1
2.913663,0.498,0.865,-0.219,-20.568,-10.559,24.536,1
2.922235,0.51,0.884,-0.234,-15.136,-11.718,23.803,1
2.930642,0.518,0.912,-0.239,-8.239,-13.488,22.644,1
2.937474,0.511,0.933,-0.233,-2.441,-15.319,21.606,1
2.946892,0.509,0.94,-0.23,-0.488,-16.235,20.446,1
2.953669,0.521,0.928,-0.228,-3.234,-17.211,19.409,1
2.962525,0.548,0.93,-0.218,-6.103,-17.7,18.676,1
2.969494,0.567,0.937,-0.2,-7.324,-18.859,17.883,1
2.977066,0.566,0.952,-0.168,-4.882,-20.202,17.395,1
2.984761,0.573,0.952,-0.138,-1.525,-20.385,17.089,1
2.993823,0.586,0.954,-0.117,-0.793,-20.812,16.357,1
3.000405,0.604,0.955,-0.101,-1.892,-20.629,15.869,1
3.009422,0.629,0.958,-0.084,-2.929,-20.263,15.319,1
3.017699,0.638,0.978,-0.078,-1.22,-19.836,14.648,1
3.026071,0.637,0.995,-0.087,0.244,-19.897,13.671,1
3.03301,0.623,1.021,-0.091,0.549,-19.47,12.878,1
3.041657,0.623,1.039,-0.092,-0.61,-19.348,11.413,1
3.050099,0.627,1.055,-0.091,-0.549,-19.287,10.131,1
3.056855,0.631,1.064,-0.083,1.77,-19.287,7.69,1
3.064353,0.634,1.064,-0.067,5.615,-19.348,5.676,1
3.071652,0.638,1.065,-0.049,11.23,-20.019,3.662,1
3.080973,0.631,1.06,-0.038,17.272,-20.324,1.708,1
3.088566,0.619,1.048,-0.022,21.057,-20.69,-0.183,1
3.095883,0.613,1.036,0.018,24.291,-20.385,-2.075,1
3.10457,0.621,1.028,0.029,27.16,-19.958,-3.54,1
3.112261,0.624,1.006,0.03,28.869,-19.958,-4.516,1
3.119585,0.622,0.978,0.053,26.55,-18.859,-5.737,1
3.127334,0.609,0.96,0.067,22.216,-17.761,-6.225,1
3.136361,0.619,0.958,0.065,16.296,-16.906,-6.591,1
3.143221,0.609,0.959,0.057,11.596,-16.052,-7.141,1
3.151453,0.6,0.952,0.055,9.521,-15.136,-7.873,1
3.159781,0.582,0.949,0.053,9.46,-14.587,-8.605,1
3.168579,0.574,0.924,0.048,8.911,-14.343,-8.972,1
3.175833,0.575,0.903,0.053,7.324,-13.916,-9.643,1
3.183472,0.573,0.883,0.052,6.225,-13.305,-9.887,1
3.190539,0.567,0.874,0.068,5.126,-13.305,-10.009,1
3.198758,0.557,0.859,0.082,4.638,-12.817,-10.07,1
3.205317,0.56,0.851,0.096,4.15,-12.084,-10.498,1
3.213947,0.548,0.849,0.109,3.723,-11.291,-10.375,1
3.221753,0.54,0.844,0.136,3.662,-10.314,-10.62,1
3.229206,0.539,0.839,0.163,4.089,-8.666,-10.559,1
3.238241,0.544,0.834,0.178,4.577,-7.019,-10.559,1
3.245495,0.563,0.833,0.189,4.577,-5.187,-10.62,1
3.252761,0.568,0.833,0.186,4.089,-3.234,-10.681,1
3.260291,0.571,0.828,0.179,3.173,-1.464,-10.62,1
3.269972,0.569,0.821,0.174,2.197,0.549,-10.681,1
3.276554,0.57,0.805,0.159,0.732,2.319,-11.169,1
3.284303,0.576,0.797,0.145,0.0,3.601,-10.803,1
3.292494,0.589,0.788,0.122,-0.793,4.638,-10.498,1
3.301416,0.583,0.785,0.106,-1.037,5.187,-10.009,1
3.308641,0.581,0.786,0.091,-0.671,5.798,-9.582,1
3.316699,0.579,0.793,0.085,-1.037,6.286,-9.155,1
3.324061,0.591,0.799,0.082,-2.685,7.202,-9.033,1
3.331658,0.59,0.8,0.078,-3.906,7.812,-9.033,1
3.340434,0.602,0.806,0.078,-4.333,8.483,-9.277,1
3.34755,0.609,0.806,0.08,-3.54,9.094,-9.094,1
3.356389,0.612,0.808,0.088,-2.685,10.131,-9.094,1
3.364488,0.612,0.805,0.086,-2.319,10.986,-9.094,1
3.371339,0.61,0.801,0.076,-4.394,12.39,-8.483,1
3.379805,0.605,0.796,0.063,-5.615,13.244,-8.3,1
3.388661,0.617,0.788,0.035,-6.286,14.16,-8.178,1
3.396446,0.627,0.782,0.008,-6.835,14.038,-7.812,1
3.404408,0.628,0.783,-0.015,-7.324,14.221,-7.507,1
3.412184,0.625,0.779,-0.042,-7.751,13.854,-7.324,1
3.42117,0.623,0.783,-0.061,-8.117,13.854,-7.141,1
3.42826,0.62,0.781,-0.074,-8.605,13.671,-7.019,1
3.436725,0.618,0.78,-0.087,-9.704,13.427,-7.08,1
3.444509,0.612,0.781,-0.092,-10.864,12.695,-6.896,1
3.45336,0.609,0.787,-0.09,-10.253,13.0,-7.08,1
3.460663,0.62,0.787,-0.097,-8.789,12.268,-7.08,1
3.470009,0.607,0.791,-0.101,-7.385,11.596,-7.324,1
3.47708,0.597,0.794,-0.098,-5.554,10.925,-7.08,1
3.485828,0.593,0.788,-0.101,-4.394,10.559,-6.958,1
3.494782,0.6,0.777,-0.104,-3.662,9.887,-6.591,1
3.50174,0.597,0.777,-0.109,-3.54,9.277,-6.53,1
3.510522,0.598,0.773,-0.111,-3.234,8.728,-5.92,1
3.518763,0.597,0.777,-0.124,-2.929,8.361,-5.737,1
3.527566,0.586,0.774,-0.141,-2.258,7.629,-5.92,1
3.536501,0.595,0.764,-0.153,-0.915,6.835,-5.493,1
3.543446,0.598,0.757,-0.17,-0.671,5.615,-5.432,1
3.551634,0.603,0.744,-0.169,-1.342,4.699,-5.31,1
3.560363,0.615,0.741,-0.168,-1.77,3.479,-4.943,1
3.567874,0.618,0.741,-0.163,-2.746,2.685,-5.004,1
3.575915,0.616,0.745,-0.15,-2.929,2.197,-4.821,1
3.585288,0.612,0.749,-0.145,-3.295,1.403,-4.333,1
3.593032,0.609,0.749,-0.136,-2.868,1.037,-4.089,1
3.600648,0.611,0.745,-0.134,-2.929,0.671,-3.601,1
3.609918,0.604,0.741,-0.135,-2.563,0.122,-3.173,1
3.617505,0.604,0.736,-0.136,-1.647,-0.671,-2.319,1
3.625836,0.615,0.725,-0.141,-1.037,-1.098,-1.586,1
3.634485,0.627,0.714,-0.136,-1.281,-1.892,-0.732,1
3.641477,0.627,0.715,-0.132,-2.258,-2.319,0.061,1
3.650345,0.624,0.723,-0.125,-3.723,-2.502,0.793,1
3.658052,0.625,0.729,-0.118,-5.676,-2.563,1.281,1
3.665741,0.62,0.739,-0.112,-6.896,-2.502,1.647,1
3.675244,0.612,0.747,-0.104,-6.835,-2.685,1.77,1
3.683075,0.605,0.756,-0.099,-5.676,-2.746,1.953,1
3.691333,0.601,0.758,-0.092,-4.76,-2.563,2.075,1
3.698333,0.605,0.756,-0.09,-2.807,-2.624,1.77,1
3.706838,0.613,0.752,-0.087,-0.793,-2.563,1.953,1
3.714979,0.612,0.745,-0.08,0.427,-2.624,2.075,1
3.722278,0.61,0.739,-0.067,-0.305,-2.563,2.502,1
3.73043,0.607,0.74,-0.055,-2.197,-2.075,2.868,1
3.737696,0.612,0.743,-0.046,-3.906,-1.831,3.234,1
3.746171,0.612,0.755,-0.043,-4.15,-1.647,3.723,1
3.756067,0.605,0.764,-0.028,-3.234,-1.831,4.089,1
3.763092,0.602,0.779,-0.002,-3.112,-1.525,4.333,1
3.772308,0.598,0.788,0.007,-5.004,-0.671,4.76,1
3.778649,0.595,0.791,0.014,-7.019,0.0,4.821,1
3.78564,0.593,0.802,0.02,-8.361,0.732,5.31,1
3.793284,0.597,0.805,0.022,-7.995,1.647,4.882,1
3.801996,0.6,0.807,0.016,-6.713,2.319,4.943,1
3.809443,0.599,0.812,0.017,-5.859,2.502,5.004,1
3.817351,0.595,0.81,0.019,-5.859,3.479,5.065,1
3.824707,0.599,0.811,0.027,-6.469,4.211,5.004,1
3.832172,0.6,0.816,0.033,-6.225,4.943,4.516,1
3.840386,0.621,0.785,0.046,-9.338,5.371,4.76,1
3.848665,0.604,0.82,0.034,-9.399,7.263,4.211,1
3.856091,0.579,0.834,0.044,-7.324,8.239,4.15,1
3.864219,0.621,0.816,0.038,-2.502,8.239,4.028,1
3.872167,0.635,0.806,0.022,3.112,8.483,3.417,1
3.87973,0.591,0.83,0.005,2.624,9.46,3.234,1
3.886803,0.568,0.841,-0.012,-1.403,10.559,3.112,1
3.894583,0.577,0.848,-0.045,-5.981,11.474,2.929,1
3.903314,0.6,0.85,-0.051,-8.361,11.657,2.685,1
3.910557,0.618,0.848,-0.06,-5.615,11.779,2.38,1
3.919875,0.617,0.851,-0.073,-1.586,11.291,2.014,1
3.927164,0.622,0.845,-0.074,2.319,10.864,1.342,1
3.934646,0.632,0.837,-0.065,2.746,10.864,0.915,1
3.943875,0.63,0.839,-0.062,1.647,11.474,0.732,1
3.951565,0.628,0.839,-0.072,-0.61,11.718,0.549,1
3.959261,0.623,0.844,-0.069,-1.098,12.023,0.183,1
3.965719,0.613,0.851,-0.073,-0.305,12.207,0.061,1
3.974176,0.61,0.857,-0.076,-0.305,12.145,-0.122,1
3.983258,0.603,0.864,-0.082,-1.586,12.39,-0.244,1
3.991574,0.603,0.867,-0.087,-3.417,12.39,-0.427,1
3.998267,0.606,0.87,-0.085,-3.784,12.695,-1.037,1
4.00558,0.605,0.876,-0.091,-3.234,12.878,-1.281,1
4.014228,0.604,0.883,-0.094,-1.525,12.451,-1.77,1
4.022279,0.619,0.866,-0.085,5.737,11.657,-2.685,1
4.030128,0.615,0.875,-0.079,12.817,12.268,-2.746,1
4.039804,0.589,0.869,-0.099,5.615,12.329,-3.051,1
4.047,0.601,0.872,-0.075,0.61,12.939,-3.601,1
4.054358,0.608,0.875,-0.088,0.976,13.61,-4.516,1
4.063468,0.598,0.867,-0.098,3.479,13.244,-4.882,1
4.070528,0.594,0.85,-0.1,5.249,13.549,-5.676,1
4.079757,0.595,0.836,-0.104,4.089,13.793,-5.676,1
4.087767,0.603,0.814,-0.119,0.793,14.038,-6.164,1
4.095292,0.601,0.802,-0.122,-2.563,14.038,-5.798,1
4.103438,0.601,0.802,-0.126,-3.845,13.916,-5.737,1
4.111243,0.593,0.797,-0.122,-3.906,13.793,-5.432,1
4.120404,0.582,0.816,-0.116,8.178,11.596,-4.943,1
4.127354,0.615,0.8,-0.066,15.563,12.695,-4.638,1
4.136464,0.603,0.766,-0.112,12.023,13.732,-4.089,1
4.143291,0.6,0.766,-0.124,3.234,13.916,-3.845,1
4.152415,0.6,0.768,-0.137,-2.563,15.136,-3.417,1
4.15954,0.597,0.778,-0.165,-3.295,14.526,-3.173,1
4.167216,0.601,0.785,-0.167,-0.183,14.16,-3.234,1
4.175769,0.602,0.78,-0.184,2.197,13.427,-3.112,1
4.183413,0.592,0.776,-0.184,3.417,12.451,-2.99,1
4.192518,0.592,0.771,-0.168,4.028,12.451,-3.051,1
4.19939,0.595,0.763,-0.167,2.441,12.451,-2.99,1
4.207907,0.591,0.759,-0.181,-2.258,12.573,-3.051,1
4.216026,0.592,0.763,-0.185,-5.065,12.268,-2.563,1
4.223527,0.593,0.77,-0.193,-5.676,11.84,-2.807,1
4.233026,0.594,0.775,-0.198,-5.737,11.474,-2.197,1
4.239736,0.593,0.775,-0.208,-6.713,11.169,-2.258,1
4.248075,0.602,0.782,-0.229,-6.469,10.559,-2.197,1
4.256002,0.603,0.79,-0.239,-5.554,9.216,-2.319,1
4.263859,0.601,0.793,-0.24,-4.333,8.544,-2.502,1
4.273974,0.607,0.792,-0.242,-3.356,7.568,-2.746,1
4.282902,0.611,0.798,-0.238,-2.319,6.347,-3.051,1
4.289363,0.611,0.799,-0.234,-1.831,5.371,-3.112,1
4.297981,0.616,0.795,-0.238,-1.22,4.638,-3.356,1
4.307259,0.613,0.795,-0.241,-0.915,3.967,-3.601,1
4.313817,0.61,0.793,-0.246,-0.854,3.173,-3.845,1
4.322129,0.609,0.786,-0.241,-1.098,2.502,-3.723,1
4.330327,0.611,0.772,-0.241,-1.403,1.831,-3.662,1
4.337655,0.607,0.775,-0.239,-1.77,1.098,-3.479,1
4.346703,0.608,0.781,-0.235,-1.77,0.244,-3.234,1
4.354583,0.605,0.78,-0.226,-1.708,-0.305,-3.356,1
4.362199,0.602,0.78,-0.215,-1.281,-1.037,-3.173,1
4.370818,0.603,0.78,-0.19,-1.159,-1.708,-3.051,1
4.37857,0.597,0.781,-0.176,-1.403,-1.892,-2.807,1
4.38802,0.599,0.782,-0.16,-1.708,-1.892,-2.502,1
4.394775,0.597,0.779,-0.146,-1.342,-1.953,-2.441,1
4.404079,0.594,0.773,-0.136,-0.366,-1.708,-2.319,1
4.411332,0.597,0.769,-0.134,0.732,-1.77,-2.075,1
4.420683,0.602,0.768,-0.128,0.732,-1.464,-1.831,1
4.427454,0.601,0.768,-0.121,0.061,-1.281,-1.464,1
4.43634,0.597,0.776,-0.119,-0.427,-1.098,-1.403,1
4.443648,0.603,0.776,-0.114,-0.427,-1.098,-1.159,1
4.451947,0.6,0.784,-0.107,-0.671,-0.61,-1.464,1
4.460145,0.6,0.782,-0.095,-1.037,-0.549,-1.037,1
4.467131,0.6,0.789,-0.08,-2.441,-0.061,-1.098,1
4.475502,0.594,0.798,-0.062,-3.051,0.488,-1.281,1
4.483892,0.594,0.809,-0.053,-3.112,1.403,-1.464,1
4.49091,0.595,0.806,-0.049,-2.807,2.319,-1.525,1
4.50026,0.601,0.803,-0.063,-2.319,3.051,-1.647,1
4.507418,0.6,0.801,-0.069,-2.502,3.54,-1.464,1
4.515365,0.602,0.802,-0.081,-3.967,4.333,-1.647,1
4.523355,0.604,0.805,-0.083,-5.432,4.76,-1.77,1
4.532585,0.606,0.808,-0.084,-6.164,5.493,-1.77,1
4.540308,0.615,0.814,-0.078,-5.004,5.92,-2.014,1
4.548353,0.611,0.822,-0.08,-2.38,6.042,-2.075,1
4.557439,0.61,0.824,-0.088,-0.244,6.347,-2.441,1
4.564386,0.607,0.821,-0.092,0.366,6.835,-2.624,1
4.573604,0.613,0.816,-0.107,0.0,7.263,-2.99,1
4.58137,0.621,0.813,-0.116,-0.061,7.568,-3.173,1
4.588758,0.627,0.808,-0.136,-0.061,7.629,-3.295,1
4.597318,0.625,0.81,-0.158,-0.366,7.812,-3.601,1
4.606026,0.626,0.81,-0.169,0.183,7.69,-3.723,1
4.613135,0.635,0.801,-0.195,2.197,7.08,-3.845,1
4.620674,0.641,0.792,-0.212,5.92,5.859,-4.15,1
4.629019,0.64,0.791,-0.226,8.605,5.004,-4.272,1
4.637605,0.645,0.776,-0.247,9.46,4.211,-4.394,1
4.644342,0.655,0.767,-0.262,8.728,2.99,-3.845,1
4.653821,0.642,0.756,-0.263,6.347,2.624,-3.662,1
4.660803,0.64,0.761,-0.262,3.54,2.258,-3.356,1
4.669373,0.642,0.755,-0.26,1.892,1.403,-3.234,1
4.676912,0.703,0.794,-0.261,9.216,1.525,-2.685,1
4.686244,0.598,0.76,-0.297,2.746,0.061,-2.502,1
4.693229,0.601,0.77,-0.258,-5.187,-0.061,-2.38,1
4.701128,0.624,0.765,-0.266,-5.371,-0.305,-2.38,1
4.70989,0.612,0.768,-0.262,-3.356,-1.953,-2.075,1
4.718756,0.604,0.764,-0.234,-0.915,-2.685,-2.197,1
4.725613,0.591,0.762,-0.236,-1.037,-3.112,-2.319,1
4.734907,0.583,0.764,-0.231,-1.77,-3.662,-2.136,1
4.740944,0.574,0.771,-0.22,-1.831,-4.028,-2.075,1
4.749373,0.568,0.777,-0.208,-1.403,-4.638,-1.892,1
4.757713,0.554,0.784,-0.191,-0.976,-4.882,-2.197,1
4.766004,0.55,0.788,-0.174,0.061,-5.065,-2.197,1
4.773078,0.565,0.791,-0.155,0.915,-4.943,-2.38,1
4.780926,0.574,0.791,-0.146,0.976,-4.638,-2.563,1
4.787666,0.579,0.795,-0.14,1.159,-4.76,-2.563,1
4.796794,0.58,0.798,-0.127,0.976,-4.028,-2.99,1
4.805129,0.591,0.796,-0.123,0.915,-4.089,-2.929,1
4.812334,0.607,0.796,-0.113,0.366,-3.723,-3.051,1
4.820448,0.616,0.801,-0.101,0.122,-3.417,-3.112,1
4.828091,0.617,0.806,-0.097,-0.183,-3.112,-3.417,1
4.835852,0.617,0.813,-0.071,-0.427,-2.624,-3.601,1
4.843286,0.618,0.816,-0.053,-1.403,-1.525,-3.845,1
4.85179,0.621,0.817,-0.026,-3.112,-0.793,-4.028,1
4.859679,0.626,0.809,0.013,-3.112,1.037,-4.394,1
4.867813,0.628,0.805,0.025,-2.624,2.563,-4.516,1
4.875632,0.633,0.792,0.037,-2.014,4.76,-4.638,1
4.883494,0.638,0.791,0.034,-2.685,6.469,-4.76,1
4.890798,0.643,0.787,0.024,-3.54,8.361,-4.394,1
4.898472,0.651,0.787,0.011,-4.333,9.521,-4.394,1
4.907323,0.647,0.79,0.02,-3.784,11.108,-4.272,1
4.914152,0.654,0.795,0.022,-3.906,12.756,-4.028,1
4.922959,0.658,0.806,0.021,-4.699,14.221,-3.845,1
4.929703,0.654,0.822,0.023,-5.554,15.563,-3.967,1
4.938985,0.66,0.843,0.018,-4.577,17.211,-4.516,1
4.945915,0.659,0.852,0.005,-2.929,18.188,-4.821,1
4.954748,0.661,0.86,0.009,-0.488,18.798,-5.187,1
4.961934,0.59,0.895,0.0,17.639,18.005,-4.882,1
4.97016,0.707,0.895,0.084,29.602,18.188,-6.042,1
4.97757,0.658,0.862,0.044,23.681,23.071,-6.103,1
4.985231,0.679,0.88,-0.029,6.042,22.583,-6.958,1
4.994361,0.656,0.898,0.007,-4.028,24.841,-7.202,1
5.002053,0.669,0.939,-0.022,-9.704,26.306,-8.178,1
5.01001,0.659,0.976,-0.025,-11.047,26.0,-9.216,1
5.01915,0.665,0.996,-0.016,-7.629,26.428,-10.864,1
5.026341,0.656,1.017,-0.021,-6.53,26.733,-12.451,1
5.033554,0.645,1.04,-0.026,-8.3,27.16,-14.221,1
5.042543,0.632,1.076,-0.018,-13.366,27.709,-16.296,1
5.050367,0.628,1.112,0.004,-18.31,28.625,-18.127,1
5.057393,0.633,1.148,0.017,-21.484,28.93,-20.263,1
5.065374,0.643,1.175,0.051,-21.057,29.296,-22.644,1
5.07338,0.666,1.191,0.076,-17.028,30.029,-25.207,1
5.080875,0.677,1.185,0.088,-10.681,30.7,-28.381,1
5.090008,0.658,1.183,0.095,6.713,29.907,-31.249,1
5.097138,0.712,1.117,0.155,13.732,31.921,-34.118,1
5.106087,0.674,1.043,0.102,3.784,36.621,-36.804,1
5.11337,0.688,0.998,0.08,-3.234,37.841,-39.672,1
5.12095,0.669,0.926,0.082,-9.887,42.48,-41.748,1
5.130237,0.701,0.935,0.067,-22.46,44.494,-43.762,1
5.137448,0.696,0.849,0.079,-29.357,48.278,-44.738,1
5.145581,0.72,0.806,0.036,-31.005,51.269,-46.264,1
5.153579,0.662,0.738,0.021,-22.46,52.795,-46.63,1
5.161604,0.638,0.677,-0.004,-3.417,55.236,-47.058,1
5.169247,0.616,0.591,-0.067,10.192,56.945,-46.936,1
5.177629,0.613,0.53,-0.131,18.798,58.776,-46.203,1
5.184792,0.562,0.43,-0.18,22.521,60.363,-44.311,1
5.192189,0.529,0.347,-0.225,33.63,61.035,-41.87,1
5.20152,0.539,0.212,-0.28,36.743,63.842,-38.452,1
5.20826,0.489,0.123,-0.405,29.418,65.917,-34.912,1
5.217582,0.472,0.025,-0.513,16.479,66.711,-29.846,1
5.225194,0.453,-0.062,-0.607,3.173,68.847,-24.963,1
5.232606,0.415,-0.136,-0.756,-9.582,68.664,-19.592,1
5.241752,0.37,-0.191,-0.864,-25.39,68.359,-12.878,1
5.250462,0.318,-0.239,-0.97,-35.278,66.284,-6.347,1
5.25701,0.271,-0.296,-1.078,-42.358,63.659,2.38,1
5.26498,0.241,-0.342,-1.171,-48.278,60.485,10.131,1
5.273289,0.188,-0.383,-1.267,-53.771,55.664,19.348,1
5.281424,0.151,-0.397,-1.345,-58.776,51.147,28.137,1
5.289525,0.108,-0.402,-1.432,-62.988,46.264,36.865,1
5.296494,0.056,-0.392,-1.516,-66.04,40.039,45.959,1
5.304331,0.0,-0.396,-1.602,-71.655,33.813,55.236,1
5.313243,-0.049,-0.368,-1.688,-79.345,26.611,65.551,1
5.321443,-0.115,-0.33,-1.791,-81.97,18.31,74.462,1
5.328621,-0.185,-0.271,-1.833,-73.486,7.324,84.838,1
5.337744,-0.186,-0.274,-1.892,-77.636,0.427,93.139,1
5.346512,-0.283,-0.214,-1.99,-87.036,-8.056,101.318,1
5.353518,-0.312,-0.17,-2.047,-92.102,-18.981,110.229,1
5.362971,-0.322,-0.124,-2.119,-96.679,-29.602,118.896,1
5.371699,-0.375,-0.072,-2.204,-105.285,-39.672,126.037,1
5.378753,-0.424,-0.018,-2.272,-114.868,-51.757,133.911,1
5.387843,-0.469,0.058,-2.337,-118.896,-61.95,140.686,1
5.394891,-0.518,0.143,-2.395,-120.666,-75.256,147.888,1
5.404197,-0.586,0.215,-2.435,-120.3,-87.341,153.747,1
5.411314,-0.65,0.291,-2.444,-114.379,-101.257,160.278,1
5.420332,-0.693,0.366,-2.459,-103.881,-113.952,165.893,1
5.428141,-0.791,0.458,-2.478,-92.041,-129.76,172.241,1
5.437384,-0.923,0.563,-2.473,-88.867,-143.066,177.307,1
5.444402,-1.046,0.649,-2.456,-93.017,-157.714,182.556,1
5.453211,-1.154,0.759,-2.404,-99.792,-171.569,187.683,1
5.462386,-1.24,0.873,-2.347,-103.637,-183.288,192.138,1
5.469446,-1.376,1.009,-2.25,-100.28,-196.594,196.289,1
5.478067,-1.487,1.124,-2.198,-90.881,-208.435,198.974,1
5.486996,-1.586,1.23,-2.123,-86.364,-222.228,201.232,1
5.494535,-1.682,1.345,-2.036,-85.388,-234.374,202.697,1
5.503709,-1.779,1.466,-1.97,-83.74,-244.567,203.063,1
5.511888,-1.899,1.606,-1.876,-80.444,-256.164,202.697,1
5.519452,-1.956,1.702,-1.805,-78.796,-265.075,201.232,1
5.527063,-2.065,1.823,-1.745,-78.002,-275.085,199.035,1
5.536606,-2.108,1.932,-1.699,-76.293,-284.912,196.96,1
5.54357,-2.167,2.077,-1.624,-76.232,-294.738,194.03,1
5.552666,-2.224,2.223,-1.462,-70.434,-305.419,189.697,1
5.559854,-2.228,2.332,-1.314,-59.265,-313.781,185.424,1
5.568053,-2.241,2.42,-1.147,-50.476,-321.533,179.382,1
5.576448,-2.232,2.481,-0.991,-45.288,-328.857,171.874,1
5.583202,-2.234,2.552,-0.838,-43.884,-333.801,164.611,1
5.591831,-2.206,2.621,-0.657,-41.931,-338.561,156.494,1
5.600591,-2.184,2.679,-0.496,-37.902,-342.956,146.667,1
5.608465,-2.192,2.724,-0.294,-34.301,-346.74,135.375,1
5.617609,-2.179,2.755,-0.11,-33.752,-348.632,125.061,1
5.62558,-2.1,2.766,0.086,-36.315,-348.999,112.487,1
5.633013,-2.048,2.767,0.262,-35.156,-348.327,99.304,1
5.642484,-2.003,2.727,0.412,-28.137,-347.412,87.524,1
5.649608,-1.932,2.646,0.545,-19.409,-344.665,75.5,1
5.65865,-1.784,2.513,0.71,-12.634,-340.942,61.523,1
5.665997,-1.651,2.381,0.846,-11.474,-336.791,50.537,1
5.674102,-1.545,2.26,0.966,-12.817,-330.81,40.771,1
5.682573,-1.439,2.141,1.104,-18.005,-323.181,31.433,1
5.689528,-1.353,2.064,1.24,-22.277,-315.795,24.291,1
5.697949,-1.267,1.982,1.393,-23.376,-306.701,18.188,1
5.706346,-1.149,1.893,1.533,-23.986,-295.349,11.474,1
5.714423,-1.02,1.796,1.666,-23.681,-285.339,6.408,1
5.723117,-0.928,1.703,1.778,-23.01,-272.644,1.037,1
5.730152,-0.821,1.627,1.875,-23.925,-260.681,-2.685,1
5.738397,-0.719,1.541,1.953,-23.681,-247.619,-5.981,1
5.746848,-0.663,1.47,1.978,-24.169,-232.788,-8.666,1
5.755177,-0.589,1.398,1.987,-24.719,-217.651,-10.681,1
5.763202,-0.493,1.326,1.999,-24.536,-204.528,-12.268,1
5.771372,-0.375,1.216,1.997,-23.864,-189.514,-13.549,1
5.780845,-0.282,1.129,1.985,-24.597,-177.062,-14.587,1
5.787606,-0.217,1.058,1.97,-25.39,-165.039,-15.014,1
5.795561,-0.173,1.014,1.961,-24.169,-151.123,-15.136,1
5.803189,-0.106,0.969,1.943,-21.362,-139.282,-14.892,1
5.811313,-0.038,0.929,1.913,-18.005,-127.38,-14.221,1
5.819695,0.041,0.874,1.846,-15.014,-113.647,-13.793,1
5.827878,0.113,0.821,1.774,-14.221,-102.783,-12.939,1
5.836061,0.19,0.757,1.68,-14.709,-90.82,-11.779,1
5.843577,0.257,0.723,1.586,-15.014,-81.359,-10.681,1
5.851979,0.31,0.7,1.482,-15.624,-72.448,-9.216,1
5.859596,0.336,0.69,1.364,-15.747,-63.232,-7.69,1
5.867853,0.367,0.687,1.271,-14.831,-56.335,-6.164,1
5.877836,0.41,0.688,1.185,-12.756,-49.987,-4.821,1
5.88451,0.452,0.689,1.095,-9.704,-43.579,-3.54,1
5.89278,0.473,0.686,1.028,-7.08,-38.452,-2.441,1
5.900371,0.496,0.684,0.946,-5.981,-33.142,-1.037,1
5.907784,0.5,0.681,0.894,-6.713,-29.235,0.305,1
5.917065,0.519,0.678,0.86,-8.666,-25.39,1.586,1
5.923967,0.545,0.672,0.846,-14.648,-20.874,3.051,1
5.931483,0.534,0.715,0.798,-19.958,-15.014,4.516,1
5.938976,0.533,0.755,0.745,-20.874,-11.108,5.249,1
5.946687,0.521,0.792,0.699,-18.493,-7.568,6.408,1
5.956122,0.522,0.817,0.648,-14.831,-4.76,6.53,1
5.962557,0.511,0.844,0.607,-10.314,-1.586,7.08,1
5.970315,0.5,0.85,0.551,-7.324,1.281,7.263,1
5.97803,0.5,0.857,0.508,-6.103,3.601,7.629,1
5.986957,0.482,0.868,0.475,-6.042,5.981,7.751,1
5.994098,0.477,0.891,0.439,-5.859,8.178,8.544,1
6.001437,0.462,0.926,0.409,-4.028,10.375,8.544,1
6.00922,0.469,0.957,0.379,-0.244,11.901,8.056,1
6.017745,0.479,0.979,0.354,3.784,13.305,7.507,1
6.024854,0.483,1.002,0.319,6.958,14.77,6.591,1
6.032206,0.51,1.019,0.276,7.202,16.174,5.676,1
6.039605,0.525,1.033,0.229,6.286,17.211,4.272,1
6.048,0.513,1.044,0.185,5.371,17.822,3.479,1
6.055195,0.512,1.063,0.145,5.981,18.005,2.075,1
6.063995,0.525,1.065,0.116,6.774,18.127,0.61,1
6.071213,0.52,1.06,0.088,6.469,18.005,-1.281,1
6.079924,0.519,1.063,0.074,5.859,17.578,-2.563,1
6.087095,0.514,1.055,0.053,4.699,17.395,-3.845,1
6.094581,0.516,1.045,0.039,4.638,17.517,-5.187,1
6.102347,0.527,1.032,0.024,4.272,17.272,-6.347,1
6.110654,0.526,1.018,0.003,2.807,17.089,-7.385,1
6.118193,0.521,1.023,-0.023,3.784,16.601,-8.3,1
6.125925,0.523,1.018,-0.045,6.164,15.38,-9.216,1
6.133812,0.523,1.002,-0.066,8.789,14.221,-9.948,1
6.142891,0.531,0.992,-0.081,11.047,12.695,-10.62,1
6.150202,0.53,0.978,-0.089,11.23,11.23,-11.047,1
6.157957,0.524,0.963,-0.093,11.108,10.009,-11.596,1
6.166897,0.532,0.953,-0.101,10.864,9.216,-11.901,1
6.175669,0.522,0.946,-0.1,9.826,8.422,-12.573,1
6.183232,0.519,0.934,-0.086,9.46,7.69,-13.244,1
6.190165,0.522,0.927,-0.083,8.728,7.385,-13.61,1
6.199343,0.518,0.919,-0.078,7.812,6.469,-13.671,1
6.206445,0.518,0.905,-0.068,6.408,6.164,-14.038,1
6.214015,0.514,0.89,-0.066,5.126,5.676,-14.404,1
6.223268,0.507,0.874,-0.068,3.54,5.493,-14.282,1
6.230233,0.504,0.863,-0.059,1.098,4.821,-14.099,1
6.238967,0.495,0.853,-0.047,-0.366,4.577,-13.793,1
6.247077,0.5,0.851,-0.042,-1.586,4.211,-13.366,1
6.254698,0.494,0.854,-0.038,-1.953,4.272,-12.756,1
6.262609,0.476,0.859,-0.036,-1.464,3.845,-12.512,1
6.271811,0.474,0.861,-0.024,-1.464,3.906,-12.084,1
6.279444,0.466,0.856,-0.014,0.0,3.906,-12.084,1
6.286401,0.474,0.847,-0.015,1.708,4.089,-11.657,1
6.295267,0.477,0.839,-0.014,2.38,3.967,-11.718,1
6.301949,0.479,0.827,-0.018,1.464,4.028,-11.352,1
6.309658,0.475,0.814,-0.014,-0.61,4.211,-11.291,1
6.318917,0.481,0.794,-0.016,-3.295,4.455,-10.925,1
6.326555,0.487,0.782,-0.018,-6.164,4.516,-10.192,1
6.335008,0.505,0.775,-0.019,-10.62,4.394,-9.46,1
6.341899,0.535,0.763,-0.023,-16.479,4.76,-8.911,1
6.351268,0.512,0.779,-0.017,-21.423,5.676,-8.544,1
6.359537,0.516,0.791,-0.032,-24.475,5.981,-7.69,1
6.366207,0.513,0.802,-0.043,-24.597,5.554,-7.141,1
6.37445,0.512,0.813,-0.062,-22.888,5.31,-6.591,1
6.382779,0.508,0.818,-0.077,-21.728,4.577,-5.798,1
6.390708,0.51,0.818,-0.083,-20.935,4.089,-5.371,1
6.396746,0.518,0.819,-0.087,-19.836,3.356,-5.065,1
6.404741,0.526,0.817,-0.086,-20.08,2.563,-4.699,1
6.412641,0.533,0.82,-0.081,-19.287,2.258,-4.943,1
6.42085,0.533,0.817,-0.084,-17.517,1.892,-4.516,1
6.430059,0.526,0.821,-0.082,-14.465,1.098,-4.638,1
6.436646,0.537,0.813,-0.08,-10.314,0.061,-4.76,1
6.445261,0.545,0.813,-0.063,-6.713,-0.671,-4.699,1
6.452894,0.545,0.804,-0.049,-3.784,-0.915,-4.699,1
6.461795,0.544,0.798,-0.042,-1.464,-0.976,-4.516,1
6.469014,0.534,0.793,-0.044,-0.976,-0.976,-4.028,1
6.477389,0.527,0.796,-0.04,-1.708,-1.159,-3.784,1
6.485668,0.518,0.812,-0.046,-1.403,-1.22,-3.356,1
6.494072,0.52,0.823,-0.052,-0.488,-1.281,-3.173,1
6.502814,0.526,0.824,-0.048,0.915,-1.708,-2.929,1
6.511492,0.516,0.828,-0.043,3.173,-1.953,-2.685,1
6.518772,0.523,0.816,-0.032,5.92,-2.38,-2.502,1
6.527776,0.534,0.812,-0.027,8.3,-2.624,-2.197,1
6.536229,0.542,0.795,-0.01,9.033,-2.441,-1.708,1
6.5432,0.547,0.786,-0.011,7.69,-2.136,-1.586,1
6.551548,0.541,0.775,-0.003,5.004,-1.892,-1.098,1
6.560916,0.542,0.779,0.002,3.295,-1.892,-0.732,1
6.568336,0.534,0.78,0.019,3.112,-1.464,-0.244,1
6.576613,0.529,0.79,0.023,3.479,-1.281,0.122,1
6.584305,0.523,0.793,0.026,3.723,-0.732,0.671,1
6.592701,0.516,0.791,0.021,2.624,-0.549,1.037,1
6.600293,0.51,0.798,0.014,-0.305,0.183,1.525,1
6.607536,0.502,0.803,0.013,-2.502,0.732,1.831,1
6.61635,0.499,0.818,0.007,-3.54,0.854,1.953,1
6.624107,0.496,0.827,0.016,-2.868,1.159,2.319,1
6.631777,0.498,0.832,0.014,-0.488,1.464,2.746,1
6.638873,0.498,0.837,0.009,1.953,1.403,2.868,1
6.646475,0.506,0.835,0.009,2.441,1.831,3.173,1
6.654032,0.506,0.819,0.013,2.868,1.831,3.417,1
6.661529,0.512,0.82,0.009,3.234,1.953,3.723,1
6.668656,0.517,0.824,0.0,2.929,1.892,3.967,1
6.676187,0.516,0.832,0.004,2.746,2.075,4.089,1
6.683668,0.519,0.826,-0.004,2.868,1.953,4.516,1
6.693525,0.547,0.801,0.002,0.244,2.014,4.76,1
6.700754,0.526,0.822,-0.002,-1.77,2.441,4.943,1
6.707697,0.525,0.835,-0.022,-2.38,2.624,5.187,1
6.715348,0.531,0.852,-0.045,-5.004,2.136,5.187,1
6.722931,0.537,0.863,-0.038,-5.493,1.831,5.126,1
6.732008,0.532,0.877,-0.057,-5.249,1.647,4.882,1
6.739076,0.542,0.89,-0.066,-4.699,0.854,4.699,1
6.746774,0.536,0.901,-0.058,-5.187,0.427,4.516,1
6.754803,0.532,0.916,-0.066,-3.479,0.061,4.15,1
6.764173,0.534,0.93,-0.066,-0.244,-0.793,3.784,1
6.771416,0.535,0.937,-0.061,3.173,-1.281,3.112,1
6.778946,0.545,0.934,-0.063,6.103,-1.953,2.807,1
6.786905,0.544,0.933,-0.063,7.629,-2.197,2.136,1
6.793991,0.541,0.926,-0.068,6.713,-2.807,1.831,1
6.802621,0.536,0.927,-0.068,4.76,-2.929,1.525,1
6.809569,0.533,0.935,-0.072,2.746,-3.112,1.098,1
6.817933,0.531,0.939,-0.079,1.708,-3.662,0.793,1
6.824979,0.53,0.942,-0.079,1.647,-4.394,-0.061,1
6.833048,0.533,0.949,-0.071,2.136,-5.065,-0.488,1
6.840809,0.536,0.948,-0.065,3.295,-5.676,-1.159,1
6.850507,0.541,0.949,-0.052,4.211,-6.103,-1.831,1
6.858404,0.538,0.95,-0.05,4.211,-6.347,-2.563,1
6.866359,0.534,0.945,-0.041,5.065,-6.591,-3.051,1
6.874697,0.535,0.939,-0.044,5.737,-6.958,-3.54,1
6.881032,0.532,0.932,-0.048,4.943,-6.835,-4.211,1
6.889066,0.533,0.926,-0.05,3.906,-7.08,-4.516,1
6.895798,0.53,0.922,-0.048,3.051,-7.324,-4.882,1
6.903852,0.534,0.923,-0.046,3.173,-7.629,-5.249,1
6.910811,0.533,0.918,-0.04,3.784,-7.934,-5.432,1
6.919194,0.539,0.915,-0.037,4.882,-8.117,-5.859,1
6.927512,0.541,0.904,-0.037,5.187,-8.239,-6.042,1
6.935887,0.533,0.893,-0.024,4.455,-8.483,-5.859,1
6.942637,0.532,0.885,-0.02,3.967,-8.422,-6.225,1
6.951434,0.529,0.875,-0.014,3.479,-8.666,-6.408,1
6.958182,0.521,0.866,-0.01,2.868,-8.422,-6.225,1
6.967404,0.522,0.862,-0.002,2.136,-8.544,-6.347,1
6.97477,0.52,0.858,0.005,2.258,-8.605,-6.286,1
6.981903,0.517,0.854,0.011,2.136,-8.544,-6.408,1
6.990645,0.517,0.844,0.023,2.38,-8.605,-6.591,1
6.998428,0.52,0.84,0.028,2.685,-8.361,-6.347,1
7.006609,0.517,0.833,0.037,2.807,-8.361,-6.286,1
7.013597,0.519,0.825,0.044,2.563,-7.934,-6.286,1
7.02223,0.525,0.816,0.055,1.953,-7.873,-6.164,1
7.029226,0.526,0.809,0.063,1.892,-7.446,-5.676,1
7.03697,0.537,0.808,0.067,1.77,-6.652,-5.432,1
7.044973,0.534,0.796,0.062,1.708,-6.286,-5.126,1
7.052324,0.527,0.799,0.059,1.831,-5.859,-4.882,1
7.060549,0.521,0.802,0.054,1.708,-5.615,-4.394,1
7.068038,0.515,0.805,0.054,1.708,-5.615,-3.967,1
7.076584,0.511,0.811,0.056,2.563,-5.554,-3.784,1
7.083204,0.507,0.835,0.063,3.906,-5.554,-3.479,1
7.091952,0.503,0.862,0.074,8.117,-5.004,-3.173,1
7.098802,0.5,0.887,0.076,14.465,-5.004,-3.051,1
7.106393,0.515,0.896,0.073,21.362,-5.187,-3.54,1
7.115562,0.526,0.903,0.072,27.77,-5.065,-3.845,1
7.122105,0.534,0.898,0.065,31.616,-4.821,-4.272,1
7.130071,0.55,0.888,0.042,30.639,-4.638,-4.699,1
7.137599,0.552,0.884,0.036,25.207,-4.089,-5.187,1
7.14628,0.551,0.884,0.019,15.319,-3.784,-5.31,1
7.154304,0.552,0.891,0.01,5.554,-3.967,-5.432,1
7.162951,0.564,0.905,0.012,-3.295,-3.784,-6.042,1
7.169572,0.572,0.915,0.009,-7.263,-3.173,-6.408,1
7.179275,0.576,0.917,0.008,-7.995,-3.234,-6.896,1
7.186172,0.59,0.923,-0.007,-7.202,-3.54,-7.263,1
7.194998,0.584,0.932,-0.02,-5.187,-4.15,-7.873,1
7.202514,0.577,0.937,-0.03,-1.892,-4.577,-7.995,1
7.211385,0.571,0.939,-0.047,0.671,-5.126,-8.605,1
7.218428,0.571,0.943,-0.064,0.427,-6.164,-8.728,1
7.227031,0.577,0.942,-0.063,-1.342,-6.53,-9.277,1
7.236293,0.58,0.937,-0.061,-2.624,-6.896,-10.192,1
7.243415,0.579,0.945,-0.062,-3.601,-7.629,-10.498,1
7.251215,0.579,0.934,-0.06,-3.54,-8.239,-11.169,1
7.260469,0.575,0.934,-0.056,-2.319,-8.789,-11.596,1
7.267503,0.568,0.924,-0.055,-1.525,-9.399,-12.268,1
7.276827,0.567,0.921,-0.059,-0.854,-10.192,-12.756,1
7.283379,0.555,0.916,-0.046,-0.732,-10.986,-13.671,1
7.292615,0.56,0.901,-0.041,-0.366,-11.657,-14.038,1
7.299869,0.56,0.891,-0.035,-0.366,-12.329,-14.587,1
7.308505,0.563,0.878,-0.017,-0.183,-12.695,-15.136,1
7.316339,0.561,0.859,-0.001,-0.061,-13.122,-15.258,1
7.325545,0.56,0.847,0.002,-1.403,-13.061,-15.319,1
7.333873,0.559,0.845,0.007,-3.784,-12.756,-15.136,1
7.340829,0.562,0.837,0.011,-5.554,-13.0,-15.258,1
7.349118,0.567,0.831,0.012,-7.141,-13.0,-14.953,1
7.356815,0.577,0.83,0.018,-8.3,-12.817,-14.892,1
7.3651,0.576,0.828,0.019,-8.728,-13.244,-14.526,1
7.371965,0.57,0.839,0.02,-8.361,-13.732,-14.221,1
7.380587,0.568,0.837,0.019,-7.08,-13.977,-14.221,1
7.387291,0.566,0.845,0.032,-5.004,-14.221,-14.16,1
7.39516,0.568,0.846,0.033,-2.258,-14.465,-14.16,1
7.404436,0.58,0.844,0.031,-0.305,-14.526,-14.221,1
7.411473,0.59,0.844,0.03,0.427,-14.831,-14.587,1
7.420189,0.594,0.852,0.018,-0.976,-14.587,-14.587,1
7.429894,0.602,0.868,-0.01,-4.089,-14.526,-15.197,1
7.437076,0.596,0.883,-0.036,-6.713,-14.648,-15.502,1
7.445729,0.587,0.903,-0.065,-8.911,-14.953,-15.808,1
7.45445,0.593,0.928,-0.101,-10.62,-15.869,-16.357,1
7.461652,0.605,0.963,-0.135,-11.047,-17.395,-17.15,1
7.470959,0.613,0.987,-0.147,-9.521,-18.798,-18.127,1
7.478019,0.63,1.01,-0.162,-6.347,-20.141,-19.104,1
7.486784,0.654,1.042,-0.185,-2.38,-21.728,-20.141,1
7.494372,0.666,1.075,-0.226,-2.136,-23.193,-21.362,1
7.502241,0.659,1.11,-0.268,-3.601,-25.329,-22.766,1
7.511528,0.657,1.142,-0.304,-4.943,-27.404,-24.902,1
7.519799,0.652,1.17,-0.351,-5.615,-30.09,-26.794,1
7.527086,0.628,1.2,-0.377,-3.662,-33.569,-29.846,1
7.536403,0.619,1.219,-0.401,-0.976,-37.231,-32.714,1
7.543291,0.597,1.238,-0.414,1.098,-40.649,-35.644,1
7.551434,0.572,1.246,-0.435,4.455,-43.945,-38.879,1
7.560682,0.54,1.261,-0.462,9.704,-47.424,-41.931,1
7.568795,0.537,1.28,-0.481,17.944,-52.368,-45.837,1
7.576099,0.554,1.286,-0.492,24.902,-56.64,-49.255,1
7.583795,0.579,1.265,-0.51,30.029,-61.035,-52.795,1
7.592339,0.586,1.223,-0.541,27.77,-66.711,-57.006,1
7.601725,0.544,1.201,-0.497,23.193,-71.533,-60.119,1
7.608834,0.542,1.166,-0.438,22.338,-76.232,-64.025,1
7.618181,0.531,1.117,-0.37,23.986,-80.2,-67.26,1
7.625248,0.52,1.048,-0.328,26.611,-84.472,-71.044,1
7.633274,0.508,0.961,-0.279,26.428,-88.073,-73.486,1
7.640859,0.489,0.859,-0.19,21.057,-91.552,-76.171,1
7.64888,0.47,0.778,-0.088,14.892,-93.505,-78.063,1
7.657228,0.452,0.702,0.021,10.192,-94.604,-79.223,1
7.664802,0.455,0.632,0.104,8.666,-94.848,-79.956,1
7.673917,0.434,0.55,0.193,9.521,-95.764,-80.2,1
7.681083,0.407,0.463,0.279,10.62,-95.214,-79.467,1
7.688509,0.407,0.372,0.351,10.559,-93.872,-78.613,1
7.697448,0.4,0.279,0.406,8.483,-92.529,-76.782,1
7.705172,0.379,0.213,0.444,6.774,-90.393,-74.035,1
7.712188,0.366,0.17,0.468,7.202,-89.172,-71.472,1
7.720388,0.362,0.118,0.499,10.681,-88.195,-68.542,1
7.729093,0.376,0.049,0.53,15.686,-87.036,-64.819,1
7.736241,0.369,0.005,0.549,20.324,-85.266,-60.363,1
7.745019,0.36,-0.052,0.593,23.559,-83.679,-55.969,1
7.752348,0.371,-0.107,0.649,25.39,-81.542,-50.903,1
7.761744,0.402,-0.165,0.675,24.475,-78.369,-44.311,1
7.770271,0.411,-0.199,0.682,19.653,-75.622,-37.902,1
7.778774,0.408,-0.221,0.707,14.892,-73.547,-31.982,1
7.785795,0.416,-0.223,0.726,12.084,-70.983,-25.024,1
7.794094,0.419,-0.224,0.73,10.864,-68.969,-18.92,1
7.801736,0.416,-0.204,0.723,9.826,-67.321,-13.183,1
7.809981,0.412,-0.186,0.74,9.704,-66.406,-6.53,1
7.816837,0.42,-0.178,0.774,10.986,-65.185,-1.037,1
7.825434,0.433,-0.155,0.798,14.526,-64.147,3.967,1
7.832913,0.414,-0.123,0.815,19.165,-63.049,8.728,1
7.841107,0.417,-0.107,0.83,25.146,-62.316,12.878,1
7.847993,0.448,-0.083,0.863,32.836,-62.011,16.845,1
7.856835,0.413,-0.043,0.944,46.203,-61.828,20.202,1
7.864635,0.38,-0.032,1.025,62.438,-60.485,23.559,1
7.871358,0.398,-0.05,1.126,74.035,-59.265,26.489,1
7.880092,0.392,-0.078,1.224,81.115,-56.091,28.991,1
7.887339,0.363,-0.107,1.312,82.946,-52.368,32.287,1
7.896448,0.365,-0.148,1.396,83.862,-48.156,35.217,1
7.904538,0.365,-0.199,1.457,83.19,-43.334,38.757,1
7.911695,0.332,-0.24,1.512,77.697,-38.391,42.846,1
7.920503,0.283,-0.27,1.567,67.443,-32.226,47.973,1
7.927286,0.251,-0.282,1.643,58.654,-26.245,53.039,1
7.936101,0.219,-0.28,1.76,53.161,-20.263,58.349,1
7.944633,0.176,-0.271,1.937,52.795,-13.183,63.781,1
7.951088,0.119,-0.24,2.098,61.218,-3.784,70.678,1
7.958674,0.071,-0.213,2.284,73.059,4.272,77.148,1
7.967301,0.022,-0.208,2.489,83.251,14.282,83.679,1
7.975317,-0.031,-0.202,2.696,90.942,26.611,90.209,1
7.981828,-0.11,-0.218,2.895,95.336,39.978,97.473,1
7.989782,-0.217,-0.23,3.066,98.083,53.649,104.553,1
7.997253,-0.348,-0.228,3.253,101.135,71.044,113.281,1
8.005997,-0.467,-0.246,3.428,104.553,87.341,120.788,1
8.012558,-0.597,-0.27,3.599,108.154,101.135,127.868,1
8.020226,-0.738,-0.298,3.75,113.037,121.704,137.268,1
8.029504,-0.876,-0.32,3.888,116.149,139.526,145.874,1
8.037406,-1.009,-0.336,4.021,119.018,157.897,155.09,1
8.044858,-1.149,-0.342,4.13,118.286,177.795,164.855,1
8.051387,-1.324,-0.339,4.146,112.792,199.035,175.17,1
8.060735,-1.489,-0.282,4.038,99.975,223.693,187.866,1
8.068019,-1.666,-0.165,3.846,87.646,244.14,198.974,1
8.075811,-1.893,0.076,3.569,80.505,265.136,211.669,1
8.084765,-2.096,0.326,3.319,85.937,281.311,221.801,1
8.091622,-2.315,0.572,3.06,95.153,295.532,231.75,1
8.099211,-2.538,0.831,2.785,98.205,308.41,241.027,1
8.108629,-2.745,1.123,2.537,94.604,320.678,249.084,1
8.116022,-2.95,1.477,2.254,91.796,334.35,256.469,1
8.123426,-3.098,1.776,1.989,92.956,344.36,260.437,1
8.1312,-3.222,2.103,1.718,93.322,352.478,262.39,1
8.138972,-3.342,2.533,1.416,88.317,359.924,260.62,1
8.147565,-3.393,2.943,1.172,79.467,367.614,252.99,1
8.154468,-3.371,3.313,0.921,70.373,372.924,241.699,1
8.162067,-3.345,3.519,0.656,59.936,377.197,227.111,1
8.169678,-3.232,3.606,0.397,45.227,380.92,211.669,1
8.178684,-3.007,3.813,0.162,31.188,384.094,193.237,1
8.186607,-2.896,3.891,-0.179,20.141,385.253,173.217,1
8.194734,-2.759,3.949,-0.408,13.854,382.263,149.78,1
8.203053,-2.571,3.939,-0.595,16.174,379.028,129.638,1
8.210391,-2.348,3.869,-0.811,18.005,373.596,107.482,1
8.217992,-2.2,3.771,-0.965,18.615,367.309,89.05,1
8.225599,-2.08,3.662,-1.09,20.568,360.168,70.678,1
8.2344,-1.944,3.534,-1.187,25.939,351.928,52.734,1
8.241764,-1.77,3.358,-1.296,34.912,341.918,33.935,1
8.251065,-1.654,3.179,-1.392,36.621,331.726,19.165,1
8.258227,-1.516,2.981,-1.458,36.437,322.998,5.737,1
8.266755,-1.416,2.8,-1.538,32.897,311.95,-8.361,1
8.274713,-1.277,2.612,-1.601,32.348,299.865,-21.118,1
8.283116,-1.175,2.463,-1.663,36.987,288.818,-30.822,1
8.291219,-1.062,2.292,-1.733,41.442,275.512,-40.405,1
8.300458,-0.963,2.171,-1.793,41.809,263.549,-47.302,1
8.307385,-0.844,2.025,-1.854,39.794,249.023,-54.382,1
8.315618,-0.755,1.906,-1.873,38.513,236.633,-59.57,1
8.323928,-0.664,1.79,-1.879,36.682,225.097,-64.025,1
8.332794,-0.557,1.655,-1.874,34.851,211.547,-68.298,1
8.339574,-0.491,1.542,-1.855,34.545,200.073,-71.411,1
8.349212,-0.411,1.407,-1.817,34.362,189.392,-73.547,1
8.356165,-0.345,1.299,-1.786,33.996,177.856,-75.5,1
8.364937,-0.251,1.184,-1.78,31.616,167.907,-76.782,1
8.373356,-0.192,1.118,-1.768,29.724,156.372,-77.636,1
8.379791,-0.148,1.051,-1.756,29.663,146.484,-78.308,1
8.387819,-0.129,0.994,-1.744,31.066,135.742,-78.857,1
8.395811,-0.105,0.932,-1.702,34.79,124.877,-78.613,1
8.4044,-0.102,0.865,-1.644,39.367,112.121,-78.247,1
8.413104,-0.09,0.8,-1.552,41.076,102.783,-77.514,1
8.419751,-0.063,0.721,-1.452,40.893,93.2,-75.988,1
8.427828,-0.027,0.644,-1.337,41.687,86.12,-73.974,1
8.436613,0.016,0.569,-1.241,41.687,80.2,-71.289,1
8.443669,0.048,0.514,-1.178,38.696,75.195,-68.359,1
8.451952,0.088,0.461,-1.101,34.912,70.922,-65.429,1
8.459957,0.122,0.438,-1.055,32.409,66.223,-61.706,1
8.468501,0.178,0.425,-1.026,32.287,61.828,-58.776,1
8.475655,0.216,0.416,-0.998,35.766,57.128,-55.908,1
8.484678,0.256,0.4,-0.968,42.236,52.001,-52.185,1
8.491947,0.29,0.375,-0.95,46.447,47.363,-49.011,1
8.499864,0.334,0.351,-0.925,47.424,43.457,-45.776,1
8.50681,0.392,0.327,-0.892,44.189,40.039,-42.053,1
8.515972,0.431,0.31,-0.847,38.085,35.949,-37.841,1
8.522992,0.459,0.305,-0.791,32.165,33.325,-33.996,1
8.532295,0.493,0.3,-0.739,26.306,31.188,-30.456,1
8.538911,0.527,0.305,-0.712,19.958,28.686,-25.817,1
8.546406,0.553,0.309,-0.689,15.93,26.428,-22.399,1
8.554649,0.556,0.324,-0.665,12.145,23.803,-18.737,1
8.562189,0.562,0.34,-0.623,8.789,21.85,-15.38,1
8.571213,0.571,0.376,-0.581,6.958,19.714,-12.329,1
8.580103,0.579,0.396,-0.561,7.629,17.272,-9.094,1
8.58785,0.579,0.418,-0.549,10.498,15.502,-6.835,1
8.595509,0.588,0.42,-0.531,12.268,13.0,-3.845,1
8.602933,0.587,0.424,-0.511,11.535,11.352,-1.953,1
8.61233,0.586,0.436,-0.507,7.324,10.131,0.549,1
8.619388,0.589,0.45,-0.499,1.22,9.033,2.563,1
8.628331,0.588,0.472,-0.479,-4.76,7.873,4.577,1
8.636579,0.571,0.489,-0.464,-9.399,6.408,6.408,1
8.642666,0.568,0.505,-0.451,-12.512,5.371,7.995,1
8.651963,0.562,0.529,-0.455,-15.869,4.211,9.399,1
8.658913,0.567,0.558,-0.453,-21.728,2.929,10.925,1
8.667959,0.573,0.592,-0.45,-27.832,1.953,11.718,1
8.675698,0.579,0.637,-0.458,-33.142,0.854,12.878,1
8.682633,0.572,0.678,-0.456,-34.973,-0.61,13.427,1
8.692032,0.563,0.718,-0.449,-30.273,-2.38,13.671,1
8.70066,0.567,0.735,-0.449,-23.437,-4.15,13.977,1
8.708111,0.578,0.744,-0.448,-15.747,-6.469,14.038,1
8.716276,0.61,0.747,-0.45,-10.803,-7.69,13.793,1
8.724055,0.625,0.753,-0.457,-7.141,-9.704,13.916,1
8.733041,0.641,0.754,-0.447,-7.263,-10.986,13.854,1
8.740624,0.662,0.764,-0.432,-11.352,-12.268,13.916,1
8.748317,0.674,0.775,-0.429,-16.662,-13.244,13.671,1
8.755732,0.686,0.784,-0.43,-24.169,-14.221,13.244,1
8.763986,0.681,0.804,-0.427,-29.418,-15.319,13.305,1
8.771881,0.671,0.812,-0.418,-33.325,-16.174,12.756,1
8.778824,0.67,0.824,-0.418,-36.56,-17.639,12.756,1
8.788289,0.681,0.829,-0.4,-38.085,-19.042,12.451,1
8.795262,0.671,0.827,-0.383,-38.635,-20.202,12.451,1
8.804526,0.654,0.814,-0.359,-39.611,-21.545,12.207,1
8.811432,0.639,0.812,-0.328,-39.001,-22.277,11.84,1
8.818915,0.622,0.829,-0.279,-32.958,-23.193,11.596,1
8.827425,0.623,0.854,-0.224,-23.742,-23.681,10.986,1
8.835012,0.639,0.87,-0.181,-9.155,-24.353,9.765,1
8.843229,0.674,0.876,-0.13,4.394,-25.146,8.544,1
8.850716,0.688,0.885,-0.091,14.892,-24.78,6.958,1
8.858799,0.682,0.88,-0.053,18.188,-24.475,5.737,1
8.866821,0.654,0.879,-0.007,17.211,-23.254,4.516,1
8.874228,0.647,0.873,0.013,13.977,-20.935,3.295,1
8.881832,0.641,0.866,0.031,10.314,-19.165,2.014,1
8.889016,0.632,0.859,0.025,7.629,-17.089,0.976,1
8.897792,0.628,0.842,0.02,4.394,-15.502,0.366,1
8.904365,0.628,0.839,-0.004,-0.305,-13.793,-0.549,1
8.913195,0.624,0.833,-0.03,-5.92,-12.451,-1.098,1
8.920846,0.62,0.831,-0.06,-11.779,-10.742,-1.77,1
8.928382,0.623,0.838,-0.093,-16.357,-9.704,-2.197,1
8.936921,0.619,0.844,-0.121,-16.723,-9.033,-2.807,1
8.944412,0.621,0.847,-0.145,-13.122,-9.155,-3.723,1
8.953688,0.645,0.841,-0.164,-6.774,-9.582,-4.455,1
8.961639,0.677,0.818,-0.174,-1.953,-9.887,-4.943,1
8.970063,0.688,0.804,-0.188,-0.732,-10.07,-5.371,1
8.977788,0.7,0.792,-0.191,-2.624,-9.765,-5.432,1
8.986456,0.708,0.784,-0.192,-6.164,-9.46,-5.615,1
8.993986,0.702,0.785,-0.2,-10.07,-8.911,-5.615,1
9.003282,0.7,0.783,-0.211,-14.648,-8.483,-5.92,1
9.011131,0.703,0.781,-0.22,-17.578,-8.483,-6.225,1
9.018582,0.694,0.771,-0.232,-20.507,-8.85,-6.225,1
9.026322,0.677,0.763,-0.25,-23.01,-9.155,-6.469,1
9.035186,0.658,0.761,-0.253,-24.78,-9.704,-6.469,1
9.042933,0.635,0.747,-0.26,-24.719,-10.375,-6.164,1
9.052125,0.619,0.735,-0.241,-23.986,-11.23,-5.859,1
9.058675,0.619,0.72,-0.219,-24.841,-11.657,-4.638,1
9.067924,0.634,0.703,-0.195,-28.991,-11.291,-3.723,1
9.07609,0.666,0.685,-0.176,-36.437,-10.498,-2.319,1
9.084952,0.687,0.679,-0.159,-42.297,-9.46,-1.037,1
9.092984,0.685,0.681,-0.163,-45.898,-8.3,0.305,1
9.099779,0.681,0.675,-0.173,-44.921,-7.751,1.525,1
9.108267,0.671,0.679,-0.173,-42.236,-7.141,2.38,1
9.117596,0.658,0.679,-0.18,-39.611,-6.408,2.746,1
9.125197,0.64,0.69,-0.181,-33.447,-5.798,2.868,1
9.132507,0.602,0.707,-0.183,-25.756,-5.432,2.563,1
9.141599,0.656,0.723,-0.174,-16.601,-5.432,1.892,1
9.149941,0.649,0.738,-0.16,-7.324,-4.821,1.281,1
9.157194,0.652,0.764,-0.19,-0.549,-4.516,0.549,1
9.164677,0.659,0.791,-0.217,2.807,-4.638,-0.671,1
9.17228,0.631,0.811,-0.207,5.004,-4.455,-2.685,1
9.181111,0.618,0.835,-0.208,7.202,-4.272,-4.638,1
9.190076,0.595,0.849,-0.216,7.568,-3.845,-6.591,1
9.196985,0.609,0.855,-0.216,7.934,-3.356,-8.789,1
9.205565,0.637,0.858,-0.227,8.483,-3.051,-10.742,1
9.214581,0.643,0.855,-0.247,9.887,-3.234,-12.878,1
9.221948,0.645,0.85,-0.253,12.023,-3.723,-14.099,1
9.228747,0.644,0.844,-0.254,16.235,-4.394,-15.38,1
9.237153,0.652,0.84,-0.242,19.104,-4.211,-16.052,1
9.244779,0.684,0.845,-0.234,20.568,-4.577,-16.723,1
9.253676,0.703,0.851,-0.239,19.958,-4.333,-17.15,1
9.261457,0.706,0.856,-0.237,17.639,-4.516,-18.066,1
9.270309,0.719,0.845,-0.235,16.723,-4.882,-18.31,1
9.277297,0.7,0.834,-0.224,15.502,-5.126,-18.798,1
9.285169,0.774,0.819,-0.221,17.883,-5.187,-18.92,1
9.293937,0.8,0.802,-0.225,20.751,-5.737,-19.042,1
9.301244,0.803,0.791,-0.228,22.155,-5.676,-19.104,1
9.309938,0.76,0.768,-0.24,17.761,-5.187,-19.409,1
9.316417,0.755,0.774,-0.228,10.437,-3.967,-19.958,1
9.325033,0.745,0.76,-0.279,-0.183,-4.15,-21.118,1
9.333807,0.66,0.74,-0.316,-22.949,-4.516,-21.484,1
9.342394,0.657,0.728,-0.276,-37.902,-3.173,-22.155,1
9.349618,0.536,0.654,-0.295,-55.358,-3.173,-21.667,1
9.359584,0.635,0.666,-0.264,-63.537,-2.441,-22.094,1
9.366394,0.685,0.666,-0.276,-66.284,-2.99,-22.46,1
9.374166,0.674,0.677,-0.274,-65.368,-3.906,-23.315,1
9.38312,0.643,0.673,-0.27,-60.363,-5.065,-23.864,1
9.390992,0.645,0.68,-0.266,-53.283,-5.92,-24.047,1
9.398848,0.646,0.665,-0.27,-45.776,-6.774,-24.536,1
9.406674,0.664,0.658,-0.27,-36.987,-7.629,-24.902,1
9.416227,0.688,0.64,-0.28,-31.738,-8.728,-25.207,1
9.423141,0.667,0.636,-0.283,-28.137,-9.46,-25.695,1
9.431591,0.675,0.62,-0.281,-26.611,-9.765,-25.146,1
9.439648,0.671,0.616,-0.284,-25.756,-10.009,-24.719,1
9.447753,0.677,0.607,-0.282,-26.367,-10.009,-24.597,1
9.45641,0.685,0.605,-0.283,-28.015,-9.948,-23.925,1
9.462837,0.689,0.605,-0.287,-30.944,-9.948,-23.193,1
9.472709,0.699,0.608,-0.288,-33.691,-9.887,-22.949,1
9.47942,0.716,0.612,-0.296,-35.827,-10.192,-22.644,1
9.486623,0.723,0.618,-0.292,-37.048,-10.681,-22.033,1
9.496414,0.729,0.622,-0.299,-37.109,-11.352,-21.911,1
9.505238,0.72,0.627,-0.299,-36.621,-11.962,-21.972,1
9.514167,0.723,0.625,-0.299,-34.545,-13.183,-21.545,1
9.52089,0.74,0.631,-0.296,-29.541,-14.282,-21.545,1
9.529505,0.734,0.641,-0.299,-23.559,-15.93,-21.362,1
9.539022,0.731,0.64,-0.285,-15.624,-17.7,-21.179,1
9.547864,0.731,0.634,-0.284,-2.929,-19.226,-20.324,1
9.556046,0.743,0.617,-0.272,10.375,-21.118,-19.165,1
9.563516,0.752,0.605,-0.274,22.338,-22.155,-18.31,1
9.572327,0.767,0.594,-0.272,29.357,-22.705,-17.639,1
9.578482,0.792,0.575,-0.268,33.386,-22.949,-16.845,1
9.586792,0.845,0.561,-0.252,33.203,-22.583,-16.052,1
9.595235,0.909,0.541,-0.232,28.991,-21.362,-15.258,1
9.603643,0.938,0.517,-0.219,20.751,-18.371,-13.916,1
9.611035,0.888,0.505,-0.215,11.596,-16.052,-12.634,1
9.619792,0.777,0.511,-0.225,1.525,-13.305,-10.803,1
9.626665,0.655,0.511,-0.263,-10.986,-11.596,-9.094,1
9.635092,0.677,0.481,-0.3,-25.878,-12.573,-6.958,1
9.643642,0.684,0.505,-0.268,-34.362,-12.695,-5.065,1
9.652545,0.694,0.489,-0.291,-37.902,-14.099,-2.441,1
9.660505,0.661,0.54,-0.271,-37.292,-14.953,-1.525,1
9.667707,0.641,0.588,-0.283,-34.973,-15.075,-1.159,1
9.676335,0.673,0.61,-0.272,-30.212,-15.319,-2.014,1
9.68491,0.713,0.619,-0.269,-23.132,-14.953,-3.295,1
9.693748,0.741,0.605,-0.296,-16.174,-15.38,-3.967,1
9.700733,0.738,0.591,-0.306,-11.84,-15.93,-3.967,1
9.7091,0.708,0.586,-0.312,-9.704,-16.784,-3.967,1
9.718382,0.698,0.59,-0.325,-7.324,-17.395,-3.479,1
9.727053,0.702,0.589,-0.34,-7.751,-18.371,-3.784,1
9.734278,0.702,0.593,-0.354,-11.291,-19.226,-3.967,1
9.74342,0.709,0.603,-0.349,-17.517,-21.24,-4.699,1
9.750442,0.685,0.627,-0.345,-24.597,-21.362,-5.676,1
9.75954,0.663,0.669,-0.325,-28.015,-21.911,-6.286,1
9.766728,0.685,0.673,-0.298,-36.437,-21.972,-6.469,1
9.776023,0.648,0.653,-0.317,-39.733,-20.996,-7.324,1
9.784279,0.643,0.637,-0.394,-45.349,-21.057,-7.69,1
9.793168,0.654,0.608,-0.403,-45.349,-23.437,-8.178,1
9.800264,0.71,0.658,-0.287,-14.465,-25.268,-8.483,1
9.809272,0.803,0.679,-0.242,28.076,-31.799,-10.559,1
9.816939,0.814,0.629,-0.214,44.555,-34.851,-11.535,1
9.825084,0.87,0.559,-0.219,41.259,-32.714,-11.901,1
9.832733,0.933,0.491,-0.204,14.77,-32.653,-11.657,1
9.841012,0.988,0.502,-0.186,-7.446,-29.235,-11.047,1
9.849949,1.049,0.54,-0.164,-23.803,-29.296,-11.108,1
9.856495,1.082,0.55,-0.143,-27.709,-27.587,-10.742,1
9.865994,1.116,0.572,-0.121,-21.057,-28.869,-10.681,1
9.872985,1.109,0.568,-0.101,-10.559,-28.259,-10.375,1
9.881329,1.103,0.551,-0.09,-5.554,-28.198,-10.62,1
9.88876,1.073,0.536,-0.077,-7.629,-26.245,-10.498,1
9.897604,1.022,0.531,-0.059,-12.939,-24.841,-10.62,1
9.904878,0.969,0.524,-0.043,-15.563,-22.888,-10.314,1
9.9126,0.907,0.511,-0.037,-16.052,-20.751,-10.07,1
9.920095,0.875,0.498,-0.041,-15.38,-18.798,-9.826,1
9.9287,0.841,0.49,-0.058,-13.549,-17.883,-9.277,1
9.936927,0.803,0.501,-0.068,-9.521,-16.662,-8.911,1
9.944582,0.772,0.507,-0.087,-5.798,-16.174,-8.3,1
9.953609,0.745,0.508,-0.108,-2.868,-15.258,-7.629,1
9.961584,0.728,0.509,-0.129,-2.929,-15.075,-7.324,1
9.969195,0.727,0.507,-0.144,-3.662,-14.953,-7.263,1
9.977297,0.723,0.504,-0.149,-6.408,-14.587,-6.835,1
9.986495,0.713,0.501,-0.159,-10.07,-14.16,-6.164,1
9.993692,0.708,0.483,-0.176,-15.075,-13.549,-6.103,1
