timestamp_s,ax,ay,az,gx,gy,gz,label
0.0047,-0.745,0.618,-0.09,3.967,2.441,18.676,1
0.011938,-0.736,0.618,-0.086,9.338,1.831,19.287,1
0.020423,-0.739,0.617,-0.09,14.16,1.22,19.958,1
0.027432,-0.74,0.617,-0.094,17.578,0.915,20.446,1
0.035467,-0.744,0.611,-0.093,18.066,0.732,21.057,1
0.043699,-0.749,0.615,-0.09,16.418,0.915,21.545,1
0.052036,-0.749,0.616,-0.09,13.427,1.403,22.338,1
0.060114,-0.759,0.62,-0.089,9.338,2.014,22.583,1
0.066952,-0.763,0.626,-0.087,5.737,2.441,23.071,1
0.075528,-0.757,0.633,-0.083,2.624,2.868,23.62,1
0.083151,-0.753,0.636,-0.084,-0.244,3.479,24.169,1
0.091366,-0.761,0.642,-0.088,-3.54,4.028,24.169,1
0.099057,-0.758,0.646,-0.085,-5.432,4.15,24.353,1
0.108076,-0.754,0.65,-0.083,-6.042,4.15,24.475,1
0.115207,-0.752,0.656,-0.087,-5.737,3.967,24.597,1
0.122272,-0.751,0.662,-0.087,-3.723,3.723,24.719,1
0.131651,-0.755,0.666,-0.086,-0.793,3.356,24.536,1
0.139571,-0.755,0.673,-0.083,3.173,2.746,24.291,1
0.147382,-0.754,0.669,-0.086,6.103,2.136,24.414,1
0.155257,-0.749,0.663,-0.091,7.629,1.708,24.23,1
0.164623,-0.748,0.661,-0.088,7.69,1.403,24.414,1
0.171989,-0.746,0.662,-0.088,5.859,1.525,24.23,1
0.179486,-0.748,0.664,-0.088,2.746,1.77,24.23,1
0.188395,-0.753,0.67,-0.086,-1.22,1.647,24.23,1
0.19642,-0.748,0.676,-0.086,-4.272,2.014,24.108,1
0.203781,-0.746,0.686,-0.084,-5.737,1.953,23.864,1
0.212937,-0.751,0.693,-0.086,-5.249,1.525,23.376,1
0.222689,-0.744,0.701,-0.09,-3.662,1.098,23.071,1
0.230801,-0.748,0.71,-0.083,-1.831,0.366,22.521,1
0.238804,-0.758,0.72,-0.085,0.305,0.0,22.033,1
0.24721,-0.751,0.724,-0.084,3.051,-0.915,21.057,1
0.254714,-0.746,0.732,-0.082,5.554,-1.647,20.751,1
0.263278,-0.739,0.74,-0.086,7.629,-2.136,19.897,1
0.271974,-0.743,0.745,-0.086,7.568,-2.441,18.981,1
0.278837,-0.742,0.753,-0.084,6.286,-2.624,18.249,1
0.287667,-0.741,0.766,-0.09,3.112,-2.685,17.272,1
0.29518,-0.732,0.778,-0.092,-1.586,-2.441,16.174,1
0.302961,-0.719,0.789,-0.087,-5.065,-2.258,15.563,1
0.312592,-0.72,0.808,-0.09,-7.873,-2.502,14.709,1
0.319795,-0.712,0.83,-0.083,-5.981,-3.417,13.671,1
0.328658,-0.696,0.858,-0.079,-0.549,-4.211,13.061,1
0.336357,-0.677,0.884,-0.077,5.31,-5.249,12.145,1
0.345475,-0.671,0.91,-0.072,10.192,-5.676,11.047,1
0.352345,-0.674,0.954,-0.068,12.268,-5.737,9.399,1
0.362436,-0.68,0.985,-0.063,12.207,-5.737,7.751,1
0.370654,-0.687,1.017,-0.063,9.643,-5.371,5.187,1
0.379412,-0.687,1.051,-0.057,4.15,-4.455,2.502,1
0.38683,-0.683,1.072,-0.047,-1.22,-3.662,-0.366,1
0.396332,-0.681,1.089,-0.042,-7.507,-2.502,-3.723,1
0.404217,-0.677,1.093,-0.04,-10.925,-1.525,-7.141,1
0.412259,-0.665,1.097,-0.03,-11.291,-0.793,-10.681,1
0.421635,-0.654,1.088,-0.02,-10.742,-0.061,-13.305,1
0.429053,-0.64,1.081,-0.02,-12.512,1.098,-16.723,1
0.435741,-0.632,1.07,-0.014,-14.526,2.136,-19.287,1
0.444009,-0.62,1.058,-0.008,-15.197,2.99,-21.606,1
0.453217,-0.614,1.046,-0.005,-13.793,3.417,-23.742,1
0.460483,-0.598,1.034,-0.003,-10.62,4.028,-25.512,1
0.469604,-0.599,1.015,0.003,-8.789,4.76,-27.465,1
0.475999,-0.595,1.002,0.003,-7.446,5.432,-28.747,1
0.485206,-0.597,0.994,0.004,-7.568,5.981,-30.395,1
0.493814,-0.601,0.979,0.009,-8.605,7.141,-31.921,1
0.500991,-0.608,0.963,0.006,-11.352,8.3,-33.752,1
0.508979,-0.613,0.955,0.01,-14.892,9.582,-35.278,1
0.516802,-0.614,0.94,0.012,-17.944,10.681,-36.437,1
0.526171,-0.622,0.93,0.014,-20.935,11.718,-38.024,1
0.533457,-0.632,0.922,0.006,-24.169,12.695,-39.062,1
0.54285,-0.631,0.909,0.002,-26.367,13.244,-40.527,1
0.551614,-0.622,0.893,-0.007,-26.977,13.671,-41.748,1
0.561493,-0.616,0.868,-0.015,-27.587,13.732,-42.968,1
0.56889,-0.64,0.856,-0.018,-26.672,13.366,-43.701,1
0.577472,-0.662,0.857,-0.018,-21.789,12.756,-44.677,1
0.585622,-0.664,0.842,-0.023,-14.099,12.023,-45.227,1
0.593865,-0.676,0.837,-0.025,-7.69,11.291,-45.837,1
0.601171,-0.684,0.831,-0.03,-5.187,11.169,-46.63,1
0.609699,-0.687,0.82,-0.038,-6.225,11.169,-47.546,1
0.616821,-0.685,0.812,-0.036,-8.789,11.108,-48.583,1
0.626441,-0.677,0.811,-0.037,-10.192,11.413,-49.194,1
0.632744,-0.684,0.803,-0.037,-10.253,11.352,-49.865,1
0.640523,-0.691,0.808,-0.039,-10.498,11.23,-50.598,1
0.651166,-0.692,0.799,-0.042,-10.131,11.413,-50.964,1
0.65843,-0.691,0.792,-0.04,-9.094,11.657,-51.635,1
0.666864,-0.698,0.786,-0.042,-7.019,11.596,-51.94,1
0.675544,-0.7,0.784,-0.048,-3.845,11.291,-51.818,1
0.682346,-0.701,0.791,-0.05,1.22,11.108,-51.696,1
0.691345,-0.703,0.791,-0.053,5.126,10.803,-51.452,1
0.700201,-0.694,0.792,-0.064,7.019,10.681,-51.33,1
0.706125,-0.696,0.808,-0.067,5.187,10.864,-50.964,1
0.71455,-0.701,0.818,-0.068,0.549,11.535,-50.842,1
0.722324,-0.694,0.841,-0.073,-7.263,12.878,-50.781,1
0.730875,-0.681,0.865,-0.074,-14.343,13.793,-50.598,1
0.7395,-0.67,0.897,-0.073,-21.484,14.953,-50.415,1
0.747632,-0.67,0.949,-0.074,-32.958,16.845,-50.781,1
0.755235,-0.686,1.001,-0.08,-46.02,18.859,-51.391,1
0.764009,-0.695,1.079,-0.07,-60.729,20.996,-53.1,1
0.772496,-0.689,1.138,-0.071,-66.223,21.972,-54.748,1
0.779476,-0.704,1.201,-0.069,-64.147,21.85,-56.518,1
0.788075,-0.724,1.279,-0.064,-54.443,21.24,-59.204,1
0.796887,-0.74,1.327,-0.065,-41.381,20.385,-62.133,1
0.804022,-0.725,1.358,-0.067,-26.184,19.165,-65.795,1
0.813075,-0.724,1.375,-0.077,-17.456,18.737,-69.03,1
0.821796,-0.74,1.39,-0.087,-16.967,19.287,-72.265,1
0.831138,-0.759,1.408,-0.105,-25.39,20.874,-76.232,1
0.838639,-0.778,1.433,-0.125,-43.09,22.888,-79.345,1
0.845454,-0.787,1.48,-0.137,-62.011,24.536,-82.946,1
0.853491,-0.801,1.541,-0.14,-74.34,25.451,-85.632,1
0.863116,-0.816,1.597,-0.147,-84.167,26.306,-88.562,1
0.870417,-0.817,1.662,-0.139,-93.444,26.123,-92.468,1
0.879085,-0.812,1.725,-0.125,-95.764,26.367,-96.252,1
0.887581,-0.813,1.794,-0.107,-90.454,25.695,-100.097,1
0.896241,-0.824,1.838,-0.104,-76.965,24.963,-105.529,1
0.904908,-0.837,1.876,-0.105,-70.617,25.085,-110.961,1
0.913267,-0.851,1.895,-0.107,-73.181,26.062,-115.905,1
0.920784,-0.875,1.922,-0.114,-85.388,27.893,-121.887,1
0.931969,-0.903,1.945,-0.116,-106.75,30.151,-128.784,1
0.93935,-0.934,1.97,-0.117,-132.507,31.616,-135.986,1
0.948573,-0.937,2.004,-0.112,-153.564,31.921,-143.554,1
0.956396,-0.929,2.022,-0.104,-159.301,29.907,-150.756,1
0.965051,-0.911,2.046,-0.092,-150.268,26.367,-156.982,1
0.974078,-0.9,2.059,-0.093,-129.15,20.812,-163.574,1
0.982499,-0.875,2.054,-0.092,-102.905,14.77,-170.227,1
0.991796,-0.86,2.044,-0.087,-75.5,9.155,-176.452,1
0.998719,-0.857,2.033,-0.092,-59.509,5.187,-181.701,1
1.006511,-0.851,2.034,-0.092,-53.161,2.319,-187.561,1
1.015069,-0.814,2.041,-0.068,-53.833,0.549,-192.749,1
1.022966,-0.786,2.052,-0.041,-56.945,-0.671,-198.242,1
1.030835,-0.772,2.063,-0.012,-60.241,-1.77,-203.124,1
1.039914,-0.725,2.071,0.022,-61.096,-2.746,-209.045,1
1.047904,-0.672,2.079,0.049,-56.518,-3.662,-213.928,1
1.055768,-0.625,2.076,0.066,-44.25,-5.065,-219.909,1
1.062795,-0.602,2.062,0.072,-28.625,-6.53,-224.975,1
1.070557,-0.587,2.028,0.083,-10.742,-8.056,-229.37,1
1.077953,-0.59,1.993,0.085,5.065,-8.361,-233.947,1
1.086432,-0.583,1.951,0.082,15.93,-8.178,-238.403,1
1.094325,-0.583,1.908,0.066,17.517,-7.202,-242.614,1
1.100885,-0.576,1.865,0.053,14.587,-6.225,-246.948,1
1.108826,-0.575,1.823,0.045,11.169,-5.554,-250.61,1
1.115476,-0.566,1.785,0.042,10.131,-5.615,-254.577,1
1.123328,-0.57,1.748,0.041,13.0,-5.92,-257.934,1
1.13025,-0.564,1.702,0.028,17.822,-6.835,-260.62,1
1.138571,-0.548,1.655,0.018,26.611,-7.934,-263.488,1
1.146312,-0.548,1.604,0.0,35.4,-8.85,-265.991,1
1.153002,-0.599,1.55,-0.019,38.94,-9.46,-268.188,1
1.161448,-0.681,1.546,-0.029,37.292,-9.033,-270.019,1
1.168459,-0.757,1.545,-0.041,38.818,-9.704,-272.155,1
1.177458,-0.803,1.523,-0.039,48.034,-10.375,-275.512,1
1.184054,-0.845,1.48,-0.051,55.847,-11.047,-278.259,1
1.192151,-0.873,1.425,-0.044,58.654,-10.314,-280.639,1
1.200232,-0.943,1.314,-0.061,53.039,-8.483,-282.348,1
1.208306,-0.961,1.181,-0.077,37.231,-7.08,-284.423,1
1.215125,-0.852,1.077,-0.099,4.516,-6.774,-284.301,1
1.223755,-0.922,0.953,-0.049,-22.033,-7.507,-283.691,1
1.231793,-0.924,0.876,-0.055,-39.123,-8.789,-280.273,1
1.23984,-0.977,0.811,0.004,-42.297,-11.474,-277.038,1
1.247739,-0.978,0.68,0.0,-42.175,-11.474,-271.606,1
1.254074,-0.952,0.585,0.035,-43.64,-13.061,-268.127,1
1.262145,-0.901,0.538,0.03,-34.179,-8.056,-264.892,1
1.270672,-0.94,0.478,-0.025,-33.508,-10.07,-261.23,1
1.279882,-0.757,0.508,-0.129,-43.579,6.774,-259.216,1
1.287234,-0.758,0.546,-0.187,-63.903,4.943,-263.671,1
1.293739,-0.755,0.483,-0.182,-67.321,17.028,-263.549,1
1.302538,-0.843,0.541,-0.148,-69.885,13.916,-262.695,1
1.309291,-0.859,0.47,-0.161,-55.908,21.545,-258.361,1
1.317656,-0.786,0.667,-0.159,-48.156,17.456,-259.704,1
1.326476,-0.988,0.631,-0.154,-27.587,22.827,-261.169,1
1.334988,-0.892,0.555,-0.206,-23.437,18.432,-260.437,1
1.343234,-0.698,0.527,-0.16,-5.493,21.362,-260.62,1
1.351529,-0.54,0.444,-0.21,4.577,18.676,-260.07,1
1.359593,-0.414,0.363,-0.187,10.498,20.812,-257.934,1
1.366113,-0.322,0.335,-0.215,13.183,18.737,-255.798,1
1.374177,-0.265,0.296,-0.17,25.085,16.967,-252.197,1
1.382293,-0.14,0.269,-0.152,43.884,14.16,-247.375,1
1.390257,0.06,0.226,-0.118,68.054,10.986,-240.112,1
1.39811,0.189,0.205,-0.073,86.853,10.009,-233.154,1
1.405459,0.363,0.18,-0.047,100.341,10.131,-226.44,1
1.413757,0.463,0.066,-0.017,92.834,13.671,-217.102,1
1.422233,0.435,0.099,-0.007,71.472,21.118,-209.045,1
1.429515,0.259,0.26,0.03,59.326,27.709,-206.176,1
1.437966,0.026,0.346,0.011,52.429,35.217,-203.369,1
1.445988,-0.034,0.417,-0.005,53.588,40.588,-202.392,1
1.453128,-0.06,0.446,-0.033,59.448,43.273,-201.354,1
1.461477,-0.123,0.458,-0.022,72.448,46.02,-200.073,1
1.468275,-0.148,0.46,-0.013,85.815,47.607,-198.303,1
1.476433,-0.177,0.414,-0.002,97.106,48.828,-196.166,1
1.484315,-0.079,0.195,0.009,73.364,51.086,-187.866,1
1.490914,-0.179,0.169,0.036,59.753,57.312,-187.622,1
1.499368,-0.119,0.29,0.113,62.499,60.546,-187.072,1
1.507563,-0.046,0.248,0.086,71.411,64.575,-184.814,1
1.514993,-0.026,0.256,0.093,71.777,68.115,-183.41,1
1.522627,-0.076,0.25,0.087,65.368,75.012,-182.006,1
1.531081,-0.099,0.27,0.097,62.988,78.857,-182.067,1
1.539877,-0.173,0.252,0.11,65.917,84.533,-181.64,1
1.547432,-0.248,0.218,0.091,68.542,89.111,-181.701,1
1.554208,-0.281,0.132,0.08,65.551,97.106,-181.274,1
1.562314,-0.261,0.032,0.046,53.405,103.759,-180.664,1
1.570559,-0.265,-0.052,0.026,33.752,112.121,-179.87,1
1.580219,-0.295,-0.161,-0.013,5.554,121.154,-178.466,1
1.587131,-0.319,-0.24,-0.031,-15.747,128.173,-176.879,1
1.596109,-0.391,-0.34,-0.064,-41.748,134.826,-175.476,1
1.604416,-0.519,-0.436,-0.103,-62.805,139.831,-174.194,1
1.61388,-0.529,-0.533,-0.151,-80.139,144.348,-172.119,1
1.621991,-0.56,-0.619,-0.172,-86.73,145.69,-169.372,1
1.632817,-0.497,-0.731,-0.204,-71.96,147.155,-165.039,1
1.640417,-0.479,-0.861,-0.283,-56.213,148.986,-159.606,1
1.649157,-0.551,-0.991,-0.3,-54.077,150.878,-153.869,1
1.656356,-0.648,-1.126,-0.422,-62.133,156.066,-145.874,1
1.665811,-0.748,-1.182,-0.42,-73.974,155.883,-138.854,1
1.673378,-0.671,-1.287,-0.459,-74.584,160.705,-130.615,1
1.681151,-0.878,-1.4,-0.521,-84.899,160.827,-121.887,1
1.690195,-0.929,-1.471,-0.499,-91.003,163.269,-110.473,1
1.699729,-0.971,-1.579,-0.541,-88.073,161.132,-100.219,1
1.707489,-1.1,-1.711,-0.498,-68.542,159.484,-82.519,1
1.7159,-1.085,-1.824,-0.528,-44.067,156.494,-67.626,1
1.725764,-1.162,-1.948,-0.552,-4.882,154.357,-48.217,1
1.734054,-1.29,-2.098,-0.571,17.883,152.771,-22.46,1
1.741682,-1.426,-2.202,-0.583,31.005,148.193,-1.892,1
1.75168,-1.596,-2.287,-0.529,61.096,148.437,24.841,1
1.758204,-1.765,-2.359,-0.541,89.965,143.981,53.1,1
1.7661,-1.969,-2.346,-0.475,112.487,142.333,79.711,1
1.77543,-2.193,-2.355,-0.523,143.371,140.136,105.773,1
1.782309,-2.337,-2.323,-0.515,160.339,138.549,137.634,1
1.790772,-2.589,-2.299,-0.542,157.714,136.901,166.259,1
1.798578,-2.881,-2.209,-0.551,153.625,136.901,198.791,1
1.807245,-3.065,-2.216,-0.56,138.061,134.887,228.088,1
1.814417,-3.304,-2.185,-0.551,122.741,135.253,257.568,1
1.821752,-3.452,-2.229,-0.568,101.257,135.681,288.696,1
1.830779,-3.793,-2.176,-0.543,76.293,137.39,326.11,1
1.838583,-4.157,-2.17,-0.566,58.349,139.038,359.008,1
1.846837,-4.614,-2.087,-0.58,33.447,142.883,398.62,1
1.854788,-5.046,-2.013,-0.606,14.404,146.789,433.471,1
1.86409,-5.669,-1.892,-0.662,-3.662,152.404,474.304,1
1.872695,-6.241,-1.787,-0.705,-19.226,158.874,510.62,1
1.880174,-6.978,-1.692,-0.775,-32.409,164.916,554.443,1
1.888184,-7.845,-1.59,-0.853,-44.189,173.095,599.487,1
1.897401,-8.655,-1.5,-0.946,-49.438,180.358,639.526,1
1.90494,-9.716,-1.38,-1.028,-42.48,186.767,680.725,1
1.913562,-10.68,-1.281,-1.125,-14.892,189.697,730.773,1
1.92201,-12.059,-1.188,-1.232,17.15,189.086,776.367,1
1.930367,-13.563,-1.086,-1.366,70.251,181.335,833.129,1
1.93721,-15.216,-0.943,-1.549,135.009,160.583,893.066,1
1.945884,-15.999,-0.785,-1.658,204.223,132.995,947.753,1
1.954541,-15.999,-0.585,-1.816,282.592,88.562,1003.295,1
1.961757,-15.999,-0.283,-1.964,359.497,28.137,1058.227,1
1.970578,-15.999,0.05,-1.984,445.312,-64.514,1118.957,1
1.979137,-15.999,0.593,-1.818,521.667,-180.297,1169.494,1
1.988968,-15.999,1.208,-1.522,593.872,-314.514,1203.247,1
1.995769,-15.999,1.926,-1.076,665.954,-462.036,1216.308,1
2.004825,-15.999,2.469,-0.588,735.351,-603.454,1207.397,1
2.01295,-15.999,3.044,0.227,815.002,-753.601,1177.551,1
2.02015,-15.999,3.377,0.997,922.424,-938.11,1107.544,1
2.029039,-15.999,3.466,1.91,998.29,-1099.792,1016.296,1
2.03668,-15.999,3.433,3.076,1025.878,-1247.253,901.245,1
2.044875,-15.999,3.057,3.851,1019.653,-1377.441,743.347,1
2.054192,-15.999,3.315,4.815,965.942,-1446.777,576.965,1
2.062585,-15.999,3.927,5.149,1009.155,-1489.562,419.25,1
2.071461,-15.999,4.42,5.32,1125.854,-1503.173,206.603,1
2.079189,-15.999,4.322,5.158,1247.985,-1506.713,-43.212,1
2.086677,-15.999,4.007,4.957,1295.104,-1442.993,-264.648,1
2.097211,-15.999,2.981,4.827,1218.078,-1319.518,-496.398,1
2.104274,-15.999,1.465,4.164,1025.268,-1138.427,-661.315,1
2.111424,-15.999,0.812,3.535,829.467,-1009.338,-749.206,1
2.120246,-15.999,0.759,3.466,703.552,-863.464,-810.424,1
2.12779,-15.999,0.645,3.045,720.703,-757.507,-850.585,1
2.137035,-15.999,0.269,2.439,794.128,-648.559,-885.253,1
2.145409,-15.999,-0.317,1.927,800.598,-517.395,-914.245,1
2.153062,-15.999,-0.882,1.488,720.458,-400.329,-918.701,1
2.163908,-15.999,-1.284,1.372,573.974,-289.978,-900.451,1
2.170745,-15.291,-1.431,1.416,454.467,-184.997,-859.985,1
2.181371,-14.24,-1.585,1.595,439.025,-127.38,-823.12,1
2.188129,-13.204,-1.939,1.494,436.462,-46.997,-766.845,1
2.197234,-12.012,-2.253,1.402,417.419,4.699,-722.595,1
2.205163,-10.423,-2.589,1.109,390.808,59.082,-669.128,1
2.213307,-9.306,-2.751,0.996,367.187,94.238,-623.23,1
2.221476,-8.332,-2.849,0.766,342.651,129.394,-567.565,1
2.229336,-7.326,-2.765,0.663,322.448,153.869,-522.46,1
2.2376,-6.407,-2.817,0.447,296.142,175.292,-475.341,1
2.246566,-5.634,-2.774,0.27,263.61,189.453,-429.87,1
2.253657,-5.228,-2.6,0.163,245.605,199.279,-378.723,1
2.26274,-4.892,-2.37,0.112,256.225,202.941,-329.345,1
2.271943,-4.435,-2.162,0.015,264.831,203.796,-289.245,1
2.280562,-3.996,-2.062,-0.092,258.422,203.857,-244.873,1
2.289648,-3.627,-1.895,-0.151,227.844,203.124,-204.528,1
2.29639,-3.301,-1.737,-0.186,197.937,200.805,-169.311,1
2.305767,-3.032,-1.617,-0.188,171.63,198.547,-138.305,1
2.313883,-2.802,-1.529,-0.193,151.0,196.594,-115.234,1
2.320434,-2.561,-1.428,-0.168,131.958,194.335,-91.125,1
2.328592,-2.346,-1.35,-0.156,122.192,192.016,-73.242,1
2.337949,-2.124,-1.28,-0.145,118.835,189.27,-56.579,1
2.345072,-1.887,-1.209,-0.136,119.14,185.302,-39.367,1
2.35382,-1.733,-1.17,-0.125,115.966,182.556,-25.756,1
2.364386,-1.629,-1.149,-0.122,99.304,181.274,-10.925,1
2.37155,-1.489,-1.095,-0.108,73.059,180.236,3.784,1
2.379381,-1.403,-1.044,-0.096,56.03,178.649,13.549,1
2.388291,-1.334,-0.995,-0.08,42.602,177.612,22.216,1
2.394865,-1.287,-0.979,-0.078,31.372,176.147,30.273,1
2.403892,-1.162,-0.97,-0.078,18.676,174.255,39.306,1
2.412485,-1.032,-0.955,-0.083,7.629,172.119,46.508,1
2.420341,-0.926,-0.937,-0.08,-1.22,169.128,53.955,1
2.428613,-0.783,-0.925,-0.089,-6.774,164.978,61.95,1
2.435919,-0.615,-0.937,-0.093,-5.126,158.996,70.129,1
2.444449,-0.417,-0.96,-0.09,2.38,152.709,77.636,1
2.452452,-0.233,-0.968,-0.09,17.333,144.775,86.242,1
2.459722,-0.147,-0.96,-0.068,31.249,136.596,94.482,1
2.468752,-0.064,-0.937,-0.046,48.156,129.028,102.416,1
2.477508,0.013,-0.937,-0.036,58.166,120.3,111.816,1
2.486232,0.046,-0.904,-0.004,54.382,113.281,121.337,1
2.492895,0.047,-0.849,0.026,47.912,107.421,128.845,1
2.502148,0.034,-0.792,0.058,43.579,102.6,135.681,1
2.509106,0.018,-0.743,0.062,38.391,96.74,141.967,1
2.518051,0.025,-0.681,0.085,33.996,90.515,149.047,1
2.526897,0.051,-0.617,0.111,37.536,83.496,155.456,1
2.534566,0.072,-0.562,0.152,46.874,77.026,160.644,1
2.542641,0.083,-0.511,0.194,58.532,70.8,165.527,1
2.550243,0.058,-0.485,0.259,71.289,63.781,171.386,1
2.558618,0.045,-0.493,0.324,76.11,58.105,177.307,1
2.565412,0.042,-0.499,0.401,76.416,54.931,181.518,1
2.574252,0.083,-0.516,0.474,74.523,52.001,186.34,1
2.581379,0.127,-0.52,0.539,72.875,49.133,192.565,1
2.588547,0.144,-0.487,0.597,73.547,47.424,197.326,1
2.597606,0.152,-0.498,0.632,70.861,46.081,202.392,1
2.606578,0.22,-0.458,0.699,61.95,47.058,207.214,1
2.614492,0.241,-0.413,0.689,45.715,48.767,211.791,1
2.622539,0.267,-0.316,0.733,36.743,49.743,216.186,1
2.629517,0.208,-0.244,0.705,35.461,49.499,219.543,1
2.638671,0.144,-0.16,0.762,36.071,47.607,223.693,1
2.646161,0.228,-0.045,0.764,46.63,47.241,227.905,1
2.65519,0.226,0.012,0.837,69.58,45.349,230.407,1
2.662766,0.256,0.074,0.798,85.266,42.114,232.971,1
2.670406,0.26,0.161,0.875,92.834,40.405,234.191,1
2.67991,0.307,0.228,0.887,100.158,40.405,236.083,1
2.687522,0.238,0.259,0.906,97.778,40.283,238.22,1
2.693857,0.273,0.517,0.982,98.083,41.809,237.548,1
2.703494,0.221,0.69,0.984,99.609,40.771,237.548,1
2.710841,0.105,0.716,0.988,113.037,41.015,236.755,1
2.719322,0.072,0.903,1.005,125.793,40.832,233.032,1
2.726124,0.048,0.968,0.973,125.671,41.198,230.163,1
2.735509,0.026,0.91,0.949,108.581,43.579,227.661,1
2.742861,0.049,1.112,1.013,99.243,46.691,222.778,1
2.751085,0.073,1.223,1.024,101.745,44.555,221.557,1
2.757934,-0.017,1.23,1.033,126.708,45.715,216.125,1
2.76557,0.047,1.285,1.058,144.348,42.541,211.791,1
2.77305,0.021,1.185,1.068,144.836,45.898,209.167,1
2.780189,0.111,1.403,1.122,116.638,50.72,205.993,1
2.789505,-0.005,1.496,1.118,109.619,53.771,204.65,1
2.795735,-0.014,1.591,1.154,119.445,55.603,199.035,1
2.804974,-0.102,1.341,1.055,126.831,57.617,198.181,1
2.812829,-0.024,1.372,1.072,127.197,59.997,194.702,1
2.822712,-0.084,1.338,1.02,126.403,60.119,193.42,1
2.829794,-0.151,1.32,1.029,120.91,62.622,191.406,1
2.836708,-0.135,1.333,1.011,107.849,64.758,189.88,1
2.84515,-0.14,1.246,1.049,87.951,68.298,190.429,1
2.851413,-0.273,1.326,1.01,99.975,72.753,185.852,1
2.859072,-0.327,1.279,0.997,103.21,71.777,184.082,1
2.867768,-0.372,1.198,0.943,96.313,78.186,182.678,1
2.875204,-0.413,1.154,0.857,81.054,78.674,181.396,1
2.88433,-0.386,1.126,0.855,77.88,82.092,181.152,1
2.891693,-0.417,1.067,0.822,78.491,82.885,180.786,1
2.8988,-0.428,0.838,0.836,55.48,84.838,185.485,1
2.907849,-0.398,0.937,0.898,54.809,91.186,185.18,1
2.91561,-0.541,1.115,0.931,81.42,89.782,184.448,1
2.923728,-0.625,1.155,0.923,118.408,92.407,183.41,1
2.931076,-0.708,1.084,0.835,124.755,90.576,183.898,1
2.939198,-0.689,1.062,0.802,100.646,96.191,184.387,1
2.946474,-0.706,1.099,0.772,76.538,97.839,184.57,1
2.954019,-0.671,1.148,0.804,72.204,101.928,183.959,1
2.961362,-0.641,1.17,0.77,77.453,102.905,183.715,1
2.97024,-0.628,1.183,0.77,80.871,105.163,183.105,1
2.977015,-0.644,1.223,0.747,79.284,107.36,182.495,1
2.98457,-0.699,1.272,0.743,75.134,109.497,181.518,1
2.99337,-0.739,1.314,0.714,67.871,112.06,180.175,1
3.002333,-0.743,1.372,0.687,57.983,114.624,178.1,1
3.011205,-0.79,1.444,0.655,50.964,117.675,175.415,1
3.018524,-0.77,1.474,0.604,45.776,119.506,172.851,1
3.02696,-0.757,1.492,0.579,44.067,121.093,170.471,1
3.034532,-0.751,1.5,0.557,43.518,122.68,168.273,1
3.042649,-0.725,1.505,0.533,39.428,125.915,165.466,1
3.049896,-0.728,1.517,0.473,33.081,128.356,163.085,1
3.057269,-0.701,1.523,0.418,26.733,131.469,160.339,1
3.066426,-0.649,1.521,0.352,22.216,133.3,157.653,1
3.072512,-0.606,1.517,0.313,21.118,135.07,155.7,1
3.082352,-0.583,1.497,0.237,21.057,136.23,153.686,1
3.089629,-0.518,1.471,0.182,23.681,136.718,151.489,1
3.097737,-0.522,1.449,0.16,30.639,136.047,150.512,1
3.104627,-0.503,1.422,0.131,43.701,134.704,149.963,1
3.111995,-0.526,1.389,0.101,50.415,134.216,150.146,1
3.119593,-0.548,1.373,0.041,42.907,133.972,150.512,1
3.128476,-0.585,1.363,-0.001,26.123,134.033,150.207,1
3.135897,-0.552,1.36,-0.052,2.319,135.375,150.024,1
3.144462,-0.52,1.368,-0.083,-18.554,136.047,149.353,1
3.153677,-0.49,1.409,-0.116,-33.081,136.535,148.071,1
3.161304,-0.487,1.453,-0.153,-34.79,135.375,145.751,1
3.170694,-0.49,1.438,-0.18,-31.249,133.789,143.981,1
3.178585,-0.499,1.433,-0.208,-28.198,131.958,141.662,1
3.18743,-0.472,1.395,-0.22,-22.766,130.249,139.77,1
3.195625,-0.47,1.364,-0.246,-22.094,129.394,138.366,1
3.202848,-0.438,1.308,-0.281,-28.015,128.295,137.329,1
3.210586,-0.426,1.281,-0.274,-39.306,129.577,136.718,1
3.219903,-0.385,1.319,-0.309,-36.621,131.591,136.23,1
3.228794,-0.371,1.292,-0.321,-29.968,128.295,135.131,1
3.235898,-0.395,1.252,-0.358,-22.888,128.967,134.948,1
3.244913,-0.405,1.227,-0.406,-12.39,124.633,134.46,1
3.253294,-0.463,1.273,-0.396,19.47,120.605,134.887,1
3.260247,-0.452,1.237,-0.461,66.101,112.06,135.009,1
3.266372,-0.45,1.184,-0.479,93.322,107.299,135.864,1
3.273443,-0.472,1.147,-0.522,111.145,100.402,137.268,1
3.281305,-0.487,1.129,-0.522,117.126,94.604,138.549,1
3.289324,-0.502,1.109,-0.516,114.99,90.881,140.686,1
3.295842,-0.491,1.106,-0.52,104.736,86.975,142.211,1
3.304672,-0.543,1.122,-0.52,83.984,86.242,142.944,1
3.31235,-0.457,1.076,-0.542,44.799,84.35,142.883,1
3.321234,-0.648,1.161,-0.478,11.901,85.754,142.333,1
3.330174,-0.702,1.209,-0.452,-0.366,84.045,141.174,1
3.337943,-0.692,1.226,-0.421,-0.305,83.19,139.831,1
3.346294,-0.711,1.251,-0.414,-1.037,80.688,137.512,1
3.354433,-0.718,1.264,-0.404,-10.07,79.528,134.948,1
3.363032,-0.712,1.205,-0.395,-32.653,78.063,131.591,1
3.371018,-0.762,1.293,-0.372,-47.485,79.04,126.098,1
3.378956,-0.828,1.322,-0.301,-54.321,77.758,120.544,1
3.386744,-0.789,1.3,-0.302,-57.067,77.636,115.783,1
3.395559,-0.776,1.291,-0.258,-56.091,76.293,110.534,1
3.403144,-0.733,1.255,-0.237,-52.856,76.904,106.506,1
3.411724,-0.717,1.241,-0.255,-60.241,77.087,101.257,1
3.419393,-0.723,1.229,-0.262,-78.613,78.186,96.74,1
3.429303,-0.704,1.233,-0.266,-101.257,79.528,91.247,1
3.436695,-0.643,1.181,-0.251,-120.544,80.566,86.12,1
3.444332,-0.716,1.213,-0.23,-125.244,82.275,82.031,1
3.452805,-0.68,1.199,-0.23,-122.192,81.787,77.453,1
3.460997,-0.656,1.181,-0.232,-120.605,81.97,73.242,1
3.470246,-0.673,1.159,-0.241,-120.544,80.688,69.152,1
3.477776,-0.679,1.13,-0.23,-117.736,80.2,66.101,1
3.485564,-0.672,1.09,-0.224,-114.746,78.918,62.561,1
3.496028,-0.669,1.045,-0.222,-118.347,78.979,60.363,1
3.503347,-0.665,1.026,-0.229,-123.962,78.857,58.593,1
3.510004,-0.668,1.01,-0.239,-129.882,79.284,57.067,1
3.518785,-0.66,1.005,-0.249,-139.343,79.284,56.213,1
3.527801,-0.655,1.017,-0.261,-148.437,79.467,54.565,1
3.536393,-0.659,1.036,-0.27,-151.428,78.918,53.039,1
3.545134,-0.646,1.047,-0.275,-146.118,76.904,51.025,1
3.553927,-0.643,1.053,-0.28,-132.324,74.218,49.255,1
3.563034,-0.657,1.048,-0.288,-114.746,71.289,48.034,1
3.571653,-0.654,1.039,-0.293,-102.6,68.969,47.119,1
3.579104,-0.637,1.031,-0.295,-92.468,66.589,45.959,1
3.588167,-0.622,1.026,-0.302,-83.496,64.025,44.433,1
3.597271,-0.615,1.016,-0.306,-80.078,62.194,43.212,1
3.606309,-0.605,1.008,-0.305,-81.115,61.34,42.114,1
3.613467,-0.59,1.003,-0.307,-84.777,60.607,40.832,1
3.622591,-0.569,0.99,-0.31,-91.43,59.875,39.245,1
3.631798,-0.549,0.977,-0.311,-96.923,59.509,37.841,1
3.640382,-0.544,0.976,-0.304,-98.083,58.288,36.56,1
3.648307,-0.527,0.963,-0.303,-92.468,56.823,35.4,1
3.657078,-0.515,0.958,-0.302,-85.021,55.053,34.79,1
3.666198,-0.518,0.962,-0.305,-73.791,52.917,34.179,1
3.672679,-0.504,0.963,-0.308,-59.204,49.987,33.63,1
3.682447,-0.494,0.96,-0.314,-43.579,46.813,33.142,1
3.689674,-0.505,0.952,-0.317,-32.714,44.311,32.531,1
3.699047,-0.507,0.947,-0.321,-28.93,42.785,32.165,1
3.706064,-0.499,0.937,-0.316,-30.395,41.809,31.738,1
3.714967,-0.485,0.933,-0.312,-35.461,41.442,31.005,1
3.724594,-0.477,0.932,-0.305,-41.992,41.137,30.151,1
3.73275,-0.488,0.936,-0.302,-48.156,41.442,29.541,1
3.740043,-0.502,0.934,-0.301,-55.664,41.198,28.442,1
3.748765,-0.518,0.939,-0.299,-62.744,41.137,26.977,1
3.757439,-0.521,0.942,-0.286,-65.185,40.649,25.817,1
3.766321,-0.527,0.94,-0.278,-62.133,39.855,25.085,1
3.774588,-0.545,0.938,-0.271,-55.175,38.513,24.475,1
3.78229,-0.555,0.936,-0.265,-47.302,37.292,23.986,1
3.790876,-0.559,0.94,-0.266,-40.71,35.827,23.742,1
3.79884,-0.562,0.94,-0.263,-35.705,35.095,23.132,1
3.80615,-0.572,0.935,-0.265,-31.738,33.813,22.338,1
3.815039,-0.574,0.923,-0.269,-30.7,32.897,22.094,1
3.82253,-0.565,0.914,-0.267,-31.372,31.86,21.789,1
3.833132,-0.564,0.907,-0.271,-33.325,31.127,21.667,1
3.840673,-0.566,0.911,-0.278,-37.292,29.907,21.423,1
3.848323,-0.566,0.906,-0.283,-42.48,29.052,21.301,1
3.857275,-0.56,0.91,-0.28,-45.898,27.893,21.179,1
3.864845,-0.586,0.927,-0.271,-46.264,26.977,20.629,1
3.873052,-0.596,0.948,-0.257,-40.466,25.329,20.08,1
3.88238,-0.587,0.952,-0.248,-31.433,23.925,19.348,1
3.89043,-0.577,0.951,-0.245,-24.169,22.888,18.371,1
3.898842,-0.565,0.949,-0.239,-19.104,21.972,17.883,1
3.906261,-0.561,0.948,-0.243,-16.906,21.118,16.418,1
3.916419,-0.557,0.939,-0.246,-19.653,20.629,15.136,1
3.922875,-0.553,0.93,-0.254,-28.259,20.69,13.366,1
3.932182,-0.548,0.918,-0.25,-39.672,20.812,11.84,1
3.939196,-0.547,0.916,-0.242,-49.011,21.118,10.62,1
3.947697,-0.551,0.917,-0.234,-55.969,21.423,9.521,1
3.956203,-0.56,0.914,-0.229,-60.302,21.179,8.178,1
3.964501,-0.569,0.913,-0.219,-59.814,20.751,6.774,1
3.971295,-0.576,0.909,-0.21,-54.748,20.446,5.798,1
3.980225,-0.573,0.901,-0.197,-44.799,19.409,4.516,1
3.987595,-0.59,0.889,-0.198,-35.278,18.493,4.028,1
3.996611,-0.593,0.868,-0.201,-25.939,17.456,3.295,1
4.005116,-0.588,0.85,-0.2,-19.531,16.479,2.807,1
4.012849,-0.587,0.825,-0.206,-16.174,15.624,2.685,1
4.021233,-0.594,0.804,-0.207,-15.869,15.075,2.685,1
4.028239,-0.592,0.784,-0.206,-17.272,14.526,3.295,1
4.036398,-0.59,0.772,-0.197,-20.141,13.916,3.356,1
4.045375,-0.592,0.77,-0.194,-22.216,13.183,3.967,1
4.053922,-0.585,0.764,-0.177,-21.484,12.207,4.272,1
4.063122,-0.576,0.76,-0.17,-17.7,11.291,4.577,1
4.069833,-0.58,0.755,-0.151,-10.07,9.643,5.371,1
4.078318,-0.583,0.761,-0.143,-0.976,8.483,5.737,1
4.085717,-0.58,0.755,-0.124,11.23,7.019,6.347,1
4.094547,-0.57,0.748,-0.118,19.165,6.347,6.652,1
4.101847,-0.572,0.736,-0.119,26.916,5.371,6.958,1
4.109758,-0.572,0.722,-0.12,27.404,5.432,7.446,1
4.119168,-0.582,0.71,-0.125,20.019,5.798,7.812,1
4.126466,-0.589,0.708,-0.125,4.455,7.141,8.239,1
4.135582,-0.588,0.708,-0.119,-11.169,8.605,8.605,1
4.142957,-0.592,0.726,-0.107,-26.245,10.314,9.338,1
4.152422,-0.594,0.748,-0.093,-33.813,11.535,10.253,1
4.159745,-0.602,0.777,-0.083,-34.179,12.451,10.62,1
4.168949,-0.604,0.814,-0.078,-31.86,13.0,11.657,1
4.177908,-0.598,0.879,-0.08,-31.494,14.282,11.962,1
4.1866,-0.596,0.972,-0.096,-37.658,15.502,11.718,1
4.195785,-0.621,1.124,-0.104,-50.476,17.456,10.375,1
4.204541,-0.642,1.269,-0.122,-65.429,19.104,7.69,1
4.211685,-0.598,1.423,-0.122,-86.608,21.24,3.601,1
4.220624,-0.534,1.553,-0.094,-108.52,23.071,-0.976,1
4.229311,-0.502,1.666,-0.052,-122.863,25.756,-4.577,1
4.23673,-0.484,1.838,0.003,-123.901,28.625,-8.911,1
4.245456,-0.482,2.001,0.035,-106.689,31.433,-14.404,1
4.252618,-0.513,1.914,-0.032,-102.172,34.606,-16.906,1
4.261512,-0.347,2.043,0.012,-82.519,36.315,-27.16,1
4.27076,-0.419,2.221,0.023,-49.438,41.442,-35.217,1
4.277403,-0.379,2.292,-0.085,-62.011,43.273,-44.738,1
4.28694,-0.35,2.345,-0.041,-85.144,50.476,-54.504,1
4.294668,-0.22,2.382,-0.092,-103.454,53.894,-63.964,1
4.303028,-0.465,2.41,-0.07,-129.211,60.668,-73.486,1
4.31037,-0.362,2.442,-0.151,-152.282,62.255,-82.641,1
4.317998,-0.443,2.478,-0.095,-161.987,65.551,-93.566,1
4.328509,-0.436,2.473,-0.163,-159.301,64.697,-102.783,1
4.336221,-0.523,2.449,-0.116,-144.287,62.927,-112.976,1
4.349314,-0.551,2.407,-0.171,-124.084,60.485,-121.948,1
4.356453,-0.634,2.349,-0.17,-110.107,58.471,-134.094,1
4.364881,-0.679,2.301,-0.189,-115.112,56.396,-141.601,1
4.37395,-0.725,2.279,-0.186,-128.784,57.067,-149.536,1
4.381473,-0.774,2.277,-0.209,-143.127,55.297,-156.738,1
4.390038,-0.838,2.275,-0.187,-149.902,53.588,-165.039,1
4.398286,-0.86,2.271,-0.193,-144.165,49.438,-172.79,1
4.406636,-0.929,2.272,-0.189,-132.69,45.715,-179.199,1
4.41386,-0.997,2.259,-0.193,-114.196,40.222,-186.767,1
4.423476,-1.045,2.243,-0.181,-95.458,36.01,-193.115,1
4.431578,-1.089,2.208,-0.178,-79.284,32.348,-198.608,1
4.439357,-1.154,2.163,-0.166,-68.054,28.991,-205.627,1
4.448518,-1.181,2.107,-0.155,-62.683,26.855,-211.608,1
4.456194,-1.193,2.063,-0.142,-60.913,25.207,-216.796,1
4.465343,-1.211,2.002,-0.133,-58.959,23.498,-222.778,1
4.472863,-1.22,1.932,-0.121,-54.626,21.118,-227.905,1
4.482103,-1.224,1.881,-0.125,-46.874,18.676,-232.482,1
4.48979,-1.233,1.822,-0.127,-35.4,15.624,-235.961,1
4.499054,-1.231,1.78,-0.135,-20.507,12.878,-238.403,1
4.50635,-1.228,1.723,-0.135,-3.845,9.948,-240.417,1
4.516413,-1.22,1.67,-0.139,10.925,8.056,-242.37,1
4.525038,-1.211,1.63,-0.13,21.301,6.713,-244.75,1
4.531751,-1.232,1.598,-0.127,29.663,6.591,-247.192,1
4.540344,-1.24,1.565,-0.127,34.79,6.408,-249.816,1
4.549278,-1.235,1.527,-0.13,38.574,7.08,-252.38,1
4.556565,-1.249,1.477,-0.182,36.682,9.338,-255.554,1
4.563718,-1.178,1.384,-0.237,22.155,9.338,-257.995,1
4.572647,-1.223,1.384,-0.306,10.375,14.404,-260.314,1
4.581906,-1.234,1.376,-0.289,-0.183,12.878,-262.756,1
4.590921,-1.159,1.326,-0.333,-10.253,14.953,-264.404,1
4.598805,-1.177,1.234,-0.244,-15.93,11.779,-268.859,1
4.607276,-1.254,1.149,-0.311,-5.859,17.028,-269.653,1
4.614554,-1.268,1.038,-0.26,-11.474,12.939,-270.446,1
4.623601,-1.26,0.996,-0.329,-12.39,17.639,-270.69,1
4.631521,-1.272,0.962,-0.352,-22.521,13.549,-271.667,1
4.640736,-1.271,0.938,-0.331,-32.226,15.686,-270.69,1
4.647931,-1.455,0.955,-0.326,-33.874,11.23,-269.47,1
4.655806,-1.04,0.857,-0.301,-24.78,10.559,-268.249,1
4.6646,-1.16,0.845,-0.311,-21.362,6.713,-266.479,1
4.67407,-1.155,0.833,-0.266,-1.647,3.479,-264.099,1
4.681176,-1.046,0.759,-0.26,23.437,-0.183,-262.329,1
4.690405,-1.126,0.684,-0.222,42.175,-0.976,-259.887,1
4.697799,-0.984,0.6,-0.234,47.851,0.976,-256.713,1
4.706855,-0.915,0.557,-0.226,53.527,1.22,-253.601,1
4.71419,-0.923,0.517,-0.208,57.189,4.211,-250.427,1
4.722754,-0.85,0.507,-0.228,54.687,6.713,-246.765,1
4.730831,-0.761,0.502,-0.235,50.415,10.375,-242.431,1
4.738626,-0.685,0.491,-0.265,50.72,10.986,-239.685,1
4.747684,-0.608,0.47,-0.259,50.048,13.122,-235.9,1
4.756761,-0.583,0.447,-0.27,38.574,13.122,-231.933,1
4.764255,-0.533,0.449,-0.225,26.733,16.174,-228.027,1
4.772266,-0.474,0.468,-0.258,9.521,15.258,-224.792,1
4.780619,-0.478,0.488,-0.196,0.122,16.662,-222.106,1
4.787941,-0.426,0.496,-0.232,-4.394,16.54,-219.36,1
4.796338,-0.322,0.49,-0.244,-2.319,16.357,-216.796,1
4.8053,-0.24,0.526,-0.319,-1.464,16.784,-215.026,1
4.813049,-0.206,0.562,-0.334,4.272,17.7,-213.928,1
4.820587,-0.133,0.64,-0.362,22.277,18.432,-213.562,1
4.830055,-0.189,0.744,-0.412,55.48,19.714,-213.5,1
4.837102,-0.247,0.807,-0.456,72.448,19.348,-213.623,1
4.846739,-0.308,0.867,-0.459,91.369,18.066,-213.623,1
4.854826,-0.387,0.947,-0.457,114.379,18.066,-212.097,1
4.862681,-0.248,0.889,-0.457,131.469,16.54,-213.378,1
4.873447,-0.182,0.82,-0.397,137.207,21.24,-211.73,1
4.881158,-0.11,0.883,-0.5,125.854,21.667,-210.449,1
4.889923,-0.128,0.949,-0.475,119.262,24.719,-209.899,1
4.897481,-0.077,0.969,-0.536,117.858,26.611,-210.693,1
4.907009,-0.19,1.019,-0.526,110.168,28.503,-212.097,1
4.914279,-0.159,1.034,-0.543,102.539,30.7,-214.782,1
4.922742,-0.206,1.018,-0.527,97.412,33.874,-216.796,1
4.930699,-0.201,0.976,-0.544,90.637,37.048,-218.933,1
4.938047,-0.185,0.926,-0.547,77.575,39.611,-220.886,1
4.946386,-0.072,0.866,-0.566,63.964,43.518,-222.351,1
4.954321,-0.039,0.77,-0.561,47.18,44.677,-223.999,1
4.961129,-0.002,0.702,-0.518,36.987,46.203,-224.67,1
4.969908,0.044,0.618,-0.513,39.55,45.837,-224.975,1
4.978425,0.054,0.526,-0.481,51.086,45.166,-224.304,1
4.98586,0.103,0.433,-0.443,65.734,45.166,-223.327,1
4.99603,0.081,0.326,-0.497,69.824,44.433,-222.167,1
5.002657,-0.039,0.258,-0.438,62.622,45.654,-220.092,1
5.011164,0.016,0.166,-0.458,52.429,50.231,-217.895,1
5.018448,-0.031,0.096,-0.437,36.56,50.781,-216.796,1
5.029055,-0.087,0.045,-0.423,24.841,54.321,-214.721,1
5.037979,-0.179,-0.011,-0.417,15.747,55.664,-212.585,1
5.045191,-0.27,-0.057,-0.416,17.883,58.288,-210.388,1
5.054153,-0.393,-0.144,-0.407,17.883,59.509,-207.641,1
5.063348,-0.454,-0.228,-0.393,13.488,63.72,-203.918,1
5.070433,-0.513,-0.34,-0.341,-6.53,68.481,-198.669,1
5.080831,-0.705,-0.387,-0.298,-24.78,72.753,-193.603,1
5.089646,-0.637,-0.423,-0.219,-16.967,74.768,-187.622,1
5.097365,-0.508,-0.452,-0.163,50.231,71.594,-182.983,1
5.106605,-0.393,-0.517,-0.105,179.748,68.176,-177.307,1
5.115366,-0.284,-0.769,-0.18,277.282,62.927,-170.715,1
5.122763,-0.282,-1.183,-0.203,294.982,71.716,-157.775,1
5.132673,-0.368,-1.571,-0.282,207.885,86.12,-143.432,1
5.139762,-0.455,-1.723,-0.292,45.104,106.872,-126.464,1
5.148556,-0.53,-1.636,-0.207,-43.762,117.736,-110.839,1
5.157228,-0.56,-1.582,-0.156,-27.832,119.445,-98.083,1
5.165083,-0.6,-1.71,-0.16,5.615,117.797,-82.031,1
5.174435,-0.614,-1.835,-0.164,26.184,120.727,-65.429,1
5.181906,-0.602,-1.937,-0.155,58.044,120.971,-44.189,1
5.19077,-0.663,-2.157,-0.144,71.228,124.755,-20.751,1
5.197342,-0.679,-2.27,-0.121,61.584,128.54,1.464,1
5.206725,-0.752,-2.349,-0.084,46.447,136.535,28.198,1
5.21441,-0.951,-2.376,-0.053,33.691,140.991,51.696,1
5.223667,-1.14,-2.362,-0.021,17.272,150.573,78.857,1
5.230618,-1.363,-2.319,-0.003,-17.517,159.362,104.919,1
5.240205,-1.622,-2.222,0.012,-33.325,169.86,127.624,1
5.248107,-1.905,-2.098,-0.002,-25.146,175.781,149.597,1
5.257593,-2.225,-2.028,-0.049,-3.112,184.753,176.208,1
5.264606,-2.533,-2.021,-0.167,4.943,190.063,204.345,1
5.273549,-2.878,-2.001,-0.262,9.521,197.998,234.252,1
5.280785,-3.175,-2.034,-0.404,8.239,201.477,261.596,1
5.290046,-3.662,-2.146,-0.449,-48.706,215.026,295.166,1
5.298061,-4.062,-2.189,-0.635,-132.995,230.651,328.857,1
5.306719,-4.551,-2.108,-0.667,-191.101,247.07,356.811,1
5.31433,-5.09,-1.987,-0.781,-217.834,262.939,384.521,1
5.323097,-5.625,-1.943,-0.857,-218.688,281.555,417.968,1
5.33148,-6.25,-1.952,-1.011,-200.134,295.837,452.941,1
5.33973,-6.916,-1.965,-1.151,-168.884,310.729,490.417,1
5.349165,-7.624,-2.071,-1.315,-142.272,318.908,525.817,1
5.356542,-8.559,-2.053,-1.455,-112.976,324.157,563.537,1
5.364978,-9.458,-2.108,-1.697,-71.838,327.514,610.229,1
5.372879,-10.506,-2.151,-1.978,-47.302,325.134,653.93,1
5.380623,-11.439,-2.136,-2.251,-18.432,318.786,707.702,1
5.389395,-12.613,-2.055,-2.556,36.437,298.828,763.488,1
5.398303,-13.641,-1.975,-2.819,122.07,267.517,814.147,1
5.407266,-15.059,-1.874,-3.187,253.784,203.918,877.014,1
5.415551,-15.999,-1.764,-3.431,390.869,113.281,943.786,1
5.422625,-15.999,-1.529,-3.561,510.375,10.498,1000.793,1
5.432218,-15.999,-1.198,-3.503,649.841,-140.258,1060.546,1
5.439853,-15.999,-0.691,-3.117,759.277,-293.884,1099.67,1
5.447846,-15.999,-0.184,-2.482,871.215,-491.943,1121.948,1
5.456598,-15.999,0.321,-1.811,938.11,-669.006,1113.586,1
5.465712,-15.999,0.874,-0.854,972.106,-842.59,1075.622,1
5.472341,-15.999,1.445,0.257,993.286,-1032.165,996.826,1
5.479778,-15.999,1.661,1.133,977.844,-1199.585,884.765,1
5.490108,-15.999,1.844,1.877,916.259,-1323.791,773.864,1
5.497144,-15.999,1.994,2.845,856.384,-1435.485,639.099,1
5.50614,-15.999,2.362,3.399,840.881,-1522.888,503.723,1
5.513758,-15.999,2.698,4.062,885.131,-1588.561,352.844,1
5.523258,-15.999,2.933,4.737,930.847,-1624.511,209.411,1
5.529943,-15.999,3.347,5.483,1124.328,-1617.187,35.766,1
5.537529,-15.999,3.361,5.352,1318.115,-1599.365,-183.288,1
5.545485,-15.999,2.713,5.109,1347.778,-1501.83,-453.674,1
5.553451,-15.999,1.719,5.203,1183.593,-1359.68,-645.202,1
5.563201,-15.999,0.775,4.672,964.294,-1195.8,-774.23,1
5.570738,-15.999,0.207,3.961,790.466,-1039.306,-866.455,1
5.579967,-15.999,-0.017,3.581,729.37,-913.146,-918.09,1
5.587323,-15.999,-0.458,3.185,690.185,-775.207,-959.777,1
5.59627,-15.999,-1.334,2.568,632.08,-657.897,-975.891,1
5.603396,-15.999,-1.921,2.24,535.705,-539.55,-972.473,1
5.613062,-15.999,-2.311,1.801,491.088,-443.847,-953.308,1
5.621205,-15.999,-2.583,1.627,508.3,-362.853,-925.17,1
5.62988,-15.221,-2.702,1.489,539.001,-295.471,-895.324,1
5.638273,-13.671,-2.797,1.482,583.313,-217.102,-852.172,1
5.647891,-12.459,-2.891,1.398,611.938,-131.896,-798.4,1
5.655884,-11.184,-2.969,1.234,623.168,-51.879,-739.929,1
5.664598,-10.223,-3.033,0.909,593.2,16.601,-685.302,1
5.672968,-9.063,-2.922,0.621,512.634,84.411,-609.313,1
5.680359,-7.993,-2.729,0.374,473.937,124.877,-550.964,1
5.689227,-6.915,-2.484,0.083,440.307,157.714,-484.436,1
5.698368,-5.984,-2.24,-0.253,386.169,182.189,-421.997,1
5.705945,-5.377,-1.89,-0.383,325.134,195.983,-366.027,1
5.71503,-5.009,-1.613,-0.491,297.607,200.317,-322.204,1
5.72348,-4.625,-1.345,-0.47,285.217,201.477,-276.916,1
5.732129,-4.252,-1.162,-0.533,292.297,197.998,-235.9,1
5.739546,-3.937,-1.032,-0.497,306.396,194.519,-203.369,1
5.748023,-3.62,-0.93,-0.506,324.645,189.025,-167.846,1
5.757225,-3.375,-0.87,-0.477,335.327,187.133,-138.977,1
5.763739,-3.125,-0.876,-0.486,324.523,184.875,-111.816,1
5.77303,-2.843,-0.906,-0.439,283.569,185.729,-82.58,1
5.78023,-2.548,-0.906,-0.425,239.868,185.302,-60.913,1
5.789394,-2.282,-0.879,-0.35,205.688,183.471,-38.879,1
5.797163,-2.075,-0.873,-0.331,195.556,180.053,-21.728,1
5.805941,-1.83,-0.894,-0.296,193.908,175.292,-3.234,1
5.815299,-1.603,-0.911,-0.299,187.194,169.86,14.77,1
5.823905,-1.424,-0.9,-0.279,179.992,164.306,31.555,1
5.832585,-1.331,-0.88,-0.268,175.964,159.057,45.227,1
5.839793,-1.245,-0.896,-0.254,169.067,153.747,59.02,1
5.84853,-1.103,-0.899,-0.273,154.846,147.644,73.791,1
5.855592,-0.954,-0.893,-0.246,135.375,140.869,87.768,1
5.864235,-0.878,-0.856,-0.239,120.483,134.582,98.266,1
5.873104,-0.807,-0.83,-0.211,109.008,126.525,109.008,1
5.88196,-0.696,-0.818,-0.224,98.51,117.858,119.079,1
5.889712,-0.583,-0.809,-0.205,88.5,109.985,127.38,1
5.897087,-0.504,-0.777,-0.192,75.5,100.83,136.108,1
5.905641,-0.449,-0.72,-0.148,70.495,92.163,143.005,1
5.912912,-0.37,-0.676,-0.113,72.387,83.557,149.414,1
5.922473,-0.343,-0.651,-0.059,73.852,74.279,156.433,1
5.930232,-0.312,-0.629,-0.004,66.467,67.749,162.17,1
5.937457,-0.286,-0.582,0.02,63.537,61.401,168.579,1
5.946521,-0.286,-0.528,0.055,64.331,56.213,173.522,1
5.953997,-0.28,-0.491,0.061,64.575,51.208,177.978,1
5.960249,-0.271,-0.459,0.082,62.805,46.386,182.312,1
5.967914,-0.226,-0.422,0.085,60.791,42.297,186.767,1
5.976239,-0.161,-0.395,0.108,57.8,37.475,190.551,1
5.984831,-0.084,-0.349,0.153,60.18,33.996,195.007,1
5.993672,-0.061,-0.321,0.166,66.284,28.564,199.829,1
6.00172,-0.04,-0.311,0.199,62.499,24.719,204.528,1
6.008494,-0.016,-0.304,0.206,49.133,22.216,208.312,1
6.017545,-0.029,-0.302,0.216,28.32,21.179,211.425,1
6.024961,-0.041,-0.296,0.197,2.685,20.629,213.989,1
6.032664,-0.046,-0.299,0.181,-25.329,19.836,215.759,1
6.041263,0.011,-0.292,0.156,-51.879,19.348,218.078,1
6.050115,0.013,-0.289,0.136,-77.209,18.005,219.36,1
6.057453,0.13,-0.256,0.148,-82.214,15.747,220.031,1
6.066248,0.159,-0.232,0.153,-67.749,12.634,221.069,1
6.073306,0.202,-0.209,0.172,-41.137,8.666,222.29,1
6.081595,0.182,-0.196,0.181,-4.699,3.784,223.388,1
6.088728,0.18,-0.193,0.181,25.024,-0.671,224.06,1
6.097591,0.174,-0.205,0.166,49.377,-5.92,224.914,1
6.106434,0.161,-0.223,0.158,57.434,-9.643,225.952,1
6.112705,0.126,-0.23,0.14,54.87,-12.695,226.806,1
6.121304,0.072,-0.225,0.144,44.128,-15.319,227.905,1
6.129835,0.02,-0.206,0.145,37.78,-17.517,228.637,1
6.137695,0.004,-0.175,0.161,40.527,-21.972,229.064,1
6.146512,-0.011,-0.159,0.173,64.086,-27.648,229.98,1
6.153526,-0.034,-0.158,0.194,75.561,-34.362,231.689,1
6.162584,0.005,-0.168,0.214,89.477,-41.198,232.849,1
6.16966,-0.034,-0.209,0.256,90.637,-45.837,234.436,1
6.177786,0.001,-0.249,0.292,79.711,-48.278,237.487,1
6.185141,0.017,-0.235,0.313,71.166,-48.889,239.685,1
6.194172,0.037,-0.229,0.328,62.866,-49.072,241.577,1
6.20199,0.018,-0.234,0.346,56.274,-48.889,244.018,1
6.209927,0.025,-0.24,0.328,48.95,-47.546,246.765,1
6.216593,0.036,-0.256,0.336,32.165,-46.752,250.183,1
6.225703,0.02,-0.247,0.318,13.183,-44.433,253.173,1
6.233914,-0.048,-0.217,0.323,-13.854,-42.236,256.652,1
6.242247,-0.162,-0.193,0.321,-39.733,-39.123,259.765,1
6.251368,-0.336,-0.168,0.356,-70.495,-34.484,263.916,1
6.260768,-0.417,-0.118,0.37,-86.669,-27.648,268.92,1
6.270974,-0.472,-0.074,0.398,-89.172,-18.676,273.132,1
6.27888,-0.65,-0.061,0.382,-86.73,-11.718,277.16,1
6.286248,-0.846,-0.029,0.39,-85.144,-9.338,279.907,1
6.293651,-0.827,-0.032,0.381,-72.082,-1.281,283.02,1
6.303121,-0.692,-0.06,0.363,-62.194,0.366,286.987,1
6.310968,-0.729,-0.103,0.356,-58.044,6.164,292.48,1
6.318633,-0.958,-0.107,0.303,-63.476,5.676,296.813,1
6.328165,-1.235,-0.101,0.312,-68.176,9.033,303.649,1
6.334536,-1.342,-0.087,0.241,-69.335,6.164,308.715,1
6.344212,-1.454,-0.068,0.231,-67.26,4.577,314.636,1
6.35217,-1.633,-0.01,0.187,-67.932,-0.244,323.364,1
6.359729,-1.877,0.1,0.19,-71.472,-1.159,331.359,1
6.368239,-2.169,0.272,0.167,-75.5,-6.103,338.561,1
6.375285,-2.384,0.42,0.21,-68.908,-8.666,343.566,1
6.383879,-2.506,0.507,0.201,-58.105,-13.122,348.51,1
6.391968,-2.589,0.62,0.253,-47.302,-16.357,352.355,1
6.398555,-2.741,0.823,0.264,-41.687,-20.08,356.323,1
6.407585,-2.931,0.861,0.297,-37.963,-22.644,358.093,1
6.414704,-2.882,1.049,0.408,-33.02,-23.437,356.384,1
6.423646,-2.989,0.986,0.41,-33.325,-22.277,359.374,1
6.431622,-2.812,1.283,0.495,-26.55,-20.446,352.355,1
6.438628,-3.098,1.453,0.484,-6.347,-18.798,349.182,1
6.447668,-3.006,1.277,0.437,-13.977,-17.761,344.665,1
6.455237,-2.824,1.606,0.579,-46.752,-7.995,333.679,1
6.462515,-2.811,1.557,0.575,-59.814,0.427,330.139,1
6.470551,-2.742,1.671,0.545,-82.946,11.779,323.12,1
6.478811,-2.674,1.821,0.502,-112.121,22.766,313.415,1
6.485803,-2.61,1.943,0.548,-101.989,30.639,305.053,1
6.495959,-2.656,2.018,0.466,-100.83,39.428,295.227,1
6.503293,-2.541,2.016,0.511,-117.919,49.987,283.081,1
6.511771,-2.417,1.958,0.425,-151.611,65.063,272.827,1
6.519635,-2.376,1.957,0.466,-187.438,76.11,262.634,1
6.527941,-2.152,1.923,0.454,-202.026,88.134,254.76,1
6.535383,-2.096,1.928,0.434,-208.74,98.754,247.619,1
6.543196,-2.033,1.951,0.353,-222.228,110.168,238.952,1
6.550808,-2.037,2.008,0.291,-240.173,119.079,230.957,1
6.55956,-1.529,1.988,0.252,-280.517,126.342,228.82,1
6.567716,-2.174,2.223,0.185,-251.159,134.094,214.111,1
6.576414,-2.028,2.298,0.098,-206.359,134.521,202.331,1
6.583276,-1.963,2.241,0.139,-164.855,131.713,192.687,1
6.591651,-1.812,2.142,0.083,-136.23,133.85,185.363,1
6.598374,-1.634,2.123,0.082,-127.563,131.774,175.109,1
6.605847,-1.582,2.106,0.099,-104.736,132.873,168.09,1
6.616366,-1.845,2.11,-0.03,-120.117,133.056,158.996,1
6.622886,-1.593,2.093,0.033,-141.479,135.07,146.118,1
6.630411,-1.535,2.068,0.032,-151.916,138.305,135.803,1
6.638801,-1.716,1.995,0.026,-161.376,139.831,125.671,1
6.645699,-1.534,1.933,0.039,-157.653,142.089,116.271,1
6.654807,-1.397,1.853,0.011,-144.958,141.906,107.238,1
6.663032,-1.375,1.731,-0.036,-138.732,141.479,97.961,1
6.669845,-1.236,1.666,-0.036,-131.286,140.014,90.515,1
6.678383,-1.346,1.54,-0.067,-116.21,140.197,86.12,1
6.687103,-1.395,1.465,-0.144,-118.041,138.854,81.298,1
6.696601,-1.302,1.435,-0.138,-109.13,137.329,77.026,1
6.703658,-1.149,1.349,-0.2,-88.623,133.789,72.998,1
6.710871,-1.125,1.297,-0.231,-74.34,130.981,70.922,1
6.720101,-1.057,1.246,-0.264,-55.053,127.868,69.824,1
6.727384,-1.003,1.218,-0.3,-35.278,124.023,68.603,1
6.734679,-0.968,1.194,-0.335,-14.892,120.483,67.077,1
6.743545,-0.997,1.19,-0.359,-3.906,117.492,65.734,1
6.752523,-0.974,1.225,-0.398,1.525,115.417,64.025,1
6.759453,-0.902,1.227,-0.419,-4.394,113.098,61.218,1
6.768324,-0.893,1.259,-0.438,-9.948,112.243,58.349,1
6.775921,-0.915,1.299,-0.439,-9.582,108.276,53.771,1
6.783909,-0.946,1.319,-0.437,-2.441,106.201,49.804,1
6.792575,-0.894,1.298,-0.462,2.258,101.928,45.166,1
6.801031,-0.89,1.274,-0.446,3.417,100.341,40.893,1
6.80984,-0.838,1.237,-0.445,-4.455,97.534,36.132,1
6.820396,-0.779,1.185,-0.41,-17.822,96.923,31.188,1
6.82825,-0.801,1.163,-0.4,-33.325,95.703,26.062,1
6.836288,-0.865,1.126,-0.367,-47.302,95.886,21.606,1
6.844043,-0.868,1.083,-0.354,-62.927,95.825,17.456,1
6.852708,-0.885,1.045,-0.321,-83.557,96.435,13.305,1
6.861307,-0.898,1.029,-0.309,-95.703,96.374,9.765,1
6.86928,-0.914,0.986,-0.279,-101.44,95.886,5.615,1
6.8766,-0.909,0.946,-0.27,-103.515,95.153,2.929,1
6.884637,-0.933,0.891,-0.25,-106.323,94.421,0.61,1
6.891842,-0.977,0.844,-0.239,-114.257,94.055,-1.464,1
6.899541,-0.955,0.799,-0.229,-127.99,94.299,-2.868,1
6.9083,-0.901,0.8,-0.223,-133.972,92.773,-4.394,1
6.915614,-0.907,0.802,-0.186,-118.591,89.233,-5.981,1
6.922999,-0.895,0.767,-0.185,-99.67,85.754,-7.263,1
6.931408,-0.879,0.724,-0.185,-86.853,81.909,-7.873,1
6.939297,-0.86,0.684,-0.163,-79.895,79.162,-7.629,1
6.948363,-0.854,0.645,-0.163,-79.589,76.477,-7.507,1
6.956934,-0.849,0.613,-0.162,-93.261,74.401,-7.202,1
6.966446,-0.836,0.596,-0.157,-111.633,73.242,-7.019,1
6.97354,-0.78,0.583,-0.14,-133.972,72.326,-7.019,1
6.982653,-0.709,0.587,-0.108,-149.292,70.861,-6.958,1
6.990845,-0.664,0.612,-0.088,-149.597,68.42,-7.568,1
6.998161,-0.642,0.636,-0.07,-134.094,65.002,-7.751,1
7.006641,-0.621,0.633,-0.06,-112.854,60.729,-8.117,1
7.013386,-0.615,0.629,-0.051,-91.308,57.495,-7.629,1
7.022747,-0.614,0.629,-0.034,-72.998,53.833,-7.69,1
7.032002,-0.592,0.618,-0.024,-54.26,51.269,-7.019,1
7.040425,-0.559,0.601,-0.004,-43.457,49.438,-7.324,1
7.049522,-0.54,0.574,0.0,-40.649,49.255,-7.019,1
7.056199,-0.532,0.557,-0.003,-43.64,48.889,-7.019,1
7.064701,-0.53,0.528,0.007,-54.87,49.743,-6.896,1
7.072778,-0.523,0.511,-0.01,-69.824,51.452,-7.08,1
7.081843,-0.521,0.497,-0.011,-93.688,52.978,-7.507,1
7.089081,-0.532,0.496,-0.02,-124.084,55.786,-8.056,1
7.096828,-0.561,0.487,-0.022,-156.921,57.922,-8.972,1
7.106195,-0.571,0.479,-0.019,-193.237,60.913,-9.948,1
7.113299,-0.562,0.492,-0.012,-228.82,63.476,-10.925,1
7.123941,-0.562,0.509,0.002,-263.183,66.162,-12.084,1
7.131303,-0.588,0.545,0.014,-285.888,67.626,-13.61,1
7.140261,-0.599,0.579,0.025,-286.56,66.772,-14.282,1
7.147313,-0.615,0.603,0.038,-271.606,64.697,-14.404,1
7.154276,-0.656,0.625,0.045,-237.182,60.363,-13.916,1
7.162116,-0.701,0.649,0.049,-196.899,55.664,-12.512,1
7.170941,-0.718,0.655,0.046,-152.038,50.659,-10.925,1
7.178454,-0.716,0.644,0.04,-107.482,45.593,-8.789,1
7.187807,-0.715,0.625,0.024,-61.584,40.1,-5.432,1
7.195081,-0.712,0.597,0.006,-31.249,35.827,-2.685,1
7.202824,-0.717,0.579,-0.011,-6.896,32.226,0.854,1
7.21136,-0.713,0.558,-0.027,2.807,29.846,3.723,1
7.219572,-0.705,0.54,-0.041,4.089,28.015,6.774,1
7.227543,-0.687,0.525,-0.05,-4.333,26.916,9.948,1
7.233738,-0.698,0.532,-0.056,-14.831,26.489,12.695,1
7.241581,-0.69,0.545,-0.047,-24.536,26.367,14.892,1
7.250534,-0.659,0.562,-0.035,-31.555,26.062,16.662,1
7.260128,-0.62,0.574,-0.028,-36.132,26.0,18.432,1
7.267158,-0.601,0.592,-0.021,-37.78,25.695,19.653,1
7.276395,-0.604,0.612,-0.022,-37.048,25.207,20.446,1
7.283176,-0.634,0.637,-0.017,-34.362,24.841,20.935,1
7.29246,-0.631,0.666,-0.011,-28.381,23.986,20.874,1
7.298462,-0.609,0.682,0.0,-17.517,22.644,20.629,1
7.305794,-0.597,0.683,0.0,-8.056,21.545,20.141,1
7.314714,-0.605,0.688,0.0,-0.976,20.996,19.958,1
7.324026,-0.61,0.689,-0.008,3.051,20.385,19.958,1
7.331646,-0.612,0.686,-0.017,2.563,20.263,19.714,1
7.339335,-0.628,0.686,-0.031,-2.746,20.568,19.714,1
7.34858,-0.658,0.688,-0.036,-12.207,21.057,19.836,1
7.357669,-0.658,0.691,-0.039,-27.038,22.094,20.263,1
7.365546,-0.639,0.704,-0.035,-39.916,22.949,20.568,1
7.373191,-0.633,0.718,-0.026,-51.452,23.803,21.179,1
7.381086,-0.639,0.737,-0.022,-59.265,24.23,21.24,1
7.389532,-0.646,0.755,-0.017,-64.27,24.597,21.667,1
7.397871,-0.641,0.78,-0.008,-67.687,25.085,21.606,1
7.405626,-0.638,0.806,-0.004,-68.42,25.268,21.85,1
7.41433,-0.657,0.842,-0.008,-66.711,24.78,21.423,1
7.422965,-0.673,0.872,-0.009,-62.316,24.169,21.179,1
7.430724,-0.675,0.889,-0.009,-58.776,23.681,20.996,1
7.440239,-0.68,0.903,-0.011,-59.692,23.498,20.568,1
7.446916,-0.692,0.911,-0.007,-69.335,24.169,20.141,1
7.45665,-0.688,0.924,0.002,-85.876,26.0,19.836,1
7.46338,-0.664,0.956,0.023,-112.792,29.052,18.981,1
7.471532,-0.643,0.996,0.044,-135.253,31.982,18.188,1
7.47969,-0.625,1.048,0.06,-152.282,35.034,17.028,1
7.486781,-0.616,1.116,0.079,-159.301,36.682,15.747,1
7.495671,-0.582,1.198,0.1,-151.611,37.658,12.939,1
7.503391,-0.559,1.26,0.112,-135.62,37.597,10.681,1
7.511808,-0.538,1.317,0.121,-113.647,36.376,7.324,1
7.519525,-0.554,1.357,0.134,-96.679,35.888,4.211,1
7.526318,-0.576,1.387,0.145,-83.679,35.522,1.22,1
7.535939,-0.594,1.399,0.163,-79.101,36.499,-1.525,1
7.545015,-0.585,1.405,0.187,-83.679,38.818,-4.821,1
7.552466,-0.552,1.434,0.225,-100.097,43.212,-8.544,1
7.55934,-0.521,1.472,0.244,-121.032,48.767,-12.756,1
7.56839,-0.491,1.517,0.27,-136.169,52.795,-16.723,1
7.577044,-0.491,1.577,0.277,-147.399,56.823,-21.911,1
7.58447,-0.514,1.668,0.308,-142.7,58.959,-27.709,1
7.593164,-0.521,1.706,0.31,-124.511,60.607,-33.996,1
7.602058,-0.507,1.718,0.324,-112.121,61.218,-39.428,1
7.609401,-0.507,1.723,0.323,-102.233,63.598,-44.921,1
7.618028,-0.529,1.731,0.325,-100.708,65.368,-49.682,1
7.625036,-0.555,1.748,0.34,-103.637,67.993,-54.809,1
7.634461,-0.543,1.751,0.344,-110.29,71.777,-60.974,1
7.641817,-0.553,1.75,0.354,-118.896,75.256,-65.673,1
7.649852,-0.56,1.753,0.346,-128.356,79.589,-71.777,1
7.657957,-0.559,1.763,0.342,-133.728,83.007,-77.758,1
7.666545,-0.576,1.765,0.33,-135.681,85.144,-82.58,1
7.67544,-0.592,1.761,0.316,-136.596,87.219,-87.829,1
7.682037,-0.595,1.744,0.297,-137.39,88.684,-93.078,1
7.691295,-0.605,1.735,0.284,-139.343,90.332,-97.045,1
7.699033,-0.606,1.718,0.267,-141.418,91.674,-101.501,1
7.705688,-0.615,1.717,0.255,-143.92,92.59,-105.407,1
7.714789,-0.627,1.74,0.236,-145.874,94.055,-110.839,1
7.722536,-0.66,1.769,0.221,-146.301,94.482,-115.905,1
7.730228,-0.689,1.812,0.228,-141.357,94.909,-122.436,1
7.739536,-0.723,1.841,0.224,-132.69,95.52,-128.051,1
7.745987,-0.773,1.859,0.2,-128.051,96.374,-135.253,1
7.754864,-0.797,1.855,0.182,-131.774,97.717,-141.418,1
7.762398,-0.844,1.842,0.162,-142.211,99.243,-148.193,1
7.77113,-0.897,1.833,0.138,-158.02,100.646,-155.822,1
7.778224,-0.928,1.827,0.116,-169.555,100.891,-162.17,1
7.787592,-0.957,1.815,0.095,-175.353,100.158,-168.273,1
7.795065,-0.983,1.803,0.077,-172.424,97.29,-174.499,1
7.802715,-1.018,1.79,0.056,-162.048,93.811,-178.649,1
7.81147,-1.043,1.785,0.034,-144.653,89.538,-182.189,1
7.81907,-1.057,1.777,0.021,-121.276,83.679,-186.096,1
7.828083,-1.063,1.759,0.012,-99.609,79.345,-189.636,1
7.835474,-1.066,1.737,0.003,-76.049,74.523,-193.359,1
7.844412,-1.079,1.706,-0.003,-56.396,70.678,-197.204,1
7.853939,-1.065,1.681,-0.006,-43.457,67.687,-200.439,1
7.862976,-1.071,1.645,-0.01,-29.724,64.758,-204.833,1
7.871581,-1.072,1.616,-0.007,-21.972,63.049,-207.885,1
7.878538,-1.036,1.568,0.002,-11.718,61.096,-211.059,1
7.887566,-1.031,1.53,0.004,-5.065,60.363,-213.256,1
7.896151,-1.046,1.492,-0.008,-10.498,60.119,-214.965,1
7.905663,-1.042,1.454,0.003,-24.719,60.913,-216.186,1
7.912903,-1.041,1.458,0.013,-36.682,60.546,-217.834,1
7.922428,-1.039,1.468,0.019,-37.109,59.936,-219.177,1
7.929873,-1.057,1.477,0.021,-29.296,57.922,-221.13,1
7.938176,-1.068,1.488,0.015,-16.845,55.786,-222.9,1
7.946475,-1.086,1.502,0.006,-0.061,53.527,-224.853,1
7.954363,-1.12,1.505,-0.004,23.01,50.903,-226.928,1
7.962893,-1.132,1.482,-0.019,42.541,49.011,-228.82,1
7.970363,-1.151,1.443,-0.037,55.358,48.156,-230.102,1
7.978647,-1.179,1.411,-0.058,55.236,48.828,-231.872,1
7.987491,-1.198,1.375,-0.068,41.259,50.415,-233.215,1
7.995661,-1.195,1.339,-0.066,24.78,52.368,-234.802,1
8.001823,-1.204,1.309,-0.074,8.789,53.771,-236.389,1
8.009594,-1.219,1.288,-0.081,-2.807,54.687,-237.915,1
8.018654,-1.229,1.247,-0.083,-8.666,54.565,-239.013,1
8.026037,-1.132,1.188,-0.198,-13.977,56.64,-239.99,1
8.033599,-1.147,1.208,-0.193,-23.071,57.189,-240.112,1
8.04132,-1.096,1.13,-0.272,-32.104,59.631,-239.929,1
8.050183,-1.028,1.093,-0.37,-63.598,61.95,-240.6,1
8.056752,-1.066,1.049,-0.379,-88.562,62.438,-241.943,1
8.065546,-1.072,1.011,-0.411,-111.572,63.842,-243.103,1
8.075147,-0.975,0.916,-0.428,-137.573,60.546,-245.483,1
8.081969,-1.034,0.832,-0.457,-182.373,59.57,-246.032,1
8.090671,-1.133,0.845,-0.476,-201.782,56.518,-247.558,1
8.098251,-1.144,0.853,-0.429,-201.049,49.926,-247.863,1
8.107278,-1.041,0.803,-0.44,-185.058,42.663,-248.229,1
8.113154,-0.997,0.748,-0.458,-167.236,34.301,-247.253,1
8.122906,-0.976,0.696,-0.456,-145.751,26.184,-245.422,1
8.130472,-0.919,0.635,-0.456,-115.295,16.54,-242.126,1
8.138226,-0.854,0.588,-0.456,-85.205,10.253,-239.074,1
8.145554,-0.789,0.535,-0.466,-56.396,4.577,-236.083,1
8.154569,-0.736,0.479,-0.472,-27.954,0.61,-232.421,1
8.161972,-0.744,0.406,-0.496,-21.606,-0.671,-229.309,1
8.170861,-0.864,0.356,-0.521,-31.677,-0.366,-226.196,1
8.178325,-0.776,0.305,-0.548,-50.292,1.281,-223.937,1
8.188437,-0.613,0.244,-0.551,-83.923,3.051,-221.679,1
8.196044,-0.607,0.212,-0.58,-116.577,5.981,-219.299,1
8.20378,-0.604,0.223,-0.586,-132.629,6.53,-216.735,1
8.211901,-0.546,0.214,-0.598,-132.873,6.408,-213.745,1
8.219932,-0.486,0.193,-0.614,-119.934,3.967,-210.693,1
8.226845,-0.423,0.158,-0.64,-104.064,1.77,-207.458,1
8.236751,-0.37,0.111,-0.651,-89.172,-1.647,-204.589,1
8.244551,-0.319,0.072,-0.659,-69.946,-4.76,-200.378,1
8.253144,-0.267,0.028,-0.682,-55.358,-7.751,-197.265,1
8.260862,-0.238,0.007,-0.687,-43.884,-9.826,-193.786,1
8.269336,-0.224,-0.021,-0.701,-40.954,-11.779,-190.734,1
8.277095,-0.217,-0.042,-0.694,-41.931,-13.122,-187.194,1
8.285919,-0.194,-0.066,-0.692,-45.959,-14.892,-183.654,1
8.295373,-0.165,-0.088,-0.673,-51.696,-15.808,-181.03,1
8.303861,-0.134,-0.102,-0.664,-52.856,-18.066,-177.978,1
8.312106,-0.093,-0.12,-0.645,-47.058,-20.568,-174.072,1
8.320589,-0.007,-0.113,-0.613,-28.076,-22.827,-170.349,1
8.328927,0.064,-0.109,-0.619,-1.037,-25.512,-167.724,1
8.335615,0.087,-0.083,-0.612,30.273,-28.32,-165.222,1
8.345662,0.158,-0.091,-0.616,51.269,-30.334,-164.123,1
8.354103,0.098,-0.103,-0.573,64.88,-30.395,-162.902,1
8.362954,0.257,-0.142,-0.595,59.936,-29.296,-161.56,1
8.370875,0.327,-0.156,-0.548,36.376,-25.268,-160.034,1
8.379518,0.323,-0.163,-0.573,10.131,-23.376,-159.118,1
8.386692,0.348,-0.121,-0.524,-15.197,-21.057,-158.203,1
8.396859,0.398,-0.067,-0.535,-24.353,-21.545,-158.081,1
8.403985,0.417,-0.036,-0.48,-16.662,-23.62,-158.447,1
8.413324,0.434,-0.038,-0.481,-7.629,-24.475,-158.813,1
8.421531,0.448,-0.049,-0.468,-5.432,-24.414,-158.874,1
8.428752,0.484,-0.054,-0.482,-14.831,-23.986,-159.24,1
8.437323,0.484,-0.057,-0.478,-34.362,-22.521,-159.301,1
8.446244,0.489,-0.041,-0.485,-54.565,-21.179,-159.79,1
8.453923,0.487,-0.022,-0.499,-78.918,-20.08,-160.827,1
8.462231,0.373,0.001,-0.505,-105.346,-19.958,-161.682,1
8.471271,0.381,0.01,-0.517,-126.342,-19.348,-161.743,1
8.480179,0.402,0.022,-0.528,-144.592,-21.545,-161.987,1
8.487335,0.382,0.039,-0.521,-149.78,-23.071,-162.17,1
8.49676,0.319,0.056,-0.51,-144.531,-26.855,-162.658,1
8.506149,0.263,0.078,-0.495,-129.211,-28.93,-163.452,1
8.514112,0.143,0.102,-0.49,-103.027,-32.47,-164.978,1
8.522302,0.107,0.069,-0.528,-89.538,-34.667,-167.236,1
8.530739,0.171,0.03,-0.55,-81.787,-35.766,-168.701,1
8.538705,0.18,0.002,-0.608,-76.904,-38.208,-170.593,1
8.547953,0.242,-0.017,-0.64,-69.091,-41.442,-171.752,1
8.555893,0.046,-0.001,-0.671,-45.654,-48.034,-173.828,1
8.565353,-0.034,-0.044,-0.662,-16.418,-52.185,-174.194,1
8.572531,-0.032,-0.08,-0.657,24.108,-57.739,-175.048,1
8.581701,0.0,-0.15,-0.654,56.518,-60.302,-176.147,1
8.588612,0.019,-0.285,-0.638,74.401,-62.133,-177.185,1
8.597939,-0.071,-0.394,-0.622,72.814,-60.913,-175.17,1
8.6053,0.117,-0.434,-0.534,88.684,-58.41,-174.011,1
8.613424,0.208,-0.583,-0.558,85.021,-56.152,-172.18,1
8.621311,0.134,-0.699,-0.52,68.969,-48.645,-168.212,1
8.630078,0.105,-0.793,-0.583,38.696,-45.715,-163.391,1
8.636822,0.053,-0.811,-0.484,20.08,-38.391,-159.179,1
8.64548,0.06,-0.867,-0.508,19.531,-37.536,-156.555,1
8.653954,0.006,-0.933,-0.415,37.841,-34.606,-152.648,1
8.662395,-0.016,-1.064,-0.432,54.016,-33.447,-148.986,1
8.670447,-0.055,-1.172,-0.34,57.739,-29.357,-144.104,1
8.678168,-0.02,-1.361,-0.332,37.536,-22.949,-137.695,1
8.687666,-0.077,-1.441,-0.253,5.981,-16.479,-130.981,1
8.696697,-0.092,-1.457,-0.202,-6.347,-11.23,-123.84,1
8.703871,-0.089,-1.5,-0.132,8.605,-7.629,-114.807,1
8.712908,-0.121,-1.583,-0.106,20.324,-4.333,-106.811,1
8.720183,-0.221,-1.588,-0.066,33.996,-0.122,-97.045,1
8.728791,-0.178,-1.665,-0.036,50.231,4.333,-89.477,1
8.737331,-0.236,-1.813,-0.06,33.447,11.169,-77.697,1
8.747096,-0.378,-1.832,0.003,24.108,18.005,-65.979,1
8.75398,-0.431,-1.873,0.045,29.113,23.559,-53.527,1
8.763057,-0.445,-1.948,0.064,37.475,28.625,-41.992,1
8.770161,-0.479,-1.99,0.083,42.114,33.752,-29.052,1
8.779509,-0.524,-2.076,0.079,37.536,40.71,-14.343,1
8.787584,-0.627,-2.13,0.11,20.324,49.804,2.624,1
8.796849,-0.763,-2.126,0.11,11.291,59.326,20.141,1
8.804441,-0.887,-2.14,0.133,14.526,65.734,36.499,1
8.811984,-0.912,-2.17,0.098,28.198,73.669,56.518,1
8.819796,-1.004,-2.194,0.077,39.978,79.223,74.768,1
8.828993,-1.114,-2.233,0.043,45.043,86.12,93.872,1
8.83632,-1.274,-2.253,0.022,43.701,93.688,113.769,1
8.845143,-1.4,-2.262,-0.018,38.818,104.309,138.488,1
8.852122,-1.543,-2.232,-0.057,29.785,113.281,160.339,1
8.861265,-1.726,-2.19,-0.1,15.747,124.511,186.95,1
8.869189,-1.98,-2.104,-0.109,2.624,134.46,210.388,1
8.87591,-2.314,-1.925,-0.071,2.197,143.005,233.886,1
8.885037,-2.629,-1.904,-0.143,-4.821,155.334,261.718,1
8.89248,-2.934,-1.801,-0.153,-23.925,167.724,285.705,1
8.899851,-3.386,-1.637,-0.177,-47.363,180.236,310.119,1
8.90848,-3.781,-1.5,-0.194,-63.415,197.631,338.378,1
8.916626,-4.131,-1.393,-0.252,-77.087,210.937,361.877,1
8.925717,-4.604,-1.274,-0.28,-86.486,225.83,385.62,1
8.933509,-5.099,-1.203,-0.354,-99.182,242.919,414.306,1
8.941499,-5.622,-1.146,-0.403,-110.595,259.399,439.147,1
8.948748,-6.186,-1.085,-0.511,-125.122,279.357,467.834,1
8.958052,-6.691,-1.07,-0.641,-138.854,297.485,493.103,1
8.966457,-7.368,-1.111,-0.835,-158.752,319.58,523.498,1
8.97347,-8.075,-1.196,-1.059,-174.743,339.111,551.33,1
8.982508,-8.719,-1.312,-1.316,-190.49,362.365,585.083,1
8.988938,-9.388,-1.385,-1.582,-187.011,377.685,615.173,1
8.997458,-10.101,-1.424,-1.807,-142.395,387.084,648.132,1
9.005945,-10.986,-1.462,-2.119,-39.916,383.544,692.077,1
9.014131,-11.923,-1.492,-2.405,59.387,366.882,735.961,1
9.022069,-13.0,-1.396,-2.719,165.344,330.2,793.212,1
9.03053,-14.005,-1.247,-2.922,262.451,282.47,845.214,1
9.038262,-15.177,-1.007,-3.039,366.516,207.214,908.813,1
9.047151,-15.999,-0.655,-3.142,460.266,120.849,962.585,1
9.056539,-15.999,-0.109,-2.994,572.509,-3.845,1018.981,1
9.06398,-15.999,0.594,-2.64,664.062,-130.126,1056.518,1
9.072436,-15.999,1.118,-2.126,739.135,-287.902,1083.068,1
9.081405,-15.999,1.666,-1.532,759.765,-443.786,1087.402,1
9.087852,-15.999,2.165,-0.898,746.215,-572.265,1071.289,1
9.096569,-15.999,2.591,-0.21,725.036,-691.65,1040.283,1
9.103551,-15.999,2.854,0.63,708.312,-808.349,998.413,1
9.113377,-15.999,3.054,1.458,744.262,-940.795,933.166,1
9.120439,-15.999,2.92,2.253,782.165,-1070.556,849.792,1
9.129362,-15.999,3.037,3.093,783.569,-1161.56,771.728,1
9.137264,-15.999,3.413,3.661,851.623,-1237.243,676.086,1
9.144786,-15.999,3.623,4.459,937.561,-1308.471,558.288,1
9.152862,-15.999,3.552,4.921,938.293,-1352.844,403.686,1
9.161506,-15.999,3.804,5.448,889.343,-1366.821,250.183,1
9.169167,-15.999,4.101,5.652,936.279,-1355.895,113.281,1
9.178526,-15.999,3.708,5.614,1046.386,-1339.965,-38.94,1
9.186579,-15.999,2.589,5.395,1115.722,-1266.723,-225.769,1
9.194054,-15.999,1.408,5.04,955.871,-1158.874,-384.826,1
9.201774,-15.999,0.743,4.851,769.897,-1047.119,-475.83,1
9.209871,-15.999,0.395,4.474,677.978,-953.43,-539.55,1
9.21876,-15.999,0.21,4.147,660.766,-842.834,-598.022,1
9.226148,-15.999,-0.008,3.812,638.916,-752.075,-639.77,1
9.2346,-15.927,-0.282,3.378,586.059,-643.737,-672.79,1
9.242174,-14.621,-0.459,3.047,535.339,-564.331,-687.438,1
9.249477,-13.361,-0.675,2.935,486.145,-484.802,-690.551,1
9.258168,-12.144,-0.928,2.83,429.138,-412.231,-685.119,1
9.266655,-10.96,-1.12,2.821,372.253,-341.064,-672.363,1
9.274706,-10.135,-1.144,2.679,326.049,-270.629,-653.747,1
9.282435,-9.347,-1.083,2.547,318.054,-219.36,-636.047,1
9.29132,-8.579,-1.053,2.358,330.688,-169.067,-614.44,1
9.300542,-7.833,-1.042,2.163,344.421,-126.647,-594.909,1
9.306958,-7.208,-1.047,1.994,357.543,-82.336,-570.434,1
9.316313,-6.423,-1.054,1.795,370.3,-45.043,-548.095,1
9.323088,-5.983,-1.036,1.644,373.474,-6.835,-518.798,1
9.330722,-5.534,-1.013,1.521,372.07,26.977,-491.332,1
9.339972,-5.042,-0.996,1.34,364.501,56.091,-463.989,1
9.347269,-4.841,-0.99,1.208,334.533,90.698,-430.297,1
9.356677,-4.512,-0.938,1.004,306.579,116.943,-404.052,1
9.365526,-4.252,-0.876,0.875,265.686,142.578,-373.168,1
9.372067,-3.9,-0.827,0.664,225.28,162.475,-344.665,1
9.380237,-3.639,-0.801,0.543,197.082,174.926,-321.777,1
9.387909,-3.303,-0.776,0.379,173.156,185.729,-300.231,1
9.395657,-3.045,-0.735,0.28,152.709,191.528,-277.526,1
9.404568,-2.857,-0.719,0.191,143.249,196.35,-259.399,1
9.41167,-2.684,-0.731,0.1,130.737,197.937,-241.76,1
9.419484,-2.431,-0.777,0.032,120.788,199.707,-224.853,1
9.429725,-2.157,-0.825,-0.052,114.624,198.913,-206.054,1
9.436635,-1.994,-0.875,-0.099,110.717,197.448,-190.246,1
9.44551,-1.728,-0.96,-0.179,104.248,196.228,-172.668,1
9.452304,-1.576,-1.048,-0.29,85.205,191.833,-157.043,1
9.461424,-1.318,-1.095,-0.312,64.88,185.18,-139.282,1
9.46988,-1.062,-1.107,-0.358,60.241,178.222,-124.816,1
9.477269,-0.828,-1.092,-0.35,71.899,168.457,-108.032,1
9.486331,-0.625,-1.078,-0.364,92.407,158.508,-93.322,1
9.493302,-0.425,-1.071,-0.346,117.126,148.681,-77.514,1
9.500951,-0.283,-1.042,-0.347,132.568,137.39,-59.448,1
9.509748,-0.151,-0.982,-0.317,139.16,128.845,-43.945,1
9.517713,-0.058,-0.886,-0.289,143.005,120.422,-29.357,1
9.526397,-0.001,-0.793,-0.257,145.935,110.961,-13.244,1
9.535625,0.03,-0.699,-0.222,144.714,101.135,1.037,1
9.54276,0.058,-0.619,-0.187,142.15,93.749,12.207,1
9.551727,0.111,-0.565,-0.163,139.953,84.838,24.169,1
9.558586,0.162,-0.516,-0.138,139.831,77.209,33.508,1
9.566836,0.182,-0.472,-0.113,142.456,69.03,42.236,1
9.573736,0.216,-0.446,-0.085,148.132,60.852,50.109,1
9.583056,0.283,-0.438,-0.062,154.663,51.452,59.082,1
9.589638,0.349,-0.416,-0.043,158.569,44.067,65.979,1
9.59718,0.387,-0.396,-0.014,160.339,36.499,72.021,1
9.605967,0.416,-0.37,0.013,161.56,29.724,78.125,1
9.614165,0.434,-0.351,0.049,161.01,21.484,83.679,1
9.621533,0.432,-0.358,0.074,156.86,15.441,88.195,1
9.629526,0.48,-0.37,0.106,146.179,9.582,92.712,1
9.637522,0.514,-0.363,0.148,130.371,4.394,97.656,1
9.644128,0.522,-0.335,0.184,117.919,0.183,101.44,1
9.651372,0.511,-0.314,0.238,113.586,-4.577,104.431,1
9.658815,0.508,-0.295,0.267,114.624,-8.789,106.811,1
9.667609,0.528,-0.293,0.297,117.004,-13.305,109.13,1
9.67447,0.547,-0.285,0.333,119.201,-16.174,111.267,1
9.684439,0.546,-0.264,0.354,120.605,-19.409,113.037,1
9.692416,0.572,-0.247,0.373,123.901,-23.376,113.891,1
9.699278,0.558,-0.249,0.389,126.22,-26.611,114.868,1
9.707631,0.611,-0.254,0.391,127.502,-31.188,115.417,1
9.715016,0.605,-0.244,0.423,128.54,-33.935,116.21,1
9.724061,0.627,-0.236,0.433,127.502,-38.208,116.699,1
9.731583,0.612,-0.214,0.476,126.037,-42.419,117.431,1
9.739284,0.56,-0.191,0.508,119.628,-45.471,117.004,1
9.746934,0.465,-0.162,0.543,111.999,-46.813,116.21,1
9.756143,0.429,-0.149,0.557,99.121,-47.363,114.99,1
9.763309,0.409,-0.127,0.566,87.768,-47.18,114.135,1
9.770969,0.426,-0.103,0.573,77.941,-47.241,112.854,1
9.779836,0.422,-0.085,0.576,76.171,-47.79,111.45,1
9.787611,0.438,-0.08,0.588,81.604,-49.377,110.107,1
9.794304,0.492,-0.08,0.611,92.407,-50.354,108.825,1
9.801769,0.55,-0.077,0.613,109.619,-53.771,107.116,1
9.811136,0.558,-0.064,0.666,126.831,-55.603,106.262,1
9.819648,0.581,-0.074,0.657,143.676,-59.143,104.675,1
9.827799,0.583,-0.077,0.731,150.512,-60.974,104.309,1
9.836466,0.532,-0.063,0.756,145.812,-61.523,103.82,1
9.843295,0.402,-0.038,0.826,131.225,-58.715,102.539,1
9.851586,0.351,-0.025,0.838,113.891,-55.786,101.196,1
9.859254,0.338,-0.005,0.892,94.665,-51.696,99.67,1
9.866219,0.397,-0.004,0.885,78.979,-48.095,98.388,1
9.874872,0.444,-0.002,0.906,70.617,-45.288,97.412,1
9.881888,0.537,-0.014,0.906,66.894,-42.724,96.862,1
9.889735,0.629,-0.016,0.949,66.345,-42.053,97.106,1
9.898167,0.692,-0.019,0.968,70.068,-40.466,97.29,1
9.905515,0.705,-0.005,1.009,74.34,-39.55,98.388,1
9.913336,0.694,0.024,1.038,79.04,-38.513,99.914,1
9.920818,0.654,0.06,1.077,81.97,-37.109,100.891,1
9.929246,0.626,0.08,1.09,79.406,-33.691,101.684,1
9.93689,0.601,0.1,1.084,65.063,-29.357,101.623,1
9.945571,0.549,0.132,1.08,47.363,-23.925,101.684,1
9.952698,0.496,0.162,1.041,30.09,-18.981,101.196,1
9.961945,0.462,0.164,0.976,16.845,-13.488,101.318,1
9.970083,0.513,0.117,0.902,-0.244,-9.399,102.05,1
9.978098,0.592,0.061,0.835,-16.357,-4.882,104.064,1
9.986474,0.765,0.038,0.786,-31.677,-3.967,107.604,1
9.993501,0.923,0.109,0.829,-21.728,-4.211,110.534,1
