timestamp_s,ax,ay,az,gx,gy,gz,label
0.005955,-0.752,0.556,-0.035,7.629,-1.342,0.61,1
0.013038,-0.751,0.562,-0.034,7.141,-1.403,1.281,1
0.021327,-0.752,0.561,-0.04,5.554,-1.098,2.258,1
0.027924,-0.752,0.566,-0.038,3.601,-1.037,2.99,1
0.036298,-0.751,0.572,-0.041,2.075,-1.037,3.601,1
0.043072,-0.752,0.571,-0.035,0.305,-0.976,4.211,1
0.051345,-0.751,0.572,-0.037,-1.22,-1.037,4.882,1
0.057851,-0.749,0.581,-0.038,-2.075,-0.915,5.554,1
0.06687,-0.75,0.59,-0.038,-2.624,-0.976,6.103,1
0.073531,-0.762,0.598,-0.035,-2.685,-1.403,6.774,1
0.080828,-0.763,0.611,-0.03,-1.77,-1.525,7.385,1
0.088962,-0.761,0.622,-0.034,-0.122,-1.586,7.629,1
0.097008,-0.752,0.626,-0.031,2.014,-2.075,7.568,1
0.103224,-0.756,0.632,-0.028,4.028,-2.563,8.056,1
0.111593,-0.761,0.643,-0.028,5.92,-2.807,8.178,1
0.118923,-0.756,0.652,-0.03,7.385,-2.99,7.995,1
0.127259,-0.761,0.664,-0.03,8.483,-3.173,7.934,1
0.134126,-0.754,0.665,-0.03,8.972,-3.356,7.69,1
0.140651,-0.759,0.67,-0.031,8.789,-3.479,7.202,1
0.148429,-0.757,0.671,-0.026,8.239,-3.479,7.08,1
0.156771,-0.759,0.677,-0.032,6.652,-3.662,6.469,1
0.163138,-0.759,0.674,-0.027,5.249,-3.295,6.225,1
0.170524,-0.761,0.675,-0.024,4.028,-3.356,6.042,1
0.178772,-0.761,0.681,-0.024,3.112,-3.173,5.615,1
0.185696,-0.762,0.685,-0.029,2.624,-3.234,5.493,1
0.192802,-0.756,0.688,-0.023,2.563,-3.54,5.126,1
0.200501,-0.751,0.699,-0.026,3.356,-3.601,4.882,1
0.208484,-0.753,0.705,-0.023,4.638,-3.784,4.577,1
0.216713,-0.758,0.712,-0.023,6.042,-4.333,4.394,1
0.223956,-0.753,0.717,-0.023,7.263,-4.577,3.784,1
0.231049,-0.748,0.719,-0.021,8.422,-4.821,3.295,1
0.238957,-0.75,0.724,-0.025,8.972,-4.882,2.624,1
0.245546,-0.752,0.727,-0.02,9.46,-5.187,2.014,1
0.253385,-0.747,0.733,-0.022,9.399,-5.371,1.525,1
0.260408,-0.746,0.733,-0.022,9.704,-5.554,1.342,1
0.268654,-0.75,0.743,-0.026,9.704,-5.615,0.793,1
0.275141,-0.753,0.749,-0.026,9.582,-5.737,0.183,1
0.283471,-0.746,0.759,-0.027,9.399,-5.981,-0.366,1
0.290357,-0.743,0.773,-0.029,8.544,-5.92,-0.854,1
0.298394,-0.735,0.78,-0.03,6.652,-5.981,-1.77,1
0.305441,-0.733,0.791,-0.037,3.601,-5.676,-2.563,1
0.313754,-0.733,0.801,-0.033,0.061,-5.432,-3.234,1
0.320509,-0.741,0.815,-0.04,-3.601,-5.187,-4.028,1
0.328789,-0.735,0.837,-0.037,-6.53,-5.126,-4.943,1
0.336674,-0.734,0.854,-0.037,-8.3,-5.187,-5.981,1
0.343574,-0.729,0.872,-0.029,-7.995,-5.187,-6.774,1
0.352451,-0.726,0.899,-0.033,-6.774,-5.126,-7.873,1
0.359147,-0.723,0.917,-0.03,-5.31,-5.004,-8.666,1
0.366356,-0.715,0.948,-0.032,-4.272,-4.577,-9.826,1
0.374472,-0.712,0.969,-0.035,-4.638,-4.211,-11.169,1
0.381717,-0.722,1.0,-0.038,-6.896,-3.234,-12.512,1
0.390333,-0.727,1.042,-0.047,-12.023,-2.38,-14.099,1
0.397839,-0.726,1.087,-0.049,-18.005,-1.464,-15.93,1
0.404233,-0.72,1.135,-0.051,-23.071,-0.488,-18.188,1
0.412267,-0.716,1.184,-0.056,-25.329,-0.183,-20.874,1
0.419473,-0.708,1.235,-0.055,-24.78,0.305,-23.62,1
0.42694,-0.69,1.283,-0.063,-22.399,0.061,-26.672,1
0.43488,-0.679,1.319,-0.073,-19.958,0.244,-29.968,1
0.441963,-0.671,1.354,-0.084,-17.761,0.244,-33.752,1
0.450067,-0.673,1.384,-0.095,-16.357,0.549,-37.292,1
0.457963,-0.672,1.416,-0.103,-16.235,0.488,-41.015,1
0.464775,-0.663,1.436,-0.119,-18.493,0.854,-44.86,1
0.472688,-0.653,1.463,-0.128,-23.498,1.464,-49.072,1
0.480757,-0.645,1.499,-0.147,-28.625,1.831,-53.466,1
0.48781,-0.651,1.542,-0.165,-34.606,1.831,-57.922,1
0.495526,-0.666,1.584,-0.178,-39.489,1.22,-62.377,1
0.504352,-0.685,1.624,-0.189,-43.579,0.244,-67.443,1
0.511201,-0.695,1.659,-0.2,-43.884,-0.854,-72.387,1
0.519081,-0.703,1.693,-0.206,-40.161,-2.929,-77.453,1
0.526734,-0.712,1.725,-0.205,-31.494,-4.882,-82.824,1
0.534337,-0.726,1.759,-0.222,-20.935,-7.019,-88.439,1
0.542143,-0.738,1.78,-0.231,-10.375,-9.155,-94.055,1
0.549591,-0.746,1.789,-0.25,-1.281,-11.23,-100.158,1
0.557505,-0.767,1.783,-0.26,5.676,-13.488,-107.116,1
0.564488,-0.789,1.77,-0.27,8.3,-14.892,-111.816,1
0.571276,-0.801,1.746,-0.272,9.704,-16.723,-117.614,1
0.579763,-0.82,1.72,-0.283,10.253,-18.005,-122.68,1
0.586893,-0.843,1.708,-0.288,10.192,-19.775,-127.807,1
0.595282,-0.88,1.708,-0.292,11.291,-22.094,-133.85,1
0.602269,-0.916,1.709,-0.3,15.686,-24.597,-138.732,1
0.60993,-0.92,1.691,-0.293,23.681,-26.855,-144.287,1
0.618433,-0.926,1.658,-0.29,33.935,-29.113,-149.292,1
0.625129,-0.94,1.604,-0.286,42.236,-30.578,-154.296,1
0.633842,-0.955,1.54,-0.273,47.973,-31.799,-158.569,1
0.641791,-0.958,1.467,-0.26,50.415,-31.982,-162.658,1
0.650051,-0.974,1.391,-0.244,50.109,-32.165,-165.649,1
0.657291,-0.974,1.312,-0.229,47.729,-31.921,-168.029,1
0.66503,-0.97,1.216,-0.198,44.799,-31.311,-169.738,1
0.67165,-0.962,1.133,-0.184,41.32,-30.822,-170.288,1
0.6792,-0.946,1.049,-0.166,35.278,-30.029,-170.288,1
0.686741,-0.929,0.985,-0.151,28.93,-29.479,-169.311,1
0.694294,-0.916,0.922,-0.139,21.484,-28.625,-168.273,1
0.702649,-0.914,0.863,-0.126,14.587,-28.625,-166.442,1
0.710275,-0.892,0.812,-0.119,2.38,-27.954,-163.696,1
0.716904,-0.859,0.766,-0.098,-7.324,-27.221,-161.621,1
0.724772,-0.83,0.745,-0.089,-19.47,-26.55,-158.752,1
0.73226,-0.804,0.727,-0.086,-32.104,-25.817,-155.883,1
0.73981,-0.783,0.719,-0.078,-44.433,-25.512,-153.32,1
0.748637,-0.752,0.718,-0.073,-54.443,-25.085,-150.207,1
0.754869,-0.732,0.729,-0.074,-63.476,-25.207,-146.789,1
0.76275,-0.719,0.751,-0.082,-68.969,-25.756,-144.409,1
0.770792,-0.705,0.79,-0.1,-74.89,-26.855,-141.174,1
0.777883,-0.713,0.851,-0.11,-75.439,-28.503,-139.099,1
0.785807,-0.721,0.915,-0.124,-71.472,-31.311,-137.268,1
0.794024,-0.715,0.98,-0.126,-61.523,-33.874,-135.803,1
0.800851,-0.694,1.038,-0.133,-47.668,-37.231,-135.192,1
0.808535,-0.669,1.076,-0.147,-31.555,-39.855,-135.131,1
0.816138,-0.651,1.104,-0.156,-17.089,-42.846,-135.375,1
0.824187,-0.628,1.127,-0.158,-6.103,-44.921,-135.803,1
0.832013,-0.602,1.145,-0.162,0.671,-46.508,-136.352,1
0.838881,-0.575,1.154,-0.162,4.516,-47.241,-136.84,1
0.846398,-0.532,1.155,-0.157,5.126,-47.058,-137.023,1
0.85356,-0.49,1.148,-0.148,0.732,-46.447,-137.512,1
0.861407,-0.447,1.157,-0.152,-8.728,-44.799,-137.084,1
0.868819,-0.407,1.174,-0.15,-20.874,-43.457,-137.207,1
0.876547,-0.38,1.208,-0.164,-34.667,-41.748,-137.146,1
0.884306,-0.362,1.239,-0.181,-47.79,-40.71,-137.39,1
0.893002,-0.342,1.278,-0.184,-56.213,-40.405,-138.0,1
0.89937,-0.322,1.302,-0.202,-62.011,-40.405,-138.732,1
0.907147,-0.31,1.331,-0.225,-67.26,-40.832,-139.282,1
0.916579,-0.309,1.364,-0.266,-72.387,-42.114,-140.319,1
0.923339,-0.312,1.399,-0.274,-74.157,-44.067,-141.113,1
0.930975,-0.304,1.432,-0.292,-72.387,-46.142,-142.333,1
0.937695,-0.298,1.461,-0.31,-70.434,-48.217,-143.554,1
0.946033,-0.288,1.493,-0.349,-73.669,-48.217,-144.653,1
0.952628,-0.152,1.556,-0.623,-98.022,-43.518,-146.789,1
0.960977,-0.235,1.576,-0.582,-145.629,-46.02,-149.963,1
0.968078,-0.177,1.617,-0.627,-176.452,-37.536,-151.672,1
0.976303,-0.241,1.705,-0.687,-195.983,-43.334,-155.822,1
0.983719,-0.249,1.765,-0.713,-194.519,-38.391,-158.691,1
0.990775,-0.277,1.801,-0.842,-192.504,-43.518,-164.123,1
0.998315,-0.3,1.798,-0.85,-190.002,-41.87,-168.212,1
1.006001,-0.309,1.807,-0.915,-198.364,-45.959,-173.217,1
1.014718,-0.359,1.836,-0.886,-206.298,-48.522,-177.551,1
1.021012,-0.376,1.816,-0.914,-216.918,-54.138,-182.189,1
1.029504,-0.42,1.788,-0.891,-230.529,-59.57,-185.607,1
1.036234,-0.416,1.762,-0.902,-244.14,-66.955,-187.683,1
1.044492,-0.399,1.728,-0.888,-251.403,-76.171,-189.147,1
1.051317,-0.381,1.679,-0.868,-252.136,-85.998,-190.368,1
1.059199,-0.376,1.619,-0.847,-247.253,-96.313,-191.04,1
1.067304,-0.368,1.554,-0.828,-235.839,-106.384,-191.223,1
1.074494,-0.386,1.477,-0.797,-220.764,-116.21,-191.406,1
1.082289,-0.431,1.404,-0.783,-208.129,-124.45,-191.955,1
1.090256,-0.491,1.31,-0.753,-201.416,-131.958,-192.871,1
1.098313,-0.544,1.224,-0.721,-201.049,-139.343,-194.274,1
1.106092,-0.592,1.142,-0.674,-205.2,-145.751,-195.19,1
1.113022,-0.649,1.064,-0.603,-208.496,-152.038,-195.373,1
1.121343,-0.705,0.996,-0.541,-205.261,-159.118,-195.8,1
1.128003,-0.72,0.924,-0.464,-193.969,-166.564,-196.044,1
1.136885,-0.795,0.847,-0.412,-176.33,-173.767,-196.105,1
1.143578,-0.8,0.773,-0.37,-156.127,-180.541,-196.228,1
1.151211,-0.8,0.689,-0.342,-135.498,-187.316,-196.044,1
1.158941,-0.812,0.622,-0.314,-116.149,-193.115,-195.922,1
1.167081,-0.832,0.56,-0.292,-100.097,-197.937,-195.495,1
1.174028,-0.895,0.512,-0.258,-88.928,-201.538,-195.129,1
1.181979,-0.96,0.443,-0.244,-87.646,-204.284,-194.458,1
1.190191,-0.991,0.375,-0.221,-99.243,-206.176,-193.115,1
1.198401,-0.988,0.295,-0.216,-123.168,-208.312,-190.673,1
1.205077,-1.058,0.257,-0.185,-152.648,-211.059,-187.316,1
1.213367,-1.144,0.224,-0.145,-179.504,-214.05,-184.082,1
1.220529,-1.277,0.223,-0.094,-205.444,-217.224,-180.725,1
1.228353,-1.533,0.2,-0.041,-214.66,-222.228,-177.917,1
1.235589,-1.654,0.181,0.056,-213.378,-224.304,-174.438,1
1.242949,-1.537,0.145,0.083,-204.833,-229.919,-170.227,1
1.250901,-1.464,0.106,0.175,-191.894,-234.558,-166.625,1
1.259003,-1.491,0.045,0.238,-178.161,-238.098,-163.146,1
1.267087,-1.544,0.019,0.3,-164.733,-242.675,-157.897,1
1.273838,-1.635,-0.041,0.369,-156.677,-245.544,-154.113,1
1.282111,-1.74,-0.102,0.42,-158.264,-247.314,-150.146,1
1.289153,-1.861,-0.179,0.445,-170.776,-248.291,-143.249,1
1.296876,-1.886,-0.234,0.468,-189.27,-249.206,-135.681,1
1.304964,-1.871,-0.291,0.487,-208.984,-251.159,-126.831,1
1.312786,-1.906,-0.324,0.494,-225.463,-253.417,-116.027,1
1.319528,-1.926,-0.359,0.494,-233.703,-258.605,-104.492,1
1.328021,-1.947,-0.399,0.518,-225.83,-263.793,-91.186,1
1.334832,-1.993,-0.442,0.548,-206.359,-270.385,-78.796,1
1.342785,-2.026,-0.474,0.59,-178.161,-276.0,-66.65,1
1.350024,-2.032,-0.562,0.583,-156.25,-281.127,-54.992,1
1.358175,-2.101,-0.669,0.621,-151.733,-284.973,-41.809,1
1.366229,-2.104,-0.787,0.65,-164.611,-286.376,-27.038,1
1.374192,-2.116,-0.875,0.718,-202.758,-284.973,-6.286,1
1.382211,-2.187,-0.953,0.76,-234.802,-282.714,14.221,1
1.388352,-2.298,-0.954,0.886,-254.638,-279.541,32.714,1
1.396468,-2.474,-0.976,0.949,-266.357,-276.611,56.884,1
1.404221,-2.608,-1.031,1.041,-270.874,-273.62,82.519,1
1.411143,-2.587,-1.248,1.177,-285.888,-267.883,112.121,1
1.41873,-2.506,-1.377,1.32,-308.837,-258.85,144.042,1
1.426777,-2.664,-1.379,1.44,-316.223,-248.84,176.391,1
1.434291,-2.896,-1.384,1.546,-295.227,-240.6,209.594,1
1.440646,-3.116,-1.395,1.665,-265.625,-230.712,242.919,1
1.448304,-3.375,-1.302,1.71,-212.341,-222.717,274.658,1
1.456319,-3.651,-1.347,1.711,-179.321,-215.27,307.25,1
1.464573,-3.763,-1.451,1.74,-190.734,-200.195,341.674,1
1.471347,-3.95,-1.541,1.782,-242.919,-180.969,378.54,1
1.478233,-4.285,-1.532,1.91,-301.208,-151.0,417.968,1
1.486551,-4.688,-1.486,2.065,-344.421,-121.154,459.411,1
1.493284,-5.168,-1.442,2.291,-355.285,-83.496,501.647,1
1.501317,-5.661,-1.433,2.471,-352.722,-45.837,542.846,1
1.509252,-6.224,-1.413,2.63,-344.848,-1.403,584.106,1
1.517072,-6.874,-1.388,2.683,-347.9,45.227,623.779,1
1.523942,-7.479,-1.315,2.682,-370.605,98.632,662.78,1
1.531818,-8.16,-1.127,2.577,-402.648,156.311,699.89,1
1.540382,-8.919,-0.809,2.407,-426.391,219.299,733.276,1
1.54714,-9.817,-0.361,2.189,-427.795,279.663,761.962,1
1.55466,-10.752,0.04,1.925,-416.259,338.561,784.118,1
1.561203,-11.649,0.432,1.66,-402.099,392.639,799.865,1
1.569175,-12.411,0.742,1.439,-384.399,434.997,808.166,1
1.576291,-13.261,1.069,1.165,-360.473,481.079,812.255,1
1.584374,-13.963,1.385,0.896,-325.744,520.813,810.546,1
1.591001,-14.586,1.652,0.689,-286.621,552.978,805.114,1
1.599144,-15.408,1.952,0.586,-244.995,580.017,798.156,1
1.607344,-15.749,2.195,0.53,-189.941,600.097,792.114,1
1.613735,-15.996,2.274,0.366,-118.896,613.098,787.78,1
1.620285,-15.999,2.306,0.186,-87.097,622.863,784.912,1
1.627975,-15.999,2.374,0.126,-99.365,631.713,782.409,1
1.635806,-15.999,2.502,0.13,-138.488,644.714,776.0,1
1.642908,-15.999,2.542,0.084,-185.363,665.222,767.028,1
1.651652,-15.999,2.589,-0.108,-193.359,679.931,757.446,1
1.659719,-15.999,2.624,-0.228,-156.982,686.462,751.464,1
1.665967,-15.999,2.622,-0.355,-126.831,686.889,747.314,1
1.67433,-15.999,2.631,-0.463,-143.554,687.683,736.938,1
1.682229,-15.999,2.638,-0.8,-227.111,690.368,712.829,1
1.688715,-15.999,2.856,-1.095,-345.703,704.467,671.142,1
1.695382,-15.999,3.046,-1.528,-465.942,720.764,612.976,1
1.704157,-15.999,3.238,-1.814,-561.279,745.3,555.114,1
1.712064,-14.939,3.184,-2.357,-710.754,778.32,472.167,1
1.718673,-12.902,3.027,-3.29,-992.492,834.106,349.792,1
1.726627,-11.619,3.057,-3.868,-1240.051,846.618,213.928,1
1.734041,-10.777,3.015,-3.542,-1304.504,845.458,67.81,1
1.742361,-9.467,2.393,-2.977,-1221.374,808.227,-64.88,1
1.74996,-8.844,1.828,-2.464,-1051.391,770.324,-166.015,1
1.75758,-8.18,1.539,-2.587,-830.932,698.791,-240.539,1
1.766033,-7.5,1.166,-2.511,-578.43,629.211,-290.588,1
1.772624,-6.996,0.712,-2.748,-383.117,567.321,-319.152,1
1.7814,-6.671,0.247,-2.932,-284.851,511.718,-336.547,1
1.787894,-6.161,-0.093,-3.068,-253.417,460.144,-346.496,1
1.796059,-5.571,-0.351,-3.029,-260.192,416.564,-351.379,1
1.80425,-5.028,-0.544,-2.978,-266.174,378.54,-353.881,1
1.810778,-4.557,-0.708,-2.911,-261.901,338.256,-353.881,1
1.820053,-4.138,-0.889,-2.821,-254.028,303.649,-350.524,1
1.8269,-3.729,-1.118,-2.788,-258.239,270.141,-344.909,1
1.834994,-3.141,-1.357,-2.628,-286.743,239.562,-336.059,1
1.842966,-2.683,-1.43,-2.449,-308.715,205.993,-324.096,1
1.851138,-2.337,-1.427,-2.279,-303.527,176.33,-313.354,1
1.858956,-2.045,-1.411,-2.099,-286.621,148.681,-300.598,1
1.866849,-1.732,-1.414,-1.976,-278.198,122.07,-286.743,1
1.874622,-1.558,-1.351,-1.804,-273.132,98.083,-272.399,1
1.882203,-1.393,-1.276,-1.656,-261.352,75.012,-258.239,1
1.8891,-1.274,-1.193,-1.495,-242.065,54.077,-244.201,1
1.896953,-1.166,-1.126,-1.419,-213.134,33.63,-229.858,1
1.905273,-1.093,-1.066,-1.309,-163.696,10.681,-213.5,1
1.912579,-1.049,-1.038,-1.27,-122.497,-5.371,-199.829,1
1.920705,-0.984,-0.989,-1.206,-89.66,-19.653,-187.438,1
1.930225,-0.898,-0.943,-1.164,-57.495,-32.409,-173.767,1
1.937987,-0.819,-0.942,-1.131,-41.381,-41.625,-162.902,1
1.945474,-0.669,-0.97,-1.107,-41.503,-47.912,-151.916,1
1.953194,-0.547,-0.94,-1.073,-48.034,-55.358,-139.892,1
1.961234,-0.412,-0.919,-1.006,-50.659,-59.631,-130.004,1
1.969398,-0.366,-0.89,-0.997,-58.654,-65.185,-120.666,1
1.977392,-0.315,-0.82,-0.93,-69.946,-68.786,-109.863,1
1.985124,-0.247,-0.765,-0.88,-81.909,-72.692,-101.318,1
1.993339,-0.185,-0.713,-0.83,-95.581,-74.89,-91.613,1
2.001256,-0.136,-0.65,-0.782,-107.421,-77.636,-83.19,1
2.008282,-0.115,-0.59,-0.727,-116.943,-78.552,-75.317,1
2.017727,-0.07,-0.528,-0.671,-123.107,-81.115,-67.26,1
2.024301,-0.016,-0.46,-0.608,-127.563,-81.848,-59.875,1
2.0322,0.031,-0.402,-0.545,-126.525,-82.946,-53.1,1
2.039331,0.116,-0.357,-0.482,-117.492,-83.435,-47.363,1
2.047435,0.176,-0.32,-0.437,-104.675,-83.618,-41.931,1
2.056069,0.226,-0.302,-0.398,-91.064,-83.068,-36.193,1
2.063814,0.286,-0.27,-0.369,-78.979,-81.787,-31.982,1
2.071611,0.309,-0.255,-0.353,-73.12,-80.322,-27.893,1
2.077967,0.349,-0.241,-0.327,-72.998,-77.697,-23.803,1
2.085978,0.397,-0.225,-0.313,-77.331,-74.707,-19.958,1
2.094386,0.441,-0.221,-0.294,-85.205,-71.533,-16.357,1
2.100838,0.467,-0.203,-0.285,-94.604,-67.81,-12.512,1
2.109292,0.523,-0.212,-0.267,-104.553,-63.842,-8.85,1
2.116986,0.573,-0.203,-0.277,-115.783,-60.18,-4.821,1
2.123914,0.642,-0.189,-0.272,-123.962,-55.603,-0.549,1
2.132059,0.661,-0.18,-0.284,-130.92,-52.551,3.906,1
2.140835,0.668,-0.168,-0.28,-134.399,-48.339,8.3,1
2.14718,0.658,-0.168,-0.3,-135.314,-45.471,11.596,1
2.154195,0.643,-0.171,-0.303,-135.375,-42.297,14.892,1
2.162518,0.675,-0.18,-0.325,-137.268,-38.879,18.188,1
2.169196,0.623,-0.18,-0.32,-140.563,-35.339,21.606,1
2.177281,0.653,-0.188,-0.339,-146.606,-32.104,24.475,1
2.183975,0.718,-0.192,-0.334,-153.93,-29.052,27.465,1
2.192282,0.746,-0.187,-0.337,-160.522,-25.878,30.029,1
2.199469,0.762,-0.184,-0.338,-167.236,-23.437,32.47,1
2.208032,0.786,-0.19,-0.336,-172.302,-19.897,35.095,1
2.214423,0.809,-0.194,-0.349,-177.429,-16.601,37.841,1
2.222666,0.821,-0.193,-0.356,-180.786,-13.0,40.893,1
2.230404,0.843,-0.194,-0.371,-182.067,-10.009,43.884,1
2.238371,0.855,-0.185,-0.389,-179.809,-6.896,46.936,1
2.245257,0.856,-0.176,-0.409,-173.034,-5.187,49.926,1
2.25395,0.845,-0.165,-0.413,-160.827,-4.394,52.734,1
2.260255,0.839,-0.148,-0.42,-145.996,-4.577,55.236,1
2.268159,0.839,-0.131,-0.406,-131.042,-4.943,57.922,1
2.276733,0.852,-0.11,-0.407,-117.614,-5.249,61.096,1
2.285193,0.857,-0.086,-0.395,-110.168,-5.493,62.927,1
2.291794,0.834,-0.069,-0.394,-106.811,-5.065,64.941,1
2.299232,0.819,-0.047,-0.359,-104.187,-5.249,66.65,1
2.307405,0.834,-0.033,-0.373,-102.478,-3.906,68.054,1
2.314412,0.814,-0.021,-0.341,-102.478,-3.54,69.58,1
2.322386,0.825,-0.006,-0.333,-100.585,-2.197,70.739,1
2.328739,0.833,0.001,-0.331,-100.097,-1.892,71.96,1
2.337167,0.84,0.012,-0.322,-95.764,-0.427,72.998,1
2.34474,0.859,0.019,-0.324,-90.332,0.061,74.462,1
2.351815,0.879,0.023,-0.31,-85.021,1.403,75.683,1
2.358252,0.909,0.027,-0.308,-81.848,2.807,77.148,1
2.36584,0.934,0.031,-0.296,-81.115,3.967,78.247,1
2.373849,0.945,0.04,-0.283,-82.153,4.821,79.406,1
2.381521,0.937,0.051,-0.262,-82.763,6.225,81.115,1
2.388806,0.926,0.068,-0.25,-81.909,6.347,83.679,1
2.395475,0.918,0.084,-0.233,-79.589,6.835,85.937,1
2.403898,0.897,0.096,-0.232,-77.331,6.835,87.707,1
2.410278,0.886,0.105,-0.234,-75.134,6.896,89.538,1
2.417941,0.859,0.116,-0.244,-75.744,7.263,90.637,1
2.425746,0.875,0.117,-0.263,-78.796,7.934,91.979,1
2.432293,0.886,0.122,-0.273,-83.862,9.033,93.322,1
2.439471,0.852,0.146,-0.268,-86.303,10.742,94.909,1
2.447069,0.793,0.174,-0.279,-85.144,12.573,96.496,1
2.454155,0.707,0.202,-0.291,-79.406,13.122,98.266,1
2.461955,0.672,0.225,-0.329,-70.922,12.084,99.548,1
2.468826,0.683,0.228,-0.355,-64.88,9.521,99.731,1
2.47664,0.729,0.21,-0.359,-58.41,7.446,100.219,1
2.484362,0.794,0.204,-0.383,-53.71,5.615,100.646,1
2.49284,0.8,0.209,-0.402,-50.964,5.126,100.952,1
2.498777,0.758,0.232,-0.421,-48.461,3.906,101.074,1
2.507187,0.716,0.268,-0.432,-42.846,1.953,101.135,1
2.513517,0.675,0.298,-0.424,-30.944,-0.244,100.891,1
2.521657,0.673,0.317,-0.415,-13.0,-3.417,100.769,1
2.528587,0.694,0.321,-0.398,4.333,-6.042,100.891,1
2.535329,0.717,0.334,-0.377,25.512,-9.338,100.83,1
2.543319,0.736,0.321,-0.375,37.292,-11.413,100.83,1
2.550835,0.728,0.304,-0.369,35.4,-13.427,100.952,1
2.557711,0.711,0.289,-0.358,24.719,-14.16,101.135,1
2.56567,0.696,0.282,-0.348,4.333,-14.16,101.623,1
2.573834,0.663,0.289,-0.333,-17.395,-13.916,101.867,1
2.581036,0.653,0.306,-0.303,-32.958,-13.122,102.05,1
2.587497,0.623,0.322,-0.283,-39.001,-13.61,102.05,1
2.59545,0.625,0.318,-0.253,-34.912,-13.916,102.355,1
2.602148,0.655,0.305,-0.237,-23.62,-15.136,102.966,1
2.609455,0.672,0.29,-0.202,-10.62,-16.113,103.759,1
2.616753,0.683,0.278,-0.196,-0.854,-16.296,104.431,1
2.62466,0.699,0.285,-0.17,11.23,-17.089,105.285,1
2.631454,0.726,0.278,-0.15,21.667,-17.395,106.506,1
2.639314,0.72,0.28,-0.139,28.198,-17.333,107.36,1
2.646088,0.7,0.286,-0.129,30.883,-17.333,107.91,1
2.654089,0.709,0.301,-0.111,30.456,-16.784,108.276,1
2.660895,0.736,0.311,-0.108,26.062,-16.296,108.764,1
2.668781,0.745,0.304,-0.108,18.31,-15.441,109.374,1
2.676679,0.734,0.306,-0.105,8.239,-14.221,110.107,1
2.682952,0.71,0.307,-0.104,-1.403,-12.878,110.839,1
2.691637,0.702,0.319,-0.102,-6.042,-11.901,111.694,1
2.697962,0.683,0.329,-0.104,-2.685,-11.108,112.548,1
2.70512,0.672,0.334,-0.098,5.981,-10.925,113.464,1
2.71258,0.695,0.329,-0.102,18.798,-10.803,114.868,1
2.720719,0.676,0.33,-0.112,25.634,-9.399,116.271,1
2.727263,0.654,0.334,-0.132,18.249,-8.178,116.943,1
2.735605,0.625,0.348,-0.139,7.507,-6.469,117.98,1
2.74193,0.614,0.365,-0.14,-4.76,-4.333,118.957,1
2.749361,0.597,0.38,-0.136,-12.634,-2.563,120.422,1
2.756782,0.596,0.41,-0.134,-12.634,-1.77,121.948,1
2.764355,0.583,0.429,-0.113,-2.929,-1.525,123.107,1
2.772227,0.573,0.444,-0.098,15.075,-1.77,124.023,1
2.77959,0.559,0.436,-0.083,39.672,-2.807,125.244,1
2.786142,0.59,0.428,-0.091,59.02,-2.258,126.403,1
2.793234,0.562,0.437,-0.124,68.786,-0.549,127.807,1
2.800832,0.498,0.468,-0.192,56.091,2.929,128.479,1
2.807836,0.466,0.521,-0.241,28.015,6.652,128.723,1
2.815019,0.461,0.592,-0.253,4.333,9.582,128.54,1
2.822604,0.463,0.651,-0.25,-16.235,12.695,128.356,1
2.829832,0.465,0.726,-0.255,-25.39,14.465,127.807,1
2.836735,0.444,0.783,-0.257,-22.888,14.648,127.136,1
2.847015,0.434,0.826,-0.262,-12.512,13.793,126.586,1
2.851623,0.441,0.853,-0.27,8.85,11.352,125.732,1
2.860115,0.432,0.868,-0.288,34.24,8.666,124.938,1
2.865879,0.431,0.885,-0.32,54.504,5.981,124.206,1
2.872989,0.389,0.915,-0.356,62.072,4.15,123.352,1
2.880733,0.363,0.937,-0.389,60.852,2.136,121.765,1
2.88739,0.316,0.975,-0.415,52.734,1.281,119.873,1
2.894617,0.316,1.026,-0.433,43.518,0.549,118.286,1
2.902451,0.352,1.076,-0.439,34.118,0.0,116.088,1
2.909939,0.366,1.117,-0.458,27.587,-1.403,113.22,1
2.916736,0.36,1.193,-0.454,27.587,-2.624,110.473,1
2.924602,0.368,1.249,-0.457,33.508,-5.31,108.154,1
2.931968,0.39,1.28,-0.458,48.217,-8.117,105.224,1
2.938919,0.419,1.309,-0.462,62.438,-11.535,101.989,1
2.945977,0.415,1.331,-0.466,72.326,-14.709,98.754,1
2.954069,0.385,1.351,-0.483,75.866,-17.211,95.275,1
2.961035,0.334,1.372,-0.489,72.143,-19.47,91.247,1
2.968182,0.365,1.396,-0.496,69.519,-21.179,87.89,1
2.976385,0.395,1.416,-0.49,68.664,-22.888,83.923,1
2.982917,0.418,1.439,-0.505,65.551,-24.719,79.895,1
2.990915,0.445,1.464,-0.483,63.476,-26.855,75.5,1
2.997662,0.421,1.481,-0.47,62.744,-27.77,71.411,1
3.00598,0.448,1.502,-0.455,63.232,-29.235,67.626,1
3.01283,0.485,1.514,-0.437,67.687,-30.151,62.377,1
3.019399,0.453,1.515,-0.429,66.04,-30.639,57.373,1
3.026557,0.434,1.504,-0.411,58.349,-30.7,52.429,1
3.034954,0.43,1.5,-0.416,49.438,-30.151,49.011,1
3.04141,0.447,1.505,-0.442,36.804,-30.273,44.25,1
3.049332,0.368,1.482,-0.47,18.31,-29.235,39.916,1
3.055782,0.422,1.47,-0.491,-4.699,-29.235,36.682,1
3.063244,0.41,1.486,-0.475,-18.005,-29.052,33.874,1
3.070892,0.428,1.552,-0.468,-27.526,-31.127,30.7,1
3.077846,0.446,1.528,-0.477,-17.272,-31.982,26.794,1
3.085828,0.439,1.528,-0.45,-0.488,-36.193,24.047,1
3.093494,0.384,1.451,-0.471,13.122,-37.963,21.545,1
3.1,0.42,1.405,-0.454,16.601,-40.588,18.676,1
3.107487,0.416,1.381,-0.432,15.93,-40.588,16.296,1
3.114229,0.408,1.348,-0.446,8.605,-42.236,13.549,1
3.122029,0.387,1.302,-0.432,-2.014,-41.259,11.352,1
3.128925,0.407,1.273,-0.439,-13.305,-42.053,8.972,1
3.136688,0.402,1.261,-0.418,-20.69,-42.175,6.774,1
3.144978,0.4,1.28,-0.412,-24.719,-43.334,4.821,1
3.15158,0.416,1.282,-0.388,-21.545,-45.41,2.624,1
3.159875,0.39,1.262,-0.383,-12.878,-46.569,0.793,1
3.166283,0.406,1.234,-0.364,-6.53,-49.377,-1.098,1
3.174475,0.374,1.191,-0.333,-7.019,-49.743,-3.112,1
3.182919,0.351,1.161,-0.33,-11.108,-50.537,-4.577,1
3.189592,0.354,1.123,-0.295,-13.427,-50.598,-6.042,1
3.197512,0.357,1.091,-0.282,-14.16,-50.842,-7.08,1
3.205565,0.36,1.057,-0.265,-16.296,-50.598,-7.751,1
3.212351,0.358,1.029,-0.264,-21.728,-49.682,-7.995,1
3.22026,0.353,0.983,-0.254,-30.883,-48.767,-8.178,1
3.22727,0.354,0.961,-0.242,-45.776,-47.302,-6.774,1
3.235033,0.383,0.958,-0.234,-55.847,-45.959,-6.896,1
3.242844,0.36,0.955,-0.212,-58.959,-45.166,-6.164,1
3.25141,0.339,0.973,-0.201,-62.377,-43.701,-5.615,1
3.259544,0.321,0.972,-0.207,-60.546,-43.457,-5.004,1
3.267926,0.323,0.967,-0.196,-53.771,-42.602,-4.76,1
3.274274,0.317,0.936,-0.196,-47.912,-43.212,-4.638,1
3.282426,0.315,0.949,-0.19,-40.283,-42.663,-4.272,1
3.289477,0.32,0.964,-0.197,-31.677,-43.64,-4.394,1
3.298362,0.304,0.982,-0.197,-22.705,-43.762,-4.638,1
3.30582,0.276,1.008,-0.198,-14.099,-44.555,-5.554,1
3.313613,0.25,1.023,-0.199,-5.554,-44.86,-6.286,1
3.320448,0.245,1.036,-0.206,4.15,-45.288,-7.141,1
3.328266,0.249,1.064,-0.196,16.113,-45.776,-7.934,1
3.3356,0.291,1.084,-0.197,28.808,-46.264,-9.277,1
3.343885,0.325,1.101,-0.195,37.536,-46.508,-10.559,1
3.350503,0.348,1.105,-0.194,38.757,-45.898,-12.268,1
3.358708,0.397,1.109,-0.196,31.616,-45.166,-14.038,1
3.366701,0.45,1.115,-0.202,15.136,-43.395,-15.808,1
3.373454,0.469,1.12,-0.209,-14.099,-41.015,-17.517,1
3.381855,0.478,1.139,-0.225,-42.541,-38.757,-18.737,1
3.390288,0.477,1.154,-0.21,-64.88,-37.475,-20.019,1
3.397386,0.491,1.155,-0.216,-77.697,-36.071,-20.874,1
3.404425,0.49,1.153,-0.215,-83.251,-36.56,-22.094,1
3.413044,0.473,1.143,-0.224,-81.054,-36.376,-23.132,1
3.421346,0.444,1.138,-0.224,-69.824,-38.635,-24.23,1
3.428272,0.435,1.129,-0.219,-54.077,-39.672,-25.329,1
3.4368,0.429,1.101,-0.22,-39.794,-40.71,-26.55,1
3.443433,0.438,1.075,-0.232,-30.09,-41.198,-27.832,1
3.451716,0.432,1.048,-0.229,-26.611,-41.625,-29.113,1
3.458353,0.436,1.025,-0.229,-27.954,-40.771,-30.029,1
3.465961,0.44,0.999,-0.225,-35.949,-39.733,-30.883,1
3.474314,0.465,0.984,-0.217,-49.255,-37.841,-31.311,1
3.48348,0.497,0.967,-0.219,-64.331,-36.376,-31.188,1
3.49027,0.517,0.943,-0.224,-80.383,-34.729,-30.151,1
3.499658,0.528,0.943,-0.242,-94.116,-33.264,-28.442,1
3.506374,0.574,0.958,-0.261,-102.233,-32.531,-27.038,1
3.514067,0.575,0.985,-0.295,-103.088,-32.47,-26.306,1
3.521882,0.552,1.008,-0.328,-102.05,-32.653,-25.39,1
3.530419,0.53,1.027,-0.358,-98.022,-32.409,-25.512,1
3.53876,0.478,1.035,-0.372,-95.581,-32.653,-25.329,1
3.545365,0.511,1.048,-0.413,-99.304,-31.982,-25.512,1
3.553269,0.424,1.072,-0.413,-106.323,-32.043,-25.695,1
3.562587,0.512,1.11,-0.437,-106.75,-30.944,-26.672,1
3.569503,0.545,1.152,-0.444,-104.614,-31.982,-27.343,1
3.57743,0.587,1.25,-0.482,-94.177,-30.151,-29.174,1
3.58506,0.624,1.321,-0.523,-79.589,-32.287,-30.883,1
3.593267,0.655,1.405,-0.571,-57.678,-32.714,-32.043,1
3.602512,0.723,1.474,-0.585,-40.405,-36.376,-34.301,1
3.608956,0.767,1.507,-0.608,-31.555,-35.827,-36.804,1
3.616913,0.742,1.535,-0.585,-44.067,-36.499,-39.794,1
3.624607,0.675,1.514,-0.596,-66.528,-34.79,-42.785,1
3.631536,0.598,1.562,-0.548,-93.627,-32.958,-46.874,1
3.639744,0.621,1.539,-0.548,-117.858,-32.165,-50.415,1
3.646881,0.584,1.55,-0.52,-142.089,-30.273,-54.504,1
3.653817,0.543,1.54,-0.519,-164.184,-29.907,-58.532,1
3.662021,0.527,1.54,-0.49,-173.522,-28.808,-62.683,1
3.668675,0.547,1.48,-0.482,-174.133,-30.944,-67.321,1
3.676859,0.488,1.441,-0.425,-164.916,-30.944,-70.556,1
3.684084,0.469,1.411,-0.425,-149.23,-32.714,-74.951,1
3.690959,0.441,1.395,-0.384,-122.375,-34.729,-80.688,1
3.699551,0.5,1.273,-0.398,-99.487,-36.376,-85.815,1
3.705998,0.455,1.157,-0.407,-97.29,-36.315,-89.477,1
3.714025,0.437,1.052,-0.436,-108.642,-35.766,-92.163,1
3.721999,0.427,0.967,-0.438,-124.084,-35.766,-94.238,1
3.730545,0.384,0.879,-0.434,-139.221,-36.376,-96.13,1
3.739344,0.363,0.815,-0.42,-146.545,-37.719,-96.618,1
3.746152,0.344,0.746,-0.436,-147.338,-39.794,-96.679,1
3.754001,0.335,0.67,-0.447,-143.249,-43.151,-96.13,1
3.762573,0.316,0.603,-0.467,-129.333,-46.936,-94.421,1
3.769538,0.308,0.527,-0.469,-116.333,-51.513,-93.017,1
3.778085,0.322,0.458,-0.457,-101.684,-55.114,-91.125,1
3.786309,0.353,0.398,-0.441,-84.289,-58.532,-89.111,1
3.79332,0.359,0.335,-0.418,-62.072,-62.194,-85.937,1
3.801915,0.358,0.276,-0.393,-44.189,-64.758,-82.946,1
3.80998,0.368,0.232,-0.378,-27.587,-66.528,-79.589,1
3.817768,0.376,0.205,-0.364,-13.122,-67.626,-76.11,1
3.824809,0.416,0.174,-0.359,-0.854,-68.481,-72.875,1
3.833219,0.47,0.142,-0.352,10.253,-68.725,-69.091,1
3.840207,0.495,0.111,-0.362,17.028,-68.725,-64.392,1
3.848378,0.499,0.102,-0.355,21.118,-68.298,-60.424,1
3.856652,0.522,0.095,-0.35,22.888,-67.443,-57.434,1
3.86266,0.549,0.096,-0.34,22.949,-66.711,-54.382,1
3.871113,0.566,0.109,-0.317,23.62,-65.795,-51.33,1
3.879331,0.583,0.135,-0.307,26.611,-64.636,-48.034,1
3.887177,0.62,0.178,-0.333,28.869,-63.659,-44.433,1
3.895259,0.67,0.21,-0.354,29.357,-62.744,-42.297,1
3.901913,0.725,0.239,-0.374,24.291,-62.072,-41.32,1
3.911394,0.711,0.257,-0.37,13.549,-60.974,-40.222,1
3.918492,0.723,0.294,-0.344,5.676,-59.692,-38.94,1
3.926391,0.768,0.35,-0.308,0.488,-58.898,-37.902,1
3.93465,0.782,0.397,-0.259,-1.098,-58.654,-36.621,1
3.941171,0.796,0.471,-0.195,0.183,-58.349,-35.705,1
3.949351,0.787,0.548,-0.165,7.385,-58.41,-34.973,1
3.957052,0.72,0.646,-0.152,21.606,-58.959,-34.79,1
3.965105,0.79,0.699,-0.182,34.179,-57.678,-35.217,1
3.97165,0.847,0.755,-0.247,34.912,-55.48,-38.696,1
3.980004,0.864,0.781,-0.318,22.399,-51.94,-42.053,1
3.987959,0.857,0.81,-0.385,-13.977,-46.386,-46.936,1
3.995079,0.738,0.859,-0.427,-65.124,-39.611,-52.307,1
4.00349,0.633,0.934,-0.459,-116.088,-33.447,-58.532,1
4.010934,0.574,0.988,-0.515,-163.269,-27.709,-65.856,1
4.019539,0.559,1.03,-0.547,-186.401,-27.099,-71.899,1
4.026222,0.544,1.063,-0.564,-187.866,-29.541,-77.392,1
4.034296,0.526,1.096,-0.566,-169.921,-34.912,-81.909,1
4.041573,0.465,1.115,-0.602,-143.737,-40.893,-86.547,1
4.050423,0.397,1.1,-0.654,-124.755,-47.912,-91.918,1
4.05868,0.348,1.055,-0.705,-117.919,-54.565,-98.266,1
4.066798,0.32,0.999,-0.74,-121.52,-60.058,-103.576,1
4.073859,0.287,0.918,-0.763,-129.028,-66.772,-109.802,1
4.081031,0.241,0.85,-0.763,-133.483,-72.387,-114.257,1
4.089193,0.206,0.773,-0.768,-135.498,-78.735,-118.408,1
4.097562,0.176,0.693,-0.77,-138.183,-85.021,-121.704,1
4.105869,0.159,0.612,-0.772,-140.808,-91.369,-124.572,1
4.114282,0.115,0.53,-0.791,-143.127,-98.144,-126.892,1
4.121361,0.075,0.466,-0.789,-146.972,-105.712,-128.601,1
4.129249,0.033,0.393,-0.808,-152.221,-112.854,-130.187,1
4.137032,-0.018,0.298,-0.812,-161.193,-120.971,-131.042,1
4.145103,-0.064,0.208,-0.808,-170.288,-128.662,-131.408,1
4.154202,-0.176,0.139,-0.789,-179.199,-135.314,-131.286,1
4.162577,-0.285,0.033,-0.786,-196.105,-143.981,-130.676,1
4.169239,-0.424,-0.037,-0.76,-215.148,-150.817,-128.54,1
4.177949,-0.582,-0.109,-0.753,-238.22,-158.447,-125.183,1
4.185285,-0.636,-0.186,-0.711,-259.704,-167.358,-120.056,1
4.193427,-0.75,-0.187,-0.65,-263.061,-176.147,-115.051,1
4.202945,-0.921,-0.212,-0.62,-249.877,-185.791,-110.778,1
4.21114,-1.113,-0.242,-0.578,-219.177,-198.974,-105.834,1
4.219068,-1.307,-0.357,-0.576,-185.852,-212.036,-100.402,1
4.227737,-1.438,-0.44,-0.576,-162.963,-223.083,-95.458,1
4.236074,-1.733,-0.562,-0.574,-148.437,-235.412,-88.439,1
4.242901,-1.734,-0.655,-0.582,-144.836,-246.643,-80.749,1
4.251036,-1.911,-0.724,-0.592,-136.657,-262.39,-72.265,1
4.258959,-2.219,-0.852,-0.582,-138.671,-272.644,-59.875,1
4.266779,-2.216,-0.946,-0.615,-151.855,-284.79,-45.959,1
4.274853,-2.361,-0.923,-0.55,-160.095,-296.875,-30.761,1
4.282869,-2.658,-0.945,-0.527,-160.583,-311.096,-14.099,1
4.291323,-2.864,-0.902,-0.434,-148.986,-326.477,7.629,1
4.29929,-3.218,-0.965,-0.39,-151.184,-341.491,26.855,1
4.307579,-3.527,-0.994,-0.255,-174.926,-351.745,51.269,1
4.315206,-3.796,-1.033,-0.159,-197.082,-360.351,76.904,1
4.322819,-3.879,-1.187,-0.068,-224.06,-366.271,107.421,1
4.330785,-4.049,-1.234,0.103,-259.704,-370.178,140.686,1
4.339382,-4.387,-1.278,0.28,-287.841,-373.779,183.044,1
4.345612,-4.644,-1.303,0.5,-286.376,-370.361,222.778,1
4.354056,-4.663,-1.352,0.744,-289.184,-367.736,264.221,1
4.36259,-4.986,-1.357,0.932,-264.404,-359.008,305.908,1
4.369102,-5.421,-1.223,1.128,-237.853,-350.707,344.543,1
4.377256,-5.859,-1.302,1.2,-219.238,-344.848,384.216,1
4.383847,-5.955,-1.472,1.52,-238.769,-319.396,430.114,1
4.391875,-6.149,-1.585,1.585,-318.969,-290.832,476.257,1
4.399154,-6.626,-1.489,1.887,-413.879,-243.713,525.695,1
4.407219,-7.244,-1.3,1.955,-488.891,-192.565,575.805,1
4.413827,-7.912,-1.048,2.193,-516.845,-133.3,624.511,1
4.42216,-8.596,-0.857,2.212,-525.268,-68.847,671.813,1
4.43014,-9.373,-0.654,2.207,-540.466,-0.976,715.332,1
4.437026,-10.163,-0.408,2.073,-560.119,72.875,754.455,1
4.445081,-10.925,-0.067,1.901,-565.734,147.827,786.621,1
4.452364,-11.7,0.275,1.563,-558.288,218.322,812.255,1
4.460593,-12.491,0.619,1.401,-534.545,287.597,832.641,1
4.468818,-13.354,0.937,0.994,-510.314,350.036,847.778,1
4.476577,-14.148,1.199,0.797,-479.309,405.578,856.994,1
4.483333,-15.098,1.434,0.533,-442.504,454.284,863.342,1
4.491646,-15.999,1.635,0.367,-424.316,506.896,866.088,1
4.499262,-15.999,1.812,0.118,-434.753,546.325,863.525,1
4.506152,-15.999,1.982,-0.042,-459.899,605.712,849.06,1
4.514575,-15.999,2.096,-0.29,-490.051,652.709,826.721,1
4.521417,-15.999,2.189,-0.299,-546.997,708.557,796.447,1
4.529408,-15.999,2.197,-0.546,-609.252,767.517,759.521,1
4.5375,-15.999,2.267,-0.672,-650.817,822.509,715.881,1
4.5462,-15.999,2.516,-0.69,-641.418,872.924,667.724,1
4.554424,-15.999,2.533,-0.705,-590.515,920.776,608.581,1
4.560992,-15.999,2.413,-0.966,-550.781,952.392,556.579,1
4.56943,-15.999,2.462,-1.237,-509.704,969.421,501.77,1
4.577034,-15.999,2.788,-1.525,-470.031,975.341,431.762,1
4.586617,-15.999,3.109,-2.382,-495.605,965.087,359.374,1
4.595018,-15.999,3.033,-2.453,-526.306,936.34,280.09,1
4.601763,-15.999,2.659,-2.818,-526.123,954.467,197.814,1
4.60856,-15.858,2.416,-3.703,-628.112,923.95,117.065,1
4.617477,-14.756,2.183,-3.754,-756.957,907.592,27.648,1
4.625309,-13.286,1.69,-3.717,-855.102,880.187,-64.331,1
4.632865,-11.671,1.113,-3.199,-903.137,840.759,-151.489,1
4.64108,-10.162,0.505,-2.968,-907.958,798.889,-224.304,1
4.648387,-9.072,0.264,-2.719,-889.526,714.721,-299.133,1
4.656562,-8.056,0.054,-2.393,-805.297,649.841,-349.487,1
4.664537,-7.127,-0.142,-2.275,-699.829,571.167,-387.512,1
4.671234,-6.486,-0.363,-2.067,-594.543,505.31,-412.78,1
4.679831,-5.766,-0.637,-2.031,-520.019,443.115,-427.307,1
4.686478,-5.183,-0.833,-1.955,-480.224,389.221,-433.044,1
4.693917,-4.761,-1.01,-1.944,-464.355,340.087,-433.166,1
4.701493,-4.409,-1.156,-1.884,-463.5,293.212,-429.443,1
4.709489,-4.123,-1.242,-1.811,-461.975,248.84,-422.119,1
4.716932,-3.799,-1.291,-1.606,-437.561,205.261,-412.353,1
4.724901,-3.519,-1.318,-1.441,-394.958,165.771,-400.146,1
4.732559,-3.104,-1.367,-1.254,-348.022,132.202,-385.559,1
4.739171,-2.828,-1.417,-1.096,-308.41,102.416,-369.079,1
4.747207,-2.547,-1.48,-0.972,-290.161,78.308,-350.158,1
4.755221,-2.282,-1.463,-0.899,-284.118,54.748,-332.946,1
4.763923,-2.148,-1.404,-0.746,-276.123,32.165,-317.565,1
4.770789,-2.133,-1.373,-0.624,-259.399,9.826,-299.56,1
4.778801,-2.101,-1.29,-0.537,-231.14,-9.155,-285.339,1
4.787054,-1.964,-1.229,-0.43,-189.208,-25.512,-271.301,1
4.795418,-1.812,-1.206,-0.375,-133.667,-41.748,-255.981,1
4.80376,-1.676,-1.192,-0.323,-91.918,-51.391,-240.661,1
4.812549,-1.622,-1.188,-0.335,-72.631,-58.166,-228.576,1
4.820801,-1.457,-1.181,-0.305,-61.828,-61.218,-214.721,1
4.828154,-1.328,-1.179,-0.322,-62.194,-63.659,-203.613,1
4.837226,-1.187,-1.197,-0.297,-71.289,-63.842,-189.819,1
4.844282,-1.076,-1.216,-0.306,-81.848,-65.307,-178.466,1
4.853201,-0.926,-1.213,-0.258,-83.679,-65.368,-167.053,1
4.860531,-0.812,-1.211,-0.27,-78.186,-65.673,-153.198,1
4.868606,-0.731,-1.204,-0.254,-66.711,-65.246,-141.906,1
4.876984,-0.647,-1.189,-0.272,-54.382,-64.208,-128.479,1
4.885498,-0.545,-1.18,-0.288,-47.058,-62.683,-117.187,1
4.893997,-0.41,-1.147,-0.306,-43.212,-61.157,-105.834,1
4.900928,-0.307,-1.102,-0.319,-41.748,-59.265,-95.031,1
4.909039,-0.301,-1.056,-0.334,-45.349,-56.518,-83.496,1
4.917041,-0.188,-1.039,-0.374,-47.119,-56.762,-73.791,1
4.925294,-0.073,-0.995,-0.362,-39.978,-55.664,-64.147,1
4.933141,0.028,-0.978,-0.387,-30.09,-56.213,-54.138,1
4.940061,0.06,-0.937,-0.369,-22.644,-54.626,-45.532,1
4.949009,0.12,-0.918,-0.4,-21.24,-54.504,-37.902,1
4.955878,0.158,-0.895,-0.374,-23.254,-52.978,-30.578,1
4.963936,0.203,-0.886,-0.397,-26.916,-51.208,-23.681,1
4.97094,0.256,-0.858,-0.396,-32.897,-50.659,-17.15,1
4.979358,0.28,-0.827,-0.408,-37.536,-49.072,-9.582,1
4.987517,0.306,-0.786,-0.398,-37.17,-48.156,-3.417,1
4.994415,0.347,-0.751,-0.398,-32.714,-46.936,2.136,1
5.002839,0.408,-0.723,-0.404,-27.099,-46.386,7.568,1
5.010993,0.46,-0.696,-0.4,-24.658,-45.837,12.695,1
5.018991,0.513,-0.7,-0.391,-20.019,-44.677,17.822,1
5.027252,0.587,-0.687,-0.412,-25.268,-43.64,23.254,1
5.033664,0.586,-0.639,-0.391,-31.005,-41.259,28.137,1
5.041222,0.601,-0.575,-0.384,-33.447,-40.283,31.921,1
5.049684,0.609,-0.526,-0.362,-32.104,-38.146,35.278,1
5.05628,0.603,-0.487,-0.361,-32.531,-36.804,38.635,1
5.064049,0.589,-0.444,-0.348,-36.132,-34.423,41.625,1
5.072817,0.571,-0.414,-0.348,-42.968,-32.226,43.823,1
5.080859,0.56,-0.371,-0.334,-50.964,-29.479,46.02,1
5.087722,0.55,-0.32,-0.331,-56.091,-26.916,47.668,1
5.09621,0.559,-0.283,-0.315,-58.41,-24.536,48.706,1
5.104388,0.57,-0.246,-0.311,-56.64,-22.705,49.072,1
5.110802,0.591,-0.218,-0.297,-50.842,-21.24,49.316,1
5.118915,0.617,-0.187,-0.294,-42.419,-20.568,48.706,1
5.127218,0.638,-0.162,-0.291,-32.714,-18.981,48.339,1
5.134107,0.648,-0.152,-0.295,-27.709,-17.517,47.851,1
5.142365,0.653,-0.17,-0.302,-29.113,-15.563,48.156,1
5.150976,0.657,-0.18,-0.306,-37.719,-12.634,48.156,1
5.157588,0.708,-0.193,-0.312,-50.354,-9.521,48.339,1
5.166221,0.736,-0.201,-0.318,-62.438,-5.737,48.95,1
5.172647,0.766,-0.196,-0.329,-70.8,-3.112,49.255,1
5.180718,0.801,-0.191,-0.327,-73.242,-0.366,49.804,1
5.188915,0.859,-0.18,-0.332,-71.289,1.403,50.476,1
5.195546,0.911,-0.163,-0.34,-65.795,3.112,51.025,1
5.203956,0.937,-0.155,-0.357,-59.753,3.601,51.391,1
5.210379,0.953,-0.145,-0.362,-55.114,4.333,51.391,1
5.218589,0.967,-0.15,-0.378,-51.696,4.577,51.391,1
5.225203,0.983,-0.157,-0.371,-48.889,5.065,51.513,1
5.233227,0.966,-0.146,-0.365,-45.593,5.92,51.94,1
5.240331,0.984,-0.146,-0.357,-43.334,7.263,52.612,1
5.248858,0.997,-0.145,-0.365,-42.541,8.605,53.405,1
5.257343,1.018,-0.14,-0.361,-45.898,11.047,54.382,1
5.26342,1.001,-0.122,-0.364,-49.987,13.732,55.297,1
5.271881,1.026,-0.127,-0.367,-59.814,15.747,55.48,1
5.278186,1.004,-0.122,-0.369,-69.519,19.165,55.908,1
5.285636,0.985,-0.108,-0.377,-75.805,20.812,55.48,1
5.293946,1.003,-0.091,-0.38,-77.88,23.132,55.541,1
5.302102,1.011,-0.076,-0.393,-72.937,24.23,55.419,1
5.309557,1.006,-0.067,-0.4,-66.894,25.146,55.664,1
5.316252,0.987,-0.065,-0.416,-57.922,25.39,55.358,1
5.32456,0.945,-0.058,-0.423,-52.917,25.512,54.992,1
5.332781,0.913,-0.057,-0.425,-48.339,26.0,54.748,1
5.34071,0.886,-0.06,-0.43,-46.203,26.489,54.138,1
5.347326,0.855,-0.062,-0.44,-44.494,27.343,54.26,1
5.356123,0.821,-0.06,-0.435,-42.602,28.076,54.199,1
5.363253,0.798,-0.059,-0.437,-40.466,28.93,54.443,1
5.369525,0.79,-0.05,-0.441,-37.902,29.418,54.931,1
5.378052,0.787,-0.04,-0.438,-34.484,29.541,55.175,1
5.384644,0.785,-0.031,-0.435,-29.663,29.785,55.48,1
5.3924,0.782,-0.018,-0.43,-25.146,29.602,55.786,1
5.399923,0.777,-0.013,-0.43,-21.789,29.785,55.664,1
5.407866,0.771,-0.01,-0.418,-20.812,30.517,55.786,1
5.415847,0.752,-0.012,-0.409,-21.667,31.921,55.847,1
5.42266,0.729,-0.015,-0.407,-23.864,33.63,56.457,1
5.430506,0.696,-0.006,-0.419,-27.648,34.667,56.762,1
5.437233,0.659,0.001,-0.415,-30.151,35.583,56.823,1
5.446213,0.634,0.005,-0.43,-30.883,35.949,56.64,1
5.45249,0.628,0.016,-0.429,-27.221,36.132,57.006,1
5.460473,0.631,0.015,-0.451,-18.188,35.705,57.189,1
5.468576,0.639,0.013,-0.45,-5.737,34.301,57.983,1
5.474937,0.673,0.012,-0.455,8.666,33.569,59.204,1
5.482972,0.732,0.011,-0.448,23.132,32.714,60.668,1
5.489622,0.805,-0.001,-0.458,31.433,31.433,62.133,1
5.49799,0.821,-0.009,-0.448,34.362,30.944,63.415,1
5.504843,0.824,-0.02,-0.442,31.188,31.005,65.185,1
5.51176,0.79,-0.021,-0.433,25.329,31.494,66.65,1
5.519361,0.749,-0.028,-0.424,14.831,32.775,68.298,1
5.527101,0.711,-0.034,-0.432,0.732,34.24,69.641,1
5.534452,0.678,-0.041,-0.433,-15.624,35.522,70.556,1
5.542055,0.638,-0.041,-0.427,-31.311,37.658,71.777,1
5.549929,0.64,-0.038,-0.442,-42.114,40.039,73.547,1
5.558102,0.667,-0.035,-0.465,-43.884,41.809,75.866,1
5.56459,0.685,-0.027,-0.52,-44.738,42.541,77.209,1
5.572314,0.647,-0.012,-0.537,-41.748,42.602,78.613,1
5.580527,0.607,-0.005,-0.544,-36.01,43.029,80.2,1
5.587242,0.579,0.006,-0.565,-27.526,42.541,81.848,1
5.5961,0.541,-0.004,-0.584,-17.272,41.198,83.068,1
5.602497,0.491,-0.014,-0.6,-9.704,39.55,83.557,1
5.610701,0.446,-0.029,-0.582,-2.99,38.269,84.533,1
5.618459,0.39,-0.042,-0.57,3.967,36.499,85.449,1
5.626668,0.334,-0.052,-0.542,14.465,35.095,86.975,1
5.634377,0.312,-0.102,-0.518,19.836,33.508,88.867,1
5.640751,0.312,-0.123,-0.508,25.695,33.569,91.613,1
5.649282,0.309,-0.146,-0.504,28.869,31.738,94.36,1
5.65549,0.272,-0.146,-0.469,34.057,31.433,97.9,1
5.66352,0.251,-0.134,-0.49,45.715,30.639,101.745,1
5.671194,0.232,-0.145,-0.485,59.875,30.639,105.102,1
5.677894,0.201,-0.161,-0.498,70.19,29.968,108.52,1
5.686167,0.145,-0.177,-0.481,78.308,29.663,112.487,1
5.692655,0.117,-0.187,-0.477,84.289,28.686,116.638,1
5.699839,0.1,-0.193,-0.454,90.637,27.832,120.727,1
5.707771,0.083,-0.181,-0.426,101.806,27.526,126.281,1
5.714437,0.112,-0.172,-0.395,116.76,25.878,132.446,1
5.721075,0.122,-0.158,-0.391,129.943,25.024,138.122,1
5.729331,0.145,-0.155,-0.391,140.869,23.071,144.775,1
5.73614,0.22,-0.125,-0.389,144.104,22.583,152.16,1
5.744825,0.251,-0.091,-0.434,137.817,22.155,159.118,1
5.752938,0.223,-0.031,-0.457,124.389,22.155,165.466,1
5.759532,0.208,0.014,-0.506,104.125,22.644,170.532,1
5.766158,0.134,0.04,-0.553,70.678,23.254,175.353,1
5.774383,0.048,0.085,-0.559,40.1,25.268,179.26,1
5.781934,0.008,0.123,-0.566,0.427,27.526,184.936,1
5.788696,-0.06,0.197,-0.541,-17.944,29.357,188.903,1
5.797245,-0.098,0.298,-0.507,-18.798,31.372,193.42,1
5.804678,-0.098,0.408,-0.498,1.525,31.433,197.326,1
5.811561,-0.075,0.516,-0.522,34.24,29.785,200.012,1
5.819815,-0.07,0.611,-0.561,69.824,25.756,202.331,1
5.82714,-0.112,0.659,-0.601,86.181,22.094,203.308,1
5.83539,-0.193,0.736,-0.632,91.979,19.653,204.406,1
5.841802,-0.239,0.774,-0.675,84.594,17.028,204.772,1
5.848674,-0.273,0.81,-0.686,67.138,16.113,204.895,1
5.857628,-0.262,0.881,-0.71,46.081,16.418,204.162,1
5.863732,-0.254,0.953,-0.726,25.634,15.869,202.758,1
5.87176,-0.213,1.014,-0.74,2.258,17.7,201.721,1
5.880171,-0.18,1.108,-0.799,-17.211,19.165,199.768,1
5.886549,-0.172,1.243,-0.849,-38.513,20.629,195.861,1
5.894864,-0.22,1.335,-0.885,-45.837,19.531,192.382,1
5.903414,-0.222,1.453,-0.914,-34.057,18.249,187.744,1
5.91124,-0.273,1.525,-0.911,-4.211,12.756,183.044,1
5.917548,-0.285,1.54,-0.902,29.724,7.934,178.894,1
5.925454,-0.245,1.556,-0.941,51.879,2.929,174.438,1
5.93236,-0.245,1.581,-0.976,61.279,-1.708,169.677,1
5.940602,-0.27,1.562,-1.018,58.898,-6.591,164.978,1
5.948341,-0.258,1.659,-1.056,50.72,-7.568,158.813,1
5.956821,-0.224,1.744,-1.101,45.349,-13.671,151.611,1
5.963182,-0.222,1.787,-1.115,42.846,-16.723,144.836,1
5.971387,-0.176,1.805,-1.12,36.254,-21.301,137.207,1
5.980104,-0.141,1.817,-1.071,31.921,-25.451,128.662,1
5.986272,-0.083,1.81,-1.02,31.799,-28.442,121.215,1
5.994193,-0.041,1.804,-0.949,33.691,-31.311,114.44,1
6.001704,-0.002,1.817,-0.885,36.315,-32.043,109.13,1
6.009628,0.029,1.83,-0.83,37.963,-33.752,101.074,1
6.016133,0.037,1.829,-0.779,38.269,-33.325,95.458,1
6.02437,0.06,1.812,-0.724,36.315,-32.348,89.05,1
6.031925,0.076,1.791,-0.675,32.104,-30.822,82.641,1
6.038779,0.089,1.768,-0.657,25.146,-28.625,77.453,1
6.046517,0.086,1.732,-0.657,14.404,-26.245,72.143,1
6.054488,0.078,1.696,-0.687,1.098,-23.986,67.81,1
6.061535,0.083,1.652,-0.725,-10.986,-23.071,63.049,1
6.069188,0.233,1.589,-0.747,-15.319,-24.047,58.532,1
6.0767,0.051,1.502,-0.763,-19.714,-22.888,54.687,1
6.085699,-0.033,1.449,-0.826,-32.653,-23.803,51.33,1
6.092157,0.024,1.364,-0.852,-44.25,-24.291,47.79,1
6.099839,-0.039,1.323,-0.856,-58.959,-24.902,44.921,1
6.10867,-0.126,1.28,-0.89,-74.401,-26.062,42.114,1
6.115496,-0.134,1.247,-0.897,-83.068,-28.259,40.161,1
6.123474,-0.164,1.242,-0.876,-79.772,-30.029,37.841,1
6.132072,-0.243,1.083,-0.837,-79.406,-33.996,39.062,1
6.138924,-0.14,1.169,-0.907,-66.345,-35.949,34.484,1
6.145934,-0.191,1.24,-0.774,-36.743,-38.818,32.104,1
6.153871,-0.186,1.255,-0.828,-7.202,-41.442,29.907,1
6.160864,-0.131,1.239,-0.842,11.108,-45.532,26.855,1
6.168711,-0.023,1.188,-0.83,17.333,-46.508,24.353,1
6.176644,0.017,1.137,-0.85,10.253,-46.997,21.545,1
6.18381,-0.005,1.114,-0.841,-0.732,-46.386,19.104,1
6.192068,-0.003,1.105,-0.851,-7.873,-46.63,16.845,1
6.199805,-0.001,1.096,-0.85,-7.446,-47.912,15.136,1
6.206818,0.024,1.073,-0.863,-1.342,-49.804,13.549,1
6.214849,0.022,1.047,-0.887,2.624,-51.208,11.962,1
6.221613,0.009,1.051,-0.947,-2.502,-52.062,10.925,1
6.230082,-0.004,1.094,-1.008,-12.512,-53.955,9.033,1
6.238012,-0.007,1.143,-1.031,-16.662,-55.969,6.713,1
6.24614,-0.008,1.187,-1.053,-15.624,-58.837,3.967,1
6.252838,-0.003,1.212,-1.047,-12.268,-61.645,1.403,1
6.260871,0.0,1.211,-1.032,-7.995,-64.147,-1.708,1
6.267949,0.01,1.215,-1.007,-4.089,-66.589,-4.821,1
6.275832,0.038,1.218,-0.973,-3.356,-67.687,-7.141,1
6.283458,0.081,1.219,-0.937,-5.004,-68.664,-9.338,1
6.291848,0.095,1.229,-0.914,-9.643,-69.091,-11.291,1
6.29929,0.112,1.245,-0.896,-14.709,-68.969,-13.244,1
6.306483,0.115,1.244,-0.909,-23.193,-69.03,-14.831,1
6.314122,0.09,1.219,-0.907,-38.33,-67.504,-15.991,1
6.322839,0.167,1.27,-0.947,-50.292,-67.382,-18.859,1
6.330605,0.171,1.302,-0.919,-47.668,-69.03,-22.094,1
6.338371,0.131,1.306,-0.939,-40.832,-68.176,-24.719,1
6.345279,0.108,1.298,-0.965,-39.062,-70.068,-27.709,1
6.354012,0.129,1.29,-0.949,-37.17,-69.152,-30.822,1
6.360938,0.142,1.293,-0.965,-37.78,-69.396,-33.813,1
6.369245,0.11,1.307,-0.978,-39.489,-67.871,-36.376,1
6.376469,0.093,1.322,-1.029,-45.593,-66.467,-38.879,1
6.38428,0.074,1.338,-1.092,-60.058,-64.88,-41.076,1
6.392686,0.063,1.354,-1.145,-80.139,-64.025,-42.602,1
6.39977,0.065,1.365,-1.187,-102.6,-62.377,-44.311,1
6.407627,0.046,1.38,-1.226,-116.882,-62.316,-45.654,1
6.415864,0.052,1.384,-1.224,-122.985,-63.11,-47.485,1
6.42415,0.055,1.367,-1.223,-121.52,-64.27,-49.316,1
6.432144,0.063,1.327,-1.214,-117.431,-65.795,-50.537,1
6.439829,0.06,1.278,-1.205,-112.365,-67.749,-51.94,1
6.446367,0.043,1.228,-1.189,-106.079,-69.885,-54.016,1
6.454483,0.009,1.18,-1.184,-101.745,-71.716,-55.419,1
6.463186,-0.001,1.139,-1.181,-97.351,-74.096,-57.006,1
6.469933,-0.003,1.096,-1.189,-92.773,-75.988,-57.922,1
6.478166,-0.034,1.065,-1.205,-87.28,-79.772,-58.532,1
6.486298,-0.068,1.039,-1.199,-74.951,-84.289,-58.898,1
6.494937,-0.08,1.007,-1.181,-60.852,-89.172,-59.875,1
6.501212,-0.067,0.956,-1.162,-46.081,-93.933,-59.631,1
6.509349,-0.057,0.901,-1.155,-33.874,-98.51,-59.204,1
6.51761,-0.081,0.862,-1.133,-24.047,-102.539,-58.837,1
6.526075,-0.095,0.823,-1.096,-17.517,-107.971,-58.349,1
6.53368,-0.089,0.776,-1.073,-23.315,-109.924,-57.678,1
6.541834,0.034,0.763,-1.085,-41.076,-111.999,-57.189,1
6.550665,-0.031,0.787,-1.062,-64.392,-112.609,-56.579,1
6.557248,-0.02,0.813,-1.024,-77.148,-114.624,-56.823,1
6.565902,0.051,0.823,-0.98,-83.129,-115.539,-57.25,1
6.572322,0.096,0.824,-0.98,-85.083,-115.173,-57.922,1
6.580419,0.053,0.845,-0.985,-78.918,-118.286,-59.143,1
6.588927,0.169,0.807,-0.957,-64.086,-122.924,-60.241,1
6.595583,0.176,0.773,-0.925,-54.504,-125.671,-60.18,1
6.603771,0.196,0.746,-0.935,-55.053,-128.417,-60.18,1
6.610452,0.041,0.748,-0.89,-59.814,-129.882,-60.18,1
6.618688,0.073,0.728,-0.877,-73.059,-130.126,-60.546,1
6.626847,0.149,0.733,-0.835,-95.764,-130.126,-60.668,1
6.633396,0.133,0.794,-0.826,-113.769,-128.662,-60.058,1
6.641537,0.085,0.857,-0.79,-120.422,-130.493,-59.875,1
6.649312,0.029,0.907,-0.783,-114.196,-131.286,-59.875,1
6.657958,0.014,0.931,-0.786,-107.727,-134.399,-60.607,1
6.665779,-0.054,0.931,-0.733,-104.736,-133.3,-62.011,1
6.673609,-0.069,0.921,-0.78,-112.67,-133.117,-64.27,1
6.680083,-0.073,0.912,-0.767,-131.896,-130.92,-67.199,1
6.687894,-0.06,0.903,-0.787,-154.174,-129.699,-70.068,1
6.696247,-0.067,0.891,-0.76,-178.466,-128.234,-72.326,1
6.704333,-0.072,0.869,-0.731,-198.73,-128.295,-73.913,1
6.712705,-0.08,0.84,-0.668,-209.777,-129.394,-74.584,1
6.720943,-0.083,0.782,-0.588,-210.937,-131.347,-74.401,1
6.727599,-0.091,0.73,-0.499,-202.88,-134.826,-72.875,1
6.735654,-0.09,0.681,-0.431,-189.697,-137.39,-70.739,1
6.74293,-0.174,0.64,-0.366,-173.522,-140.747,-68.786,1
6.752306,-0.151,0.595,-0.3,-152.587,-143.92,-66.223,1
6.758748,-0.12,0.54,-0.248,-129.028,-146.789,-63.72,1
6.768249,-0.098,0.497,-0.205,-112.915,-148.803,-61.462,1
6.775407,-0.059,0.46,-0.168,-100.402,-149.414,-59.814,1
6.782342,0.014,0.42,-0.131,-91.796,-149.597,-58.593,1
6.79116,0.076,0.391,-0.101,-86.059,-148.559,-57.739,1
6.799208,0.16,0.368,-0.084,-83.312,-146.24,-57.25,1
6.807362,0.232,0.361,-0.085,-83.679,-142.7,-57.434,1
6.813628,0.285,0.357,-0.108,-89.355,-140.075,-57.8,1
6.821374,0.33,0.344,-0.117,-101.684,-136.474,-58.654,1
6.829387,0.337,0.332,-0.14,-120.422,-132.507,-59.204,1
6.837636,0.277,0.336,-0.148,-143.676,-128.906,-58.898,1
6.84616,0.148,0.375,-0.151,-171.203,-126.037,-57.739,1
6.853241,0.035,0.405,-0.129,-185.119,-125.915,-56.579,1
6.860728,0.027,0.435,-0.123,-185.791,-126.953,-56.579,1
6.868604,-0.077,0.435,-0.138,-181.03,-129.455,-56.823,1
6.876867,-0.132,0.413,-0.182,-179.626,-130.859,-57.189,1
6.885439,-0.168,0.37,-0.244,-186.767,-133.789,-57.922,1
6.894015,-0.23,0.33,-0.256,-192.199,-136.291,-57.739,1
6.901494,-0.269,0.297,-0.298,-192.138,-140.502,-57.495,1
6.907941,-0.292,0.254,-0.312,-185.424,-145.446,-56.396,1
6.916305,-0.315,0.22,-0.323,-173.156,-150.634,-55.725,1
6.924475,-0.374,0.18,-0.338,-160.278,-156.372,-54.687,1
6.93147,-0.477,0.162,-0.312,-142.944,-162.963,-53.894,1
6.939627,-0.657,0.12,-0.318,-124.755,-168.945,-53.833,1
6.947643,-0.853,0.057,-0.327,-111.328,-175.231,-53.283,1
6.955553,-0.997,-0.01,-0.373,-108.093,-181.335,-52.185,1
6.963502,-1.142,-0.089,-0.402,-114.929,-187.622,-51.513,1
6.971424,-1.284,-0.168,-0.433,-122.985,-193.481,-49.804,1
6.977782,-1.332,-0.145,-0.428,-122.314,-201.477,-49.316,1
6.986376,-1.485,-0.172,-0.442,-103.332,-211.73,-49.011,1
6.994567,-1.685,-0.305,-0.438,-83.74,-223.022,-47.485,1
7.002924,-1.751,-0.536,-0.493,-77.88,-231.384,-42.785,1
7.010751,-1.682,-0.767,-0.516,-125.366,-238.403,-31.127,1
7.018581,-1.589,-0.886,-0.555,-200.927,-240.844,-16.784,1
7.027092,-1.912,-0.86,-0.514,-253.478,-248.596,-2.014,1
7.03496,-2.208,-0.814,-0.451,-267.395,-257.812,18.493,1
7.043181,-2.336,-0.812,-0.4,-248.962,-270.996,35.949,1
7.051184,-2.537,-0.858,-0.333,-223.693,-279.357,54.321,1
7.058926,-2.646,-0.971,-0.303,-217.956,-289.855,74.218,1
7.067173,-2.759,-1.021,-0.161,-233.215,-290.893,101.074,1
7.073655,-2.995,-1.065,-0.122,-249.145,-297.241,125.183,1
7.081575,-3.172,-1.061,0.026,-259.033,-294.799,150.939,1
7.089547,-3.469,-1.099,0.081,-277.526,-296.02,178.771,1
7.096142,-3.645,-1.14,0.244,-298.522,-288.696,210.266,1
7.103553,-3.855,-1.217,0.306,-332.885,-281.738,244.995,1
7.111792,-4.067,-1.236,0.488,-370.178,-266.296,283.081,1
7.12039,-4.346,-1.147,0.605,-393.432,-251.586,322.387,1
7.128195,-4.774,-1.008,0.87,-390.197,-234.374,361.511,1
7.135204,-5.104,-0.939,1.024,-374.206,-214.416,400.451,1
7.143105,-5.502,-0.85,1.235,-356.994,-186.95,444.641,1
7.151411,-5.792,-0.847,1.383,-354.37,-159.301,483.032,1
7.159361,-6.083,-0.853,1.6,-371.582,-121.398,523.193,1
7.167116,-6.443,-0.829,1.711,-410.217,-76.171,564.453,1
7.174951,-6.937,-0.744,1.854,-456.848,-19.775,605.59,1
7.181618,-7.5,-0.59,1.918,-493.164,42.48,644.165,1
7.189676,-8.383,-0.314,1.976,-505.859,110.29,677.856,1
7.197626,-9.092,-0.086,1.903,-494.323,177.124,706.726,1
7.204309,-10.023,0.186,1.799,-468.078,241.943,731.14,1
7.212674,-10.979,0.458,1.59,-446.411,304.748,751.037,1
7.21921,-11.95,0.75,1.388,-437.011,365.844,767.089,1
7.227482,-12.934,1.093,1.144,-426.94,425.781,778.259,1
7.235777,-13.932,1.463,0.89,-404.479,480.224,784.179,1
7.242352,-14.913,1.811,0.638,-365.234,530.395,785.4,1
7.249708,-15.852,2.084,0.419,-325.927,572.753,783.264,1
7.25797,-15.996,2.296,0.261,-275.329,610.778,779.846,1
7.264285,-15.999,2.464,0.18,-234.008,639.221,777.648,1
7.27326,-15.999,2.559,0.035,-217.102,670.227,776.245,1
7.279608,-15.999,2.585,-0.097,-221.13,694.457,774.78,1
7.287348,-15.999,2.601,-0.219,-227.172,719.909,771.301,1
7.2953,-15.999,2.596,-0.365,-272.399,744.018,757.995,1
7.302446,-15.999,2.603,-0.597,-362.121,777.16,730.285,1
7.31031,-15.999,2.675,-0.759,-460.144,812.805,689.086,1
7.318125,-15.999,2.726,-0.808,-527.221,855.712,638.671,1
7.32604,-15.999,2.669,-0.933,-549.316,895.935,586.73,1
7.333733,-15.999,2.576,-1.077,-550.354,932.495,532.836,1
7.340392,-15.999,2.516,-1.453,-577.453,958.007,470.52,1
7.348408,-15.999,2.614,-1.911,-638.0,974.487,391.845,1
7.355884,-15.999,2.436,-2.347,-719.238,972.595,303.771,1
7.363653,-15.999,2.133,-2.436,-803.771,983.093,211.425,1
7.370196,-15.999,1.763,-2.909,-896.057,975.646,109.619,1
7.378223,-15.667,1.433,-3.041,-962.585,956.665,19.348,1
7.38662,-14.394,1.232,-2.893,-1014.648,921.997,-88.562,1
7.394232,-12.666,1.03,-2.525,-987.976,861.267,-203.857,1
7.401063,-11.577,0.828,-2.118,-893.31,795.104,-284.24,1
7.408716,-10.434,0.616,-1.813,-767.456,729.064,-344.604,1
7.417469,-9.277,0.335,-1.614,-643.188,663.146,-386.352,1
7.425337,-8.452,0.136,-1.517,-542.541,604.37,-415.649,1
7.43321,-7.995,-0.045,-1.507,-478.454,551.147,-434.936,1
7.439984,-7.634,-0.209,-1.549,-448.425,503.112,-447.998,1
7.448083,-7.313,-0.294,-1.6,-444.824,447.814,-458.679,1
7.456346,-6.938,-0.368,-1.583,-438.415,408.63,-464.965,1
7.46418,-6.37,-0.488,-1.583,-421.569,351.745,-470.214,1
7.471954,-5.838,-0.624,-1.492,-403.076,306.335,-470.153,1
7.480823,-5.201,-0.731,-1.384,-374.694,262.39,-465.637,1
7.487284,-4.804,-0.817,-1.271,-327.575,215.148,-454.223,1
7.495475,-4.438,-0.842,-1.186,-267.639,178.771,-442.382,1
7.50385,-4.118,-0.856,-1.109,-203.674,146.606,-430.358,1
7.511839,-3.825,-0.942,-1.072,-153.442,115.112,-414.672,1
7.518557,-3.574,-0.966,-1.019,-132.568,93.566,-401.611,1
7.527378,-3.337,-0.991,-0.968,-118.835,75.134,-388.61,1
7.535128,-3.099,-1.034,-0.905,-102.844,58.471,-375.183,1
7.543417,-2.781,-1.019,-0.808,-59.57,41.259,-360.9,1
7.551406,-2.657,-1.157,-0.748,-30.822,31.433,-347.839,1
7.55995,-2.39,-1.372,-0.749,-38.635,25.207,-332.824,1
7.566269,-2.17,-1.521,-0.686,-72.021,22.399,-317.138,1
7.57454,-1.943,-1.559,-0.691,-117.675,19.409,-298.095,1
7.583363,-1.757,-1.513,-0.618,-132.324,13.854,-281.921,1
7.591156,-1.6,-1.496,-0.593,-120.91,7.019,-265.686,1
7.599146,-1.413,-1.495,-0.545,-91.491,-1.708,-246.948,1
7.607036,-1.287,-1.514,-0.534,-71.044,-7.446,-230.651,1
7.61394,-1.143,-1.52,-0.505,-59.692,-11.901,-215.026,1
7.621705,-1.066,-1.524,-0.479,-51.33,-14.953,-198.547,1
7.63063,-0.897,-1.514,-0.447,-26.428,-19.287,-183.776,1
7.638096,-0.77,-1.547,-0.441,-14.282,-21.606,-166.809,1
7.646327,-0.654,-1.421,-0.441,-7.568,-22.644,-152.832,1
7.653929,-0.573,-1.439,-0.453,-11.901,-21.484,-138.488,1
7.662674,-0.489,-1.412,-0.428,-27.709,-19.531,-125.244,1
7.669246,-0.431,-1.358,-0.422,-29.296,-19.775,-113.647,1
7.678528,-0.362,-1.323,-0.398,-34.301,-19.409,-101.989,1
7.685154,-0.247,-1.274,-0.411,-37.109,-18.798,-91.186,1
7.693478,-0.205,-1.205,-0.375,-38.146,-19.531,-79.589,1
7.701523,-0.155,-1.095,-0.359,-33.264,-19.287,-70.556,1
7.709317,-0.13,-1.082,-0.354,-28.503,-20.629,-61.889,1
7.71678,-0.038,-1.013,-0.301,-14.77,-21.85,-53.405,1
7.724819,0.002,-1.013,-0.369,3.723,-22.033,-45.959,1
7.731719,0.073,-1.052,-0.324,9.643,-20.629,-38.33,1
7.739883,0.155,-1.102,-0.353,5.676,-18.676,-30.7,1
7.747659,0.19,-1.025,-0.34,0.732,-16.967,-23.498,1
7.754464,0.235,-1.04,-0.34,-4.394,-13.916,-15.869,1
7.763239,0.264,-0.954,-0.309,-4.211,-13.183,-8.3,1
7.769843,0.283,-0.892,-0.313,5.004,-10.742,-0.122,1
7.777008,0.309,-0.86,-0.354,4.211,-9.765,4.821,1
7.784604,0.338,-0.803,-0.349,-2.624,-5.859,10.253,1
7.792924,0.35,-0.74,-0.383,-14.343,-3.54,15.38,1
7.800626,0.326,-0.628,-0.364,-24.475,-0.793,19.531,1
7.808498,0.275,-0.535,-0.396,-27.954,2.685,22.399,1
7.816363,0.379,-0.526,-0.416,-36.743,4.272,25.939,1
7.822814,0.385,-0.505,-0.423,-52.307,8.178,29.357,1
7.83056,0.418,-0.489,-0.468,-71.105,11.535,32.897,1
7.838837,0.425,-0.462,-0.457,-88.439,15.319,35.888,1
7.84705,0.43,-0.427,-0.471,-99.426,18.249,39.306,1
7.85392,0.438,-0.403,-0.465,-100.769,20.629,42.175,1
7.861933,0.458,-0.375,-0.452,-98.083,21.972,45.104,1
7.868784,0.461,-0.346,-0.445,-90.209,22.583,47.912,1
7.876528,0.454,-0.35,-0.441,-75.744,23.803,50.109,1
7.88462,0.489,-0.356,-0.463,-65.063,23.986,51.94,1
7.891458,0.5,-0.362,-0.465,-58.837,25.573,53.771,1
7.900248,0.522,-0.355,-0.494,-57.739,27.465,56.213,1
7.906586,0.544,-0.353,-0.507,-60.119,28.869,58.593,1
7.915166,0.562,-0.351,-0.538,-66.528,31.677,60.607,1
7.921677,0.573,-0.352,-0.558,-74.768,33.386,62.683,1
7.929493,0.582,-0.351,-0.577,-81.665,35.827,64.697,1
7.937431,0.553,-0.347,-0.592,-87.097,37.536,67.077,1
7.945388,0.551,-0.372,-0.607,-92.956,39.855,70.007,1
7.952159,0.586,-0.398,-0.62,-100.341,41.687,73.547,1
7.960462,0.607,-0.403,-0.621,-107.482,44.189,76.843,1
7.967079,0.587,-0.395,-0.64,-113.098,44.677,79.772,1
7.97497,0.614,-0.378,-0.613,-109.924,46.691,82.885,1
7.982841,0.624,-0.361,-0.658,-99.792,45.593,85.021,1
7.991895,0.615,-0.348,-0.656,-82.58,45.654,87.524,1
7.998147,0.614,-0.354,-0.694,-65.734,43.64,89.66,1
8.005272,0.609,-0.371,-0.706,-51.208,43.212,92.468,1
8.01253,0.608,-0.369,-0.742,-39.184,42.358,94.97,1
8.020146,0.611,-0.37,-0.755,-29.357,41.687,98.327,1
8.02835,0.627,-0.376,-0.795,-23.986,40.893,101.562,1
8.036036,0.631,-0.357,-0.812,-21.24,40.039,104.37,1
8.042758,0.657,-0.345,-0.839,-19.042,39.428,108.276,1
8.050797,0.675,-0.332,-0.855,-19.042,38.818,110.473,1
8.058562,0.683,-0.32,-0.87,-22.521,39.062,113.952,1
8.066433,0.678,-0.302,-0.879,-29.907,39.123,116.455,1
8.072791,0.687,-0.278,-0.896,-38.879,39.245,119.262,1
8.080741,0.673,-0.254,-0.933,-49.316,38.33,121.398,1
8.087718,0.687,-0.224,-0.959,-55.908,38.024,123.596,1
8.096168,0.684,-0.209,-1.0,-62.377,36.682,125.793,1
8.104593,0.704,-0.203,-1.04,-66.711,35.461,127.38,1
8.111041,0.696,-0.199,-1.05,-68.298,33.752,129.089,1
8.119497,0.691,-0.2,-1.069,-68.786,32.104,130.554,1
8.127476,0.644,-0.19,-1.063,-64.88,29.968,131.835,1
8.133412,0.61,-0.179,-1.062,-55.786,28.991,133.117,1
8.141774,0.604,-0.171,-1.054,-39.978,27.038,134.582,1
8.149605,0.616,-0.144,-1.105,-27.526,26.855,136.718,1
8.15606,0.672,-0.093,-1.172,-24.169,24.963,137.939,1
8.16402,0.646,-0.029,-1.196,-27.709,24.78,138.366,1
8.170878,0.613,0.026,-1.229,-38.513,24.414,138.244,1
8.179024,0.562,0.08,-1.23,-56.03,24.78,137.512,1
8.186151,0.525,0.154,-1.204,-73.242,25.329,136.535,1
8.194376,0.507,0.214,-1.173,-83.374,25.451,135.009,1
8.202383,0.504,0.249,-1.138,-87.951,25.451,133.178,1
8.209111,0.512,0.277,-1.079,-86.853,24.719,131.652,1
8.215709,0.5,0.303,-1.04,-80.932,23.742,130.065,1
8.223486,0.488,0.346,-0.994,-73.608,22.644,128.784,1
8.230982,0.498,0.362,-0.978,-64.636,22.033,127.197,1
8.23784,0.491,0.392,-0.962,-56.823,19.836,124.999,1
8.24622,0.44,0.415,-0.914,-49.682,18.127,123.107,1
8.252832,0.406,0.43,-0.89,-42.541,15.869,120.788,1
8.259929,0.372,0.44,-0.859,-35.339,13.977,119.079,1
8.267726,0.375,0.442,-0.852,-26.916,10.986,117.004,1
8.276117,0.332,0.431,-0.812,-17.578,7.812,114.624,1
8.283746,0.302,0.409,-0.777,-7.873,5.126,112.609,1
8.290353,0.297,0.381,-0.741,2.258,1.892,110.656,1
8.296946,0.281,0.348,-0.712,12.817,-0.915,109.008,1
8.304328,0.314,0.314,-0.69,23.071,-2.441,107.421,1
8.311621,0.336,0.286,-0.688,29.479,-4.272,106.201,1
8.319244,0.329,0.276,-0.672,35.095,-5.371,105.102,1
8.326885,0.342,0.26,-0.674,36.743,-5.92,104.309,1
8.334511,0.355,0.249,-0.663,34.057,-5.981,103.576,1
8.341615,0.367,0.238,-0.656,27.832,-5.249,103.149,1
8.348999,0.367,0.237,-0.657,18.066,-4.333,102.722,1
8.357251,0.358,0.237,-0.651,5.615,-3.051,102.233,1
8.363907,0.355,0.239,-0.645,-4.089,-1.525,102.05,1
8.371608,0.364,0.245,-0.641,-13.61,0.244,101.745,1
8.378692,0.362,0.258,-0.634,-18.981,2.38,101.379,1
8.386644,0.362,0.271,-0.64,-19.287,4.211,101.074,1
8.393095,0.352,0.293,-0.655,-14.404,5.432,100.83,1
8.401941,0.373,0.319,-0.662,-5.92,6.713,100.646,1
8.408382,0.394,0.345,-0.671,3.845,7.629,100.341,1
8.41569,0.417,0.363,-0.678,13.671,7.812,99.914,1
8.423559,0.436,0.373,-0.687,21.362,8.361,99.792,1
8.431263,0.457,0.381,-0.687,25.634,9.094,99.365,1
8.437741,0.47,0.396,-0.692,26.733,10.131,99.304,1
8.446159,0.479,0.421,-0.691,25.451,11.413,98.51,1
8.452606,0.463,0.449,-0.684,21.667,13.061,97.839,1
8.459406,0.449,0.476,-0.684,18.798,14.282,97.167,1
8.466502,0.457,0.512,-0.685,15.93,15.258,96.069,1
8.474716,0.468,0.539,-0.682,15.441,16.052,95.153,1
8.480741,0.477,0.561,-0.675,18.676,16.418,93.627,1
8.487694,0.484,0.583,-0.671,25.39,16.479,92.285,1
8.496233,0.519,0.565,-0.673,31.311,16.662,91.43,1
8.504253,0.499,0.589,-0.674,38.452,16.296,90.515,1
8.510769,0.545,0.624,-0.694,44.738,16.418,89.782,1
8.519006,0.612,0.689,-0.7,51.94,15.624,89.111,1
8.525386,0.605,0.699,-0.725,56.335,14.953,88.195,1
8.532935,0.564,0.728,-0.716,60.302,13.732,87.585,1
8.540234,0.558,0.748,-0.69,62.377,13.244,86.12,1
8.548203,0.546,0.729,-0.687,55.847,12.512,86.242,1
8.556107,0.548,0.733,-0.668,51.94,12.878,84.533,1
8.562727,0.521,0.753,-0.637,50.903,13.244,82.946,1
8.569536,0.517,0.763,-0.63,50.109,13.427,81.787,1
8.577555,0.523,0.773,-0.628,49.804,13.244,80.749,1
8.584097,0.524,0.779,-0.63,50.231,12.878,79.284,1
8.592107,0.496,0.788,-0.633,51.513,12.268,77.88,1
8.599802,0.464,0.781,-0.629,53.405,11.413,76.782,1
8.606703,0.425,0.775,-0.625,53.466,11.047,75.744,1
8.615164,0.373,0.766,-0.62,51.513,10.742,74.401,1
8.621979,0.337,0.755,-0.605,48.706,10.559,72.998,1
8.628816,0.296,0.751,-0.588,48.4,10.62,72.021,1
8.637092,0.25,0.75,-0.57,51.086,10.498,70.678,1
8.643654,0.218,0.744,-0.563,54.748,10.253,69.274,1
8.65178,0.197,0.704,-0.558,56.579,10.192,67.871,1
8.659959,0.068,0.655,-0.537,51.879,9.46,66.589,1
8.667008,0.073,0.636,-0.509,45.776,11.413,65.612,1
8.675238,0.067,0.592,-0.516,35.034,11.169,64.392,1
8.681796,0.02,0.56,-0.462,20.69,13.549,63.72,1
8.689944,0.027,0.542,-0.476,6.469,14.282,62.988,1
8.697005,0.017,0.519,-0.42,-2.441,14.526,62.805,1
8.703832,0.021,0.486,-0.39,-4.272,15.747,63.171,1
8.712131,0.013,0.475,-0.37,-1.403,15.014,63.781,1
8.719761,0.012,0.48,-0.363,9.765,15.686,64.88,1
8.726237,0.016,0.481,-0.371,22.827,14.587,66.101,1
8.734128,0.022,0.473,-0.369,34.118,15.258,67.81,1
8.74099,0.027,0.463,-0.395,38.391,15.136,69.58,1
8.74933,0.032,0.465,-0.405,37.475,15.808,71.96,1
8.755734,0.045,0.472,-0.425,34.851,16.784,73.852,1
8.763756,0.054,0.484,-0.43,30.09,17.639,76.049,1
8.770244,0.05,0.495,-0.443,23.132,19.042,78.369,1
8.777822,0.04,0.51,-0.454,14.709,20.019,80.749,1
8.784428,0.046,0.527,-0.455,8.911,21.362,82.885,1
8.792518,0.051,0.548,-0.472,4.028,22.399,85.083,1
8.798437,0.04,0.58,-0.47,1.831,23.62,87.524,1
8.806298,0.036,0.614,-0.486,0.854,24.536,89.172,1
8.813311,0.027,0.642,-0.492,-1.159,25.512,90.82,1
8.82133,0.012,0.674,-0.503,-3.112,26.977,92.712,1
8.827846,0.001,0.709,-0.516,-4.943,27.16,93.872,1
8.835683,-0.017,0.739,-0.514,-5.187,28.198,94.848,1
8.842237,-0.024,0.757,-0.523,-4.516,28.747,95.947,1
8.849736,-0.041,0.776,-0.522,-2.502,29.052,96.557,1
8.857787,-0.049,0.79,-0.529,-0.793,29.418,97.045,1
8.865032,-0.063,0.806,-0.542,-1.342,29.785,97.534,1
8.873059,-0.077,0.824,-0.559,-4.333,30.334,97.778,1
8.88049,-0.08,0.844,-0.574,-9.399,30.395,98.083,1
8.888308,-0.091,0.867,-0.575,-12.207,30.761,98.266,1
8.896597,-0.084,0.895,-0.591,-10.864,30.517,98.022,1
8.903843,-0.097,0.922,-0.598,-7.629,29.907,97.839,1
8.910263,-0.105,0.946,-0.606,-2.197,29.174,97.473,1
8.918124,-0.116,0.965,-0.606,3.784,28.381,96.801,1
8.926109,-0.13,0.975,-0.607,8.728,27.832,96.252,1
8.933783,-0.134,0.986,-0.618,10.314,27.709,95.214,1
8.940326,-0.136,0.997,-0.63,7.751,27.526,94.116,1
8.947766,-0.133,1.012,-0.653,3.173,27.709,93.078,1
8.954873,-0.134,1.027,-0.681,-4.211,27.404,91.308,1
8.962651,-0.165,1.038,-0.703,-16.479,27.893,89.721,1
8.969604,-0.165,1.048,-0.72,-28.198,27.77,88.012,1
8.978047,-0.149,1.065,-0.732,-31.921,26.733,86.608,1
8.984985,-0.128,1.076,-0.737,-25.39,25.085,85.266,1
8.992623,-0.113,1.076,-0.736,-8.483,22.094,83.923,1
9.000338,-0.097,1.072,-0.738,9.643,19.287,83.19,1
9.007035,-0.088,1.059,-0.745,31.188,15.808,82.214,1
9.015356,-0.086,1.039,-0.748,46.813,12.939,81.909,1
9.021899,-0.092,1.009,-0.762,53.405,10.864,81.176,1
9.030118,-0.088,0.985,-0.764,51.513,9.643,80.627,1
9.036717,-0.083,0.971,-0.763,44.982,8.85,80.383,1
9.045402,-0.084,0.973,-0.761,40.039,8.361,79.956,1
9.050859,-0.096,0.973,-0.753,35.949,7.812,79.589,1
9.058039,-0.102,0.969,-0.742,34.179,7.08,78.613,1
9.06635,-0.113,0.968,-0.733,33.996,6.469,78.002,1
9.072755,-0.125,0.969,-0.733,35.278,6.164,77.392,1
9.08119,-0.131,0.971,-0.731,37.353,5.554,76.965,1
9.088125,-0.124,0.974,-0.727,40.71,5.065,76.293,1
9.094826,-0.12,0.965,-0.726,42.602,4.394,75.683,1
9.102088,-0.127,0.962,-0.725,42.053,4.638,74.89,1
9.110439,-0.13,0.954,-0.727,39.001,4.638,74.096,1
9.116732,-0.14,0.951,-0.73,32.226,5.371,73.425,1
9.124198,-0.14,0.949,-0.731,22.949,5.92,72.692,1
9.132202,-0.142,0.95,-0.72,15.075,6.347,71.96,1
9.139996,-0.152,0.945,-0.714,9.704,6.53,70.983,1
9.149738,-0.153,0.939,-0.703,7.629,6.713,70.312,1
9.156029,-0.157,0.933,-0.694,7.568,6.652,69.458,1
9.160948,-0.159,0.916,-0.681,8.483,6.53,68.542,1
9.169492,-0.163,0.893,-0.668,9.643,6.347,68.176,1
9.177596,-0.167,0.875,-0.666,10.009,6.469,67.382,1
9.183566,-0.182,0.859,-0.655,8.239,6.774,66.955,1
9.193208,-0.201,0.854,-0.653,5.187,6.896,66.528,1
9.198545,-0.211,0.848,-0.65,1.525,7.629,65.979,1
9.206502,-0.215,0.848,-0.644,0.0,7.751,65.49,1
9.212719,-0.225,0.851,-0.638,0.854,8.056,65.185,1
9.219385,-0.236,0.844,-0.629,4.089,7.873,64.819,1
9.226619,-0.245,0.845,-0.625,7.019,7.629,64.27,1
9.235094,-0.257,0.836,-0.611,10.131,7.69,63.842,1
9.241802,-0.275,0.825,-0.613,11.962,7.751,63.537,1
9.248795,-0.289,0.821,-0.606,11.718,8.361,63.11,1
9.256783,-0.304,0.816,-0.605,8.544,9.033,63.415,1
9.264105,-0.319,0.819,-0.607,2.197,10.375,63.293,1
9.270608,-0.326,0.831,-0.608,-4.15,11.657,62.866,1
9.278357,-0.338,0.839,-0.605,-8.666,12.756,62.683,1
9.28548,-0.352,0.846,-0.606,-10.925,13.427,62.561,1
9.294552,-0.372,0.857,-0.607,-12.39,14.404,62.072,1
9.300929,-0.382,0.857,-0.607,-12.756,14.831,61.584,1
9.307766,-0.406,0.857,-0.604,-12.634,15.258,61.157,1
9.317715,-0.431,0.864,-0.606,-10.803,14.892,60.729,1
9.323448,-0.451,0.866,-0.606,-7.446,14.465,60.424,1
9.329692,-0.473,0.863,-0.601,-2.807,13.793,60.241,1
9.336775,-0.496,0.858,-0.596,0.854,13.122,60.302,1
9.344262,-0.52,0.848,-0.587,5.493,12.145,60.485,1
9.351378,-0.542,0.841,-0.586,10.62,11.474,61.035,1
9.358685,-0.557,0.83,-0.573,15.563,10.559,61.584,1
9.368001,-0.553,0.823,-0.562,20.507,9.826,62.072,1
9.373446,-0.553,0.814,-0.552,26.977,9.033,62.927,1
9.381239,-0.542,0.799,-0.541,33.081,8.117,63.598,1
9.388245,-0.531,0.781,-0.534,38.208,7.385,64.453,1
9.396579,-0.521,0.771,-0.528,40.954,7.019,65.368,1
9.404392,-0.514,0.764,-0.525,41.381,6.652,66.04,1
9.410483,-0.509,0.758,-0.515,40.954,6.225,66.406,1
9.41775,-0.511,0.763,-0.509,40.649,6.469,66.894,1
9.42514,-0.518,0.768,-0.5,40.039,6.225,66.955,1
9.433581,-0.53,0.776,-0.5,38.33,6.591,66.589,1
9.440079,-0.543,0.784,-0.497,35.827,6.958,66.284,1
9.448209,-0.543,0.796,-0.497,32.714,7.202,65.429,1
9.45442,-0.548,0.805,-0.492,29.846,7.446,64.697,1
9.461675,-0.552,0.81,-0.484,29.602,7.507,63.537,1
9.468901,-0.562,0.818,-0.479,30.517,7.568,62.011,1
9.476508,-0.568,0.819,-0.471,32.836,7.69,60.791,1
9.483392,-0.58,0.813,-0.468,34.79,7.385,59.204,1
9.491039,-0.583,0.814,-0.464,35.522,7.507,57.678,1
9.497896,-0.601,0.812,-0.465,33.935,7.69,56.213,1
9.50556,-0.622,0.813,-0.458,29.296,8.3,54.382,1
9.512856,-0.64,0.815,-0.451,23.681,9.46,52.795,1
9.521309,-0.652,0.81,-0.449,19.042,9.948,51.452,1
9.527962,-0.661,0.804,-0.445,14.465,10.864,49.987,1
9.53572,-0.661,0.795,-0.439,11.657,11.596,48.461,1
9.542194,-0.664,0.787,-0.435,9.521,12.268,47.546,1
9.549769,-0.666,0.777,-0.433,8.789,12.756,46.813,1
9.557996,-0.675,0.774,-0.429,8.117,13.305,46.203,1
9.564476,-0.684,0.77,-0.427,8.911,13.61,45.349,1
9.571589,-0.676,0.769,-0.428,12.023,13.671,44.555,1
9.578918,-0.665,0.763,-0.426,17.028,13.549,43.762,1
9.587365,-0.661,0.75,-0.425,22.277,12.939,43.395,1
9.594049,-0.657,0.736,-0.424,25.39,12.878,43.029,1
9.603054,-0.661,0.726,-0.426,26.0,12.878,42.846,1
9.608915,-0.664,0.716,-0.428,23.498,12.817,42.602,1
9.616935,-0.667,0.709,-0.425,21.484,13.0,42.358,1
9.623887,-0.66,0.705,-0.421,19.897,13.244,42.114,1
9.631929,-0.657,0.704,-0.414,19.775,13.427,41.748,1
9.638548,-0.659,0.695,-0.414,20.751,13.427,41.442,1
9.645383,-0.665,0.692,-0.416,20.08,13.366,41.137,1
9.653278,-0.668,0.689,-0.414,18.92,13.61,40.893,1
9.661119,-0.665,0.687,-0.419,16.235,13.732,40.405,1
9.667591,-0.671,0.686,-0.417,13.122,13.854,39.672,1
9.675327,-0.678,0.694,-0.415,10.864,13.916,39.123,1
9.683236,-0.688,0.693,-0.413,10.009,13.977,38.146,1
9.691368,-0.703,0.695,-0.407,10.864,14.099,37.536,1
9.697912,-0.703,0.694,-0.41,12.939,13.671,36.499,1
9.704949,-0.702,0.695,-0.406,15.991,13.183,35.583,1
9.712764,-0.699,0.693,-0.406,18.493,12.817,34.973,1
9.71945,-0.7,0.687,-0.401,21.789,12.329,33.752,1
9.728023,-0.693,0.686,-0.395,25.268,11.779,32.836,1
9.734517,-0.692,0.676,-0.394,27.526,11.413,31.921,1
9.742358,-0.695,0.67,-0.389,28.381,11.291,31.188,1
9.749744,-0.695,0.664,-0.395,28.076,11.474,30.151,1
9.757072,-0.692,0.653,-0.391,27.099,11.169,29.357,1
9.764933,-0.684,0.645,-0.383,25.878,11.535,28.381,1
9.771078,-0.687,0.636,-0.38,24.291,11.657,27.587,1
9.778789,-0.693,0.633,-0.379,20.629,12.329,27.099,1
9.785581,-0.703,0.627,-0.379,15.808,12.512,26.123,1
9.793934,-0.705,0.632,-0.381,11.84,13.427,25.695,1
9.80165,-0.71,0.628,-0.378,7.934,13.793,25.268,1
9.808411,-0.711,0.626,-0.372,3.784,14.465,24.475,1
9.815909,-0.715,0.622,-0.374,0.854,15.136,24.169,1
9.824017,-0.718,0.621,-0.372,-0.61,15.075,24.108,1
9.830617,-0.717,0.625,-0.368,0.244,15.624,23.376,1
9.838784,-0.711,0.628,-0.37,2.624,15.441,23.254,1
9.845675,-0.71,0.623,-0.37,6.042,15.197,22.888,1
9.852641,-0.716,0.621,-0.37,9.155,15.075,22.766,1
9.860859,-0.719,0.619,-0.371,11.413,14.892,22.705,1
9.867658,-0.728,0.612,-0.372,12.268,14.892,22.583,1
9.875304,-0.735,0.612,-0.372,11.657,14.77,22.399,1
9.882982,-0.743,0.609,-0.373,10.07,15.014,22.277,1
9.890012,-0.75,0.611,-0.377,7.629,15.136,22.338,1
9.898297,-0.747,0.612,-0.375,5.249,15.319,21.911,1
9.906758,-0.744,0.611,-0.379,3.601,15.38,21.484,1
9.913327,-0.741,0.61,-0.379,2.563,15.38,21.118,1
9.921498,-0.75,0.605,-0.379,2.441,15.258,20.935,1
9.928047,-0.759,0.612,-0.382,3.54,14.465,20.568,1
9.936331,-0.762,0.612,-0.384,6.286,14.038,20.629,1
9.944334,-0.76,0.616,-0.381,10.62,13.183,20.08,1
9.952842,-0.757,0.617,-0.381,16.357,12.145,19.836,1
9.959385,-0.753,0.613,-0.384,20.629,11.474,19.409,1
9.967192,-0.75,0.611,-0.386,23.01,10.803,18.92,1
9.975525,-0.755,0.604,-0.394,22.338,10.07,18.493,1
9.983466,-0.752,0.608,-0.394,20.629,9.399,18.005,1
9.989866,-0.749,0.605,-0.392,18.493,9.094,17.211,1
9.998126,-0.754,0.61,-0.394,16.54,8.666,16.662,1
