timestamp_s,ax,ay,az,gx,gy,gz,label
0.004471,0.002,0.934,0.178,-1.892,-0.305,-3.906,1
0.012564,0.002,0.938,0.177,-0.366,-0.122,-3.356,1
0.021676,0.001,0.945,0.187,1.464,-0.183,-2.38,1
0.028306,0.004,0.952,0.189,3.356,0.122,-2.075,1
0.036179,0.0,0.958,0.19,5.493,0.549,-1.525,1
0.042931,0.0,0.961,0.198,6.286,1.037,-1.403,1
0.050686,0.002,0.962,0.199,7.019,1.586,-0.793,1
0.058276,-0.001,0.955,0.196,6.469,2.136,-0.488,1
0.065481,-0.006,0.956,0.187,5.859,2.441,0.061,1
0.074315,-0.009,0.961,0.189,4.943,2.807,0.305,1
0.0811,-0.008,0.962,0.19,4.577,3.173,0.793,1
0.088395,-0.007,0.963,0.19,3.967,3.723,1.403,1
0.09764,-0.006,0.958,0.185,3.723,4.211,1.403,1
0.104947,-0.006,0.958,0.181,3.173,4.516,2.136,1
0.112149,-0.014,0.958,0.176,3.356,4.699,2.319,1
0.121524,-0.023,0.964,0.171,3.54,4.882,2.807,1
0.128573,-0.028,0.968,0.17,3.967,5.187,3.112,1
0.13716,-0.034,0.974,0.172,4.394,5.187,3.356,1
0.144534,-0.034,0.97,0.167,4.394,5.432,3.356,1
0.152396,-0.037,0.966,0.164,4.333,5.737,3.479,1
0.159448,-0.041,0.966,0.154,4.272,5.493,3.662,1
0.168414,-0.043,0.971,0.155,4.15,5.615,3.906,1
0.175847,-0.05,0.973,0.148,4.882,5.371,4.089,1
0.183987,-0.049,0.983,0.148,6.042,5.065,4.089,1
0.191801,-0.05,0.992,0.147,7.446,4.821,3.906,1
0.199862,-0.048,0.996,0.143,9.338,4.577,3.845,1
0.207847,-0.044,1.008,0.145,11.718,4.028,3.906,1
0.215051,-0.042,1.009,0.14,13.427,3.784,3.601,1
0.222784,-0.04,0.999,0.131,13.488,3.417,3.54,1
0.232193,-0.033,0.992,0.119,12.451,3.234,3.417,1
0.23976,-0.035,0.995,0.118,11.291,2.807,3.295,1
0.247007,-0.039,1.003,0.12,9.582,2.502,3.173,1
0.255938,-0.035,1.008,0.121,9.033,2.136,3.051,1
0.263365,-0.033,1.006,0.127,8.056,1.892,2.99,1
0.270453,-0.023,1.007,0.128,7.08,1.525,2.807,1
0.279465,-0.024,1.0,0.121,6.774,1.464,2.624,1
0.287547,-0.024,1.0,0.124,6.469,0.915,2.38,1
0.294546,-0.024,1.001,0.137,5.126,0.976,2.38,1
0.304325,-0.027,0.999,0.123,2.929,0.427,2.441,1
0.310913,-0.035,0.992,0.12,-0.427,0.366,2.319,1
0.320198,-0.032,1.0,0.112,-1.281,-0.366,2.197,1
0.328317,-0.028,1.004,0.122,1.22,-1.281,2.258,1
0.337545,-0.022,1.0,0.13,2.929,-1.708,2.441,1
0.345438,-0.021,1.0,0.141,2.38,-1.647,2.441,1
0.352994,-0.017,1.009,0.141,-0.976,-1.464,2.685,1
0.362257,-0.004,1.011,0.15,-2.624,-1.403,2.624,1
0.369137,-0.027,1.021,0.164,-2.868,-1.098,2.197,1
0.379264,-0.01,1.033,0.167,-1.708,-0.854,1.708,1
0.387278,-0.007,1.048,0.187,5.004,-1.403,0.854,1
0.393896,0.0,1.03,0.192,12.084,-1.159,-0.122,1
0.402668,0.004,1.014,0.195,12.756,-1.159,-0.854,1
0.411193,-0.012,0.996,0.195,6.958,-0.549,-1.037,1
0.421314,-0.002,0.987,0.171,-1.098,-0.427,-0.854,1
0.428536,-0.013,0.989,0.158,-5.981,-0.671,-0.61,1
0.437907,-0.054,0.989,0.148,-8.239,-1.281,-0.427,1
0.446746,-0.071,1.008,0.147,-6.103,-1.77,-1.037,1
0.454387,-0.06,1.013,0.157,-2.014,-2.014,-1.525,1
0.462829,-0.057,0.997,0.15,1.586,-2.807,-1.464,1
0.471912,-0.052,0.986,0.157,1.892,-2.868,-1.281,1
0.479128,-0.02,0.982,0.169,0.366,-2.99,-1.464,1
0.488666,0.003,1.005,0.197,0.183,-2.624,-1.708,1
0.496308,0.016,1.022,0.216,0.793,-1.953,-2.197,1
0.505312,0.031,1.023,0.226,0.549,-1.037,-2.685,1
0.512889,0.034,1.027,0.229,-0.366,0.0,-2.929,1
0.521119,0.011,1.022,0.217,-0.854,0.915,-3.479,1
0.528387,-0.006,1.014,0.208,-0.976,1.525,-3.723,1
0.537279,-0.011,1.008,0.189,0.488,2.014,-4.028,1
0.545184,-0.017,0.996,0.179,2.563,2.197,-4.15,1
0.551679,-0.01,0.989,0.175,5.065,2.38,-4.15,1
0.560884,-0.031,0.999,0.178,7.69,2.136,-4.577,1
0.570212,-0.037,1.002,0.18,9.948,2.136,-5.065,1
0.577172,-0.024,0.994,0.177,10.742,2.014,-5.31,1
0.586859,-0.027,0.995,0.173,10.864,1.708,-5.31,1
0.594788,-0.038,0.997,0.168,10.986,1.647,-5.493,1
0.602834,-0.04,1.004,0.168,12.023,1.281,-5.554,1
0.610803,-0.038,0.999,0.169,14.282,0.854,-5.615,1
0.617244,-0.034,0.998,0.167,17.456,0.244,-5.676,1
0.625472,-0.032,0.99,0.184,19.47,-0.122,-5.92,1
0.634023,-0.031,0.992,0.188,20.385,0.0,-5.737,1
0.640342,-0.025,0.985,0.199,19.958,0.122,-5.493,1
0.648546,-0.017,0.979,0.207,18.31,0.549,-5.676,1
0.656642,-0.005,0.981,0.222,16.113,1.525,-5.92,1
0.663276,-0.003,0.978,0.221,13.549,2.258,-5.615,1
0.671531,0.0,0.966,0.207,12.756,2.502,-5.554,1
0.679892,0.001,0.978,0.219,10.986,2.38,-5.249,1
0.687414,0.019,0.97,0.228,8.178,2.99,-4.699,1
0.695242,0.023,0.964,0.218,5.432,3.173,-4.272,1
0.702936,0.02,0.961,0.224,4.333,3.906,-3.723,1
0.710726,0.02,0.963,0.225,3.479,4.394,-3.234,1
0.718613,0.016,0.955,0.234,3.173,5.004,-2.441,1
0.726272,0.037,0.952,0.236,1.281,6.53,-1.159,1
0.733614,0.081,0.958,0.238,-2.929,7.629,0.061,1
0.741874,0.119,0.997,0.239,-8.483,9.46,1.037,1
0.750594,0.116,1.061,0.241,-15.624,11.352,0.976,1
0.757678,0.09,1.127,0.218,-22.033,12.756,0.244,1
0.76473,0.053,1.21,0.164,-29.602,13.671,-1.098,1
0.77379,0.029,1.295,0.11,-34.729,13.244,-2.929,1
0.782056,0.036,1.374,0.05,-38.818,12.756,-5.31,1
0.78952,0.08,1.47,-0.018,-43.273,11.413,-7.324,1
0.797002,0.125,1.556,-0.061,-50.964,9.887,-10.375,1
0.806136,0.152,1.66,-0.089,-59.326,8.911,-13.671,1
0.814129,0.193,1.774,-0.107,-67.26,8.056,-17.822,1
0.821179,0.255,1.883,-0.119,-74.218,7.751,-22.949,1
0.829831,0.28,2.023,-0.121,-78.979,7.263,-29.968,1
0.836602,0.303,2.1,-0.161,-82.336,6.591,-36.987,1
0.845499,0.288,2.213,-0.197,-84.106,5.249,-44.006,1
0.852985,0.29,2.297,-0.209,-82.641,3.234,-52.795,1
0.861211,0.314,2.356,-0.211,-78.063,0.976,-61.157,1
0.869075,0.339,2.416,-0.198,-71.166,-0.183,-69.641,1
0.878122,0.415,2.445,-0.239,-66.467,-1.159,-79.895,1
0.886109,0.454,2.52,-0.293,-69.763,-1.464,-88.378,1
0.893044,0.492,2.663,-0.395,-83.801,-1.22,-97.656,1
0.900811,0.494,2.863,-0.471,-119.079,0.061,-109.558,1
0.909174,0.504,3.067,-0.574,-157.653,0.61,-121.215,1
0.916657,0.548,3.197,-0.589,-195.312,-0.305,-133.789,1
0.926081,0.551,3.201,-0.554,-228.82,-2.136,-148.559,1
0.932737,0.523,3.205,-0.48,-241.271,-7.446,-160.4,1
0.940781,0.515,3.172,-0.363,-227.722,-13.549,-171.63,1
0.948732,0.486,3.152,-0.226,-190.551,-23.193,-182.556,1
0.95802,0.418,3.062,-0.061,-118.103,-33.203,-195.373,1
0.964967,0.326,2.912,0.116,-51.513,-41.503,-205.871,1
0.972432,0.314,2.693,0.201,3.295,-45.471,-218.627,1
0.981663,0.273,2.365,0.309,23.803,-46.081,-228.088,1
0.989077,0.225,2.013,0.363,21.423,-41.809,-234.863,1
0.997048,0.23,1.612,0.351,-13.549,-37.536,-240.173,1
1.00615,0.224,1.432,0.412,-33.02,-33.569,-242.553,1
1.013366,0.222,1.356,0.437,-35.827,-32.836,-243.652,1
1.019947,0.229,1.312,0.487,-24.047,-33.081,-244.75,1
1.027138,0.166,1.367,0.528,-1.342,-34.179,-246.154,1
1.035476,0.11,1.373,0.558,24.719,-35.461,-248.107,1
1.0421,0.089,1.376,0.605,48.156,-35.217,-250.61,1
1.050127,0.075,1.344,0.621,59.082,-34.057,-252.319,1
1.05809,0.05,1.337,0.661,63.903,-32.348,-254.821,1
1.066111,0.039,1.334,0.682,62.744,-30.334,-256.713,1
1.074147,-0.057,1.323,0.72,64.392,-28.564,-258.911,1
1.080986,-0.096,1.301,0.727,71.044,-27.16,-262.023,1
1.08978,-0.138,1.242,0.761,75.866,-26.245,-263.244,1
1.096955,-0.23,1.139,0.764,80.566,-24.475,-263.854,1
1.10469,-0.296,1.056,0.787,86.608,-22.766,-264.343,1
1.112546,-0.353,0.993,0.803,93.505,-19.592,-264.038,1
1.120799,-0.491,0.891,0.811,100.524,-16.052,-263.427,1
1.127821,-0.566,0.735,0.81,106.018,-10.253,-262.695,1
1.136113,-0.582,0.589,0.813,105.285,-5.493,-261.413,1
1.142902,-0.597,0.43,0.81,99.975,2.197,-257.629,1
1.151245,-0.561,0.304,0.812,94.299,8.178,-254.638,1
1.157422,-0.574,0.228,0.823,87.829,15.93,-249.45,1
1.165795,-0.593,0.144,0.821,79.65,23.376,-244.262,1
1.173671,-0.582,0.072,0.831,69.335,31.005,-238.22,1
1.18,-0.557,0.039,0.834,60.546,39.001,-232.299,1
1.187946,-0.654,0.101,0.844,51.696,47.241,-224.548,1
1.194995,-0.522,0.212,0.778,38.696,54.443,-219.36,1
1.203648,-0.71,0.31,0.813,43.762,62.316,-216.003,1
1.210184,-0.534,0.26,0.816,65.002,68.054,-211.547,1
1.218026,-0.557,0.121,0.814,83.312,72.875,-205.627,1
1.226209,-0.557,-0.043,0.774,81.909,86.486,-198.425,1
1.233547,-0.494,-0.197,0.729,47.607,96.435,-192.504,1
1.241101,-0.446,-0.261,0.74,18.066,112.487,-185.058,1
1.249697,-0.435,-0.291,0.697,-0.122,124.389,-178.771,1
1.256516,-0.375,-0.318,0.67,-12.573,141.174,-173.034,1
1.264493,-0.369,-0.442,0.607,-30.212,152.893,-169.006,1
1.273145,-0.353,-0.409,0.563,-45.043,169.86,-163.879,1
1.280352,-0.524,-0.367,0.549,-49.56,177.124,-159.729,1
1.288182,-0.637,-0.34,0.555,-37.963,182.556,-154.785,1
1.296507,-0.709,-0.356,0.56,-8.666,184.631,-148.193,1
1.3053,-0.727,-0.402,0.536,20.568,185.791,-140.686,1
1.311986,-0.79,-0.447,0.513,46.936,187.438,-131.958,1
1.320828,-0.816,-0.524,0.451,62.194,192.077,-122.558,1
1.328451,-0.799,-0.616,0.385,62.561,198.303,-112.182,1
1.337054,-0.784,-0.658,0.321,56.762,208.068,-99.609,1
1.344999,-0.821,-0.686,0.243,51.33,217.651,-88.745,1
1.352301,-0.925,-0.701,0.153,44.311,227.416,-77.392,1
1.360497,-1.036,-0.692,0.071,33.996,238.891,-64.208,1
1.369338,-1.169,-0.706,-0.018,22.521,248.107,-53.161,1
1.375932,-1.305,-0.756,-0.132,-2.868,259.338,-40.161,1
1.385351,-1.351,-0.818,-0.24,-36.499,268.554,-29.479,1
1.393278,-1.405,-0.877,-0.369,-79.956,278.198,-17.272,1
1.401396,-1.429,-0.913,-0.463,-113.769,284.729,-7.08,1
1.409819,-1.576,-0.897,-0.567,-130.371,289.917,1.037,1
1.416871,-1.688,-0.929,-0.645,-133.056,293.212,11.23,1
1.425307,-1.717,-0.955,-0.723,-129.089,296.325,20.263,1
1.433378,-1.809,-0.975,-0.803,-122.619,296.508,30.883,1
1.440508,-1.876,-0.998,-0.853,-111.694,297.912,41.076,1
1.44835,-1.983,-0.962,-0.89,-96.252,296.569,51.513,1
1.456279,-2.01,-0.99,-0.946,-75.561,296.02,62.622,1
1.46595,-2.124,-0.978,-0.992,-58.227,294.494,76.416,1
1.472078,-2.265,-1.001,-1.041,-46.752,294.616,88.745,1
1.482688,-2.404,-1.035,-1.099,-38.818,293.884,101.623,1
1.489914,-2.475,-1.112,-1.204,-42.419,294.311,118.408,1
1.500106,-2.653,-1.127,-1.26,-51.391,296.386,136.718,1
1.506998,-2.879,-1.147,-1.333,-49.56,296.142,155.944,1
1.517507,-3.104,-1.221,-1.408,-32.897,296.02,177.795,1
1.524745,-3.223,-1.327,-1.506,-14.099,292.663,203.308,1
1.532052,-3.381,-1.468,-1.613,-2.136,290.466,229.248,1
1.540928,-3.642,-1.585,-1.781,13.183,284.301,264.099,1
1.54962,-3.884,-1.679,-1.932,47.912,276.306,298.278,1
1.55665,-4.095,-1.831,-2.166,91.003,263.427,337.585,1
1.565069,-4.446,-2.049,-2.441,122.558,243.103,389.892,1
1.573227,-4.625,-2.138,-2.605,153.015,220.52,438.72,1
1.581041,-5.093,-2.158,-2.791,212.585,185.546,497.985,1
1.589927,-5.543,-2.17,-2.94,283.264,144.592,551.33,1
1.598203,-6.278,-2.162,-3.145,361.45,94.238,606.994,1
1.605046,-6.99,-2.058,-3.298,426.696,20.507,668.64,1
1.613023,-7.829,-1.799,-3.283,452.209,-48.156,716.247,1
1.62132,-8.812,-1.354,-3.161,477.844,-124.206,756.957,1
1.629185,-9.685,-0.968,-2.944,519.714,-219.604,795.104,1
1.638925,-10.741,-0.553,-2.71,551.757,-308.227,817.993,1
1.646201,-11.658,-0.168,-2.436,586.364,-414.367,832.275,1
1.654789,-12.63,0.186,-2.229,609.252,-507.08,832.946,1
1.662066,-13.975,0.574,-1.942,605.773,-610.473,818.908,1
1.670982,-14.968,0.874,-1.643,571.044,-691.162,796.203,1
1.677341,-15.789,1.118,-1.303,535.278,-762.817,766.601,1
1.685778,-15.997,1.336,-0.896,501.953,-827.27,733.764,1
1.694011,-15.999,1.59,-0.59,496.887,-897.094,690.246,1
1.702483,-15.999,1.742,-0.151,520.629,-958.496,644.836,1
1.709334,-15.999,1.828,0.189,549.987,-1020.385,582.031,1
1.71865,-15.999,1.956,0.541,582.885,-1073.73,520.385,1
1.725274,-15.999,1.833,0.875,602.844,-1115.173,452.331,1
1.733012,-15.999,1.573,1.329,554.138,-1135.315,389.221,1
1.740966,-15.999,2.039,1.704,506.286,-1137.695,322.387,1
1.74862,-15.999,2.257,2.163,484.985,-1148.986,261.474,1
1.757953,-15.999,2.43,2.663,468.2,-1146.362,190.185,1
1.76481,-15.999,2.692,2.899,466.979,-1140.502,121.52,1
1.774326,-15.999,2.922,3.185,507.507,-1123.596,37.597,1
1.783438,-15.999,2.98,3.391,606.506,-1111.45,-45.349,1
1.790835,-15.999,2.906,3.514,816.223,-1093.017,-166.198,1
1.799354,-15.999,2.456,3.438,991.516,-1048.889,-309.936,1
1.808213,-15.999,1.697,3.264,1067.077,-960.632,-450.927,1
1.815185,-15.074,0.886,3.069,1034.423,-859.619,-547.79,1
1.823434,-13.415,0.212,2.775,928.222,-749.45,-616.21,1
1.831926,-12.207,-0.052,2.578,760.07,-624.511,-664.001,1
1.840003,-11.188,-0.209,2.426,600.891,-518.249,-687.499,1
1.84817,-10.692,-0.332,2.491,505.249,-442.321,-695.251,1
1.857392,-10.2,-0.572,2.493,442.443,-363.891,-696.899,1
1.865652,-9.518,-0.915,2.467,415.1,-294.372,-690.368,1
1.874276,-8.635,-1.276,2.289,372.802,-238.403,-681.518,1
1.883085,-7.782,-1.729,2.232,277.099,-177.551,-662.963,1
1.891545,-7.214,-1.963,2.178,181.091,-133.3,-641.967,1
1.898734,-6.551,-2.147,2.302,122.131,-91.186,-616.21,1
1.90727,-6.395,-2.246,2.369,110.9,-63.781,-592.346,1
1.915978,-5.891,-2.324,2.423,132.324,-31.005,-564.209,1
1.923689,-5.454,-2.467,2.402,162.292,-12.145,-537.536,1
1.931312,-5.047,-2.664,2.372,202.819,19.287,-501.098,1
1.939576,-4.64,-2.868,2.329,221.801,40.283,-467.224,1
1.947715,-4.114,-3.102,2.246,235.595,69.824,-423.034,1
1.955976,-3.666,-3.243,2.146,236.022,91.003,-383.911,1
1.963396,-3.112,-3.392,2.003,236.022,112.182,-342.712,1
1.971874,-2.738,-3.415,1.866,225.036,131.835,-294.494,1
1.980182,-2.474,-3.357,1.722,217.041,146.545,-254.638,1
1.988854,-2.267,-3.21,1.587,213.378,159.545,-209.228,1
1.996685,-2.132,-3.05,1.479,219.848,168.64,-171.813,1
2.005533,-1.967,-2.881,1.351,234.497,176.269,-129.333,1
2.013005,-1.832,-2.708,1.216,246.276,181.945,-94.36,1
2.021829,-1.781,-2.534,1.116,243.774,186.889,-55.236,1
2.031039,-1.728,-2.314,1.014,233.459,191.162,-24.23,1
2.03774,-1.587,-2.06,0.886,221.008,192.932,9.46,1
2.046316,-1.456,-1.826,0.767,205.932,193.847,35.522,1
2.053234,-1.395,-1.652,0.686,185.852,193.42,58.532,1
2.061611,-1.312,-1.405,0.594,166.625,191.589,81.542,1
2.070788,-1.244,-1.213,0.524,156.555,188.232,97.717,1
2.07705,-1.152,-1.039,0.47,151.733,183.776,112.243,1
2.08607,-1.021,-0.854,0.422,151.672,177.001,126.037,1
2.093098,-0.928,-0.711,0.417,157.348,170.532,136.413,1
2.102373,-0.857,-0.587,0.411,165.832,164.245,145.507,1
2.10994,-0.778,-0.464,0.405,174.377,158.447,153.015,1
2.118691,-0.707,-0.373,0.411,181.274,152.038,160.766,1
2.125251,-0.59,-0.242,0.416,183.166,147.766,166.748,1
2.133039,-0.529,-0.116,0.431,183.227,143.676,172.546,1
2.141874,-0.437,0.018,0.441,178.894,141.54,177.307,1
2.150533,-0.381,0.164,0.424,169.86,139.831,180.236,1
2.157537,-0.418,0.291,0.485,147.705,140.136,182.067,1
2.164606,-0.451,0.368,0.484,116.333,140.563,181.579,1
2.172151,-0.435,0.452,0.527,87.524,141.845,179.321,1
2.18188,-0.394,0.485,0.514,65.185,140.441,175.537,1
2.189977,-0.3,0.516,0.553,52.551,138.671,170.532,1
2.198249,-0.196,0.533,0.526,55.053,135.07,165.527,1
2.205462,-0.029,0.53,0.514,74.584,130.249,160.461,1
2.211978,0.078,0.497,0.489,86.608,125.671,156.738,1
2.219682,0.225,0.459,0.447,92.468,122.863,154.296,1
2.228163,0.277,0.432,0.419,90.087,119.018,151.123,1
2.235839,0.359,0.404,0.391,81.42,117.126,148.62,1
2.242969,0.453,0.384,0.36,70.617,113.769,146.24,1
2.251733,0.502,0.392,0.369,65.002,112.854,144.714,1
2.25919,0.552,0.409,0.353,68.298,108.886,142.578,1
2.26636,0.577,0.432,0.37,86.059,106.262,140.441,1
2.273874,0.601,0.458,0.359,109.741,101.318,138.366,1
2.282993,0.617,0.468,0.367,137.451,97.473,136.962,1
2.290763,0.639,0.476,0.364,162.475,92.59,135.498,1
2.298151,0.644,0.462,0.376,182.678,88.562,133.544,1
2.305633,0.645,0.444,0.354,185.913,86.73,131.652,1
2.313104,0.625,0.424,0.35,175.903,85.754,129.455,1
2.320726,0.643,0.428,0.329,157.714,86.425,126.831,1
2.32923,0.688,0.431,0.319,135.498,87.036,123.901,1
2.337454,0.745,0.459,0.313,113.586,87.89,120.117,1
2.343762,0.77,0.502,0.327,102.661,87.402,116.271,1
2.352567,0.791,0.533,0.343,101.623,87.036,112.304,1
2.360314,0.808,0.557,0.359,104.553,85.693,108.276,1
2.367867,0.804,0.587,0.391,110.229,85.205,103.82,1
2.377184,0.785,0.603,0.395,112.976,84.594,100.402,1
2.383745,0.774,0.617,0.406,114.501,85.449,96.923,1
2.390967,0.793,0.63,0.39,114.685,86.303,93.627,1
2.399058,0.828,0.655,0.391,115.417,87.829,90.393,1
2.407016,0.852,0.691,0.377,118.469,88.317,87.036,1
2.413831,0.897,0.724,0.384,126.708,88.439,83.312,1
2.421664,0.935,0.752,0.383,138.122,88.439,79.772,1
2.429884,0.944,0.785,0.391,150.817,87.829,76.171,1
2.436621,0.945,0.823,0.404,166.381,87.219,73.181,1
2.44578,0.958,0.835,0.409,178.894,85.388,70.251,1
2.452683,0.914,0.846,0.42,189.147,86.73,67.932,1
2.461301,0.86,0.85,0.389,187.377,88.439,64.636,1
2.468806,0.828,0.847,0.346,172.851,92.956,61.401,1
2.477501,0.806,0.856,0.287,153.808,96.557,58.837,1
2.48489,0.832,0.868,0.213,132.812,99.975,55.969,1
2.492654,0.861,0.878,0.142,114.257,102.6,53.344,1
2.500247,0.899,0.886,0.061,97.9,104.431,49.743,1
2.509313,0.873,0.913,0.006,91.369,105.346,46.203,1
2.516239,0.974,0.93,-0.027,99.243,104.309,42.297,1
2.522927,1.022,0.94,-0.044,123.229,102.172,39.001,1
2.531571,1.038,0.945,-0.062,152.832,97.29,35.766,1
2.540719,0.982,0.926,-0.087,183.898,93.383,33.081,1
2.548118,0.907,0.914,-0.098,194.213,91.064,30.883,1
2.555962,0.836,0.893,-0.142,184.997,89.477,28.015,1
2.562946,0.775,0.879,-0.151,165.039,90.515,25.329,1
2.571132,0.729,0.85,-0.189,140.991,91.247,22.338,1
2.579359,0.738,0.813,-0.21,115.112,93.2,18.737,1
2.588715,0.741,0.762,-0.266,89.172,94.116,14.465,1
2.594844,0.808,0.724,-0.29,78.002,94.909,11.108,1
2.604579,0.84,0.68,-0.333,73.791,92.956,7.934,1
2.612461,0.846,0.637,-0.322,82.275,90.698,4.882,1
2.620953,0.861,0.595,-0.347,98.51,86.486,2.99,1
2.627577,0.87,0.543,-0.332,121.398,82.824,2.075,1
2.635129,0.894,0.51,-0.354,136.108,79.406,2.258,1
2.6449,0.906,0.486,-0.345,142.028,77.636,2.746,1
2.652958,0.878,0.472,-0.361,135.437,76.293,3.295,1
2.661068,0.822,0.466,-0.35,120.666,76.293,3.356,1
2.669342,0.793,0.463,-0.364,98.266,77.392,2.624,1
2.675993,0.77,0.456,-0.372,77.331,78.857,1.525,1
2.683495,0.763,0.458,-0.383,58.776,80.139,0.427,1
2.692205,0.762,0.452,-0.396,45.898,80.261,-1.037,1
2.700244,0.784,0.443,-0.391,37.17,80.322,-2.563,1
2.708527,0.794,0.436,-0.393,34.545,79.223,-3.662,1
2.716132,0.814,0.418,-0.392,34.606,78.063,-5.004,1
2.72332,0.814,0.394,-0.401,35.827,76.477,-6.286,1
2.731192,0.809,0.368,-0.413,36.743,75.5,-6.958,1
2.739754,0.803,0.349,-0.423,36.132,74.829,-7.629,1
2.748904,0.797,0.329,-0.439,35.278,73.791,-7.812,1
2.75687,0.801,0.313,-0.44,36.376,72.875,-8.361,1
2.765001,0.833,0.294,-0.44,40.71,71.594,-8.361,1
2.772288,0.858,0.287,-0.437,46.386,70.434,-8.117,1
2.781524,0.834,0.281,-0.429,55.358,68.664,-7.812,1
2.787645,0.818,0.272,-0.43,63.659,67.199,-8.117,1
2.796147,0.817,0.269,-0.415,72.509,65.856,-8.361,1
2.803552,0.782,0.262,-0.413,81.115,64.392,-8.544,1
2.811499,0.727,0.264,-0.407,88.256,63.476,-9.399,1
2.820313,0.711,0.263,-0.396,100.585,62.072,-10.559,1
2.828788,0.735,0.244,-0.404,107.788,59.326,-9.948,1
2.835377,0.761,0.223,-0.395,110.351,58.654,-7.812,1
2.844095,0.774,0.194,-0.398,104.675,57.312,-4.76,1
2.850755,0.846,0.166,-0.402,92.834,56.945,0.244,1
2.858212,0.966,0.16,-0.411,81.359,56.762,5.31,1
2.865996,1.045,0.16,-0.408,72.814,57.373,8.728,1
2.873219,1.083,0.164,-0.432,58.166,58.959,13.244,1
2.881983,1.13,0.181,-0.465,46.752,59.753,15.747,1
2.88981,1.073,0.215,-0.491,29.174,61.462,18.31,1
2.897337,0.984,0.249,-0.532,9.765,62.377,20.324,1
2.906188,0.953,0.275,-0.579,-12.634,63.232,21.667,1
2.913707,0.906,0.33,-0.614,-32.653,62.683,23.193,1
2.921411,0.847,0.384,-0.629,-38.94,62.133,23.071,1
2.931073,0.82,0.431,-0.662,-35.583,60.729,22.338,1
2.93816,0.808,0.474,-0.681,-19.348,58.105,19.958,1
2.947539,0.803,0.509,-0.702,-1.525,55.541,17.15,1
2.955653,0.762,0.549,-0.704,21.789,51.696,13.427,1
2.962203,0.736,0.577,-0.714,40.283,48.278,10.559,1
2.970739,0.735,0.6,-0.705,54.992,44.616,7.629,1
2.978973,0.745,0.598,-0.708,65.002,41.32,4.333,1
2.987686,0.748,0.601,-0.699,67.26,38.94,1.831,1
2.994959,0.739,0.599,-0.706,66.528,36.254,-0.976,1
3.004749,0.723,0.604,-0.693,65.551,34.729,-3.417,1
3.011899,0.736,0.603,-0.692,66.528,32.836,-5.493,1
3.019397,0.742,0.602,-0.694,65.551,31.127,-8.178,1
3.026936,0.755,0.595,-0.688,62.194,29.907,-10.009,1
3.034972,0.762,0.584,-0.691,54.931,28.686,-11.901,1
3.043156,0.797,0.566,-0.693,46.142,27.404,-13.488,1
3.053234,0.818,0.554,-0.682,35.461,25.573,-15.38,1
3.061154,0.836,0.539,-0.674,30.273,23.742,-16.967,1
3.069432,0.813,0.515,-0.67,29.296,21.301,-18.493,1
3.077284,0.787,0.499,-0.664,33.813,18.493,-19.592,1
3.084482,0.772,0.471,-0.66,40.527,15.869,-20.446,1
3.09177,0.763,0.437,-0.652,46.874,13.671,-21.301,1
3.101274,0.741,0.407,-0.643,50.72,11.84,-21.484,1
3.108353,0.737,0.37,-0.627,50.842,10.498,-21.667,1
3.117394,0.755,0.34,-0.618,47.424,9.948,-21.118,1
3.124768,0.777,0.316,-0.599,40.405,9.704,-20.629,1
3.132076,0.799,0.305,-0.581,33.874,9.155,-20.568,1
3.141073,0.807,0.298,-0.568,29.602,8.789,-20.202,1
3.147997,0.816,0.289,-0.559,25.634,7.69,-19.592,1
3.156469,0.834,0.276,-0.555,22.583,6.713,-18.92,1
3.163932,0.848,0.27,-0.552,19.104,6.042,-18.066,1
3.171574,0.852,0.27,-0.556,15.258,5.371,-17.517,1
3.181813,0.865,0.271,-0.56,10.681,4.455,-16.54,1
3.189943,0.883,0.28,-0.567,5.615,3.295,-15.624,1
3.196486,0.89,0.293,-0.558,2.38,2.258,-14.587,1
3.205727,0.903,0.296,-0.557,0.305,1.098,-13.732,1
3.21402,0.912,0.305,-0.545,0.244,0.0,-13.0,1
3.221499,0.907,0.313,-0.53,1.708,-1.159,-12.268,1
3.22866,0.896,0.325,-0.517,6.042,-2.197,-11.962,1
3.236463,0.889,0.329,-0.5,10.009,-2.868,-11.84,1
3.244487,0.874,0.331,-0.484,13.793,-3.723,-11.962,1
3.255045,0.86,0.323,-0.47,16.174,-4.089,-12.329,1
3.262981,0.853,0.314,-0.455,17.456,-4.028,-12.084,1
3.270353,0.853,0.307,-0.442,17.211,-3.845,-12.084,1
3.279311,0.854,0.304,-0.428,15.93,-3.601,-12.145,1
3.28826,0.851,0.294,-0.411,13.61,-2.807,-12.512,1
3.296449,0.86,0.291,-0.4,10.742,-2.319,-12.39,1
3.305213,0.869,0.284,-0.386,5.981,-1.403,-12.512,1
3.313815,0.884,0.274,-0.374,0.061,-0.549,-12.512,1
3.32098,0.912,0.28,-0.36,-4.882,0.305,-12.451,1
3.330002,0.923,0.282,-0.354,-6.835,0.0,-12.939,1
3.338685,0.934,0.279,-0.355,-8.056,0.061,-13.549,1
3.349337,0.926,0.267,-0.351,-9.521,0.061,-13.122,1
3.356381,0.917,0.275,-0.342,-7.385,-0.122,-13.122,1
3.3655,0.914,0.273,-0.339,0.183,-0.488,-13.366,1
3.372547,0.938,0.27,-0.33,8.544,-0.915,-13.244,1
3.383153,0.974,0.273,-0.307,18.493,-1.464,-12.817,1
3.390331,0.987,0.28,-0.299,31.677,-2.136,-12.634,1
3.398296,0.987,0.284,-0.279,41.809,-3.234,-11.962,1
3.407547,0.985,0.284,-0.266,48.217,-3.845,-11.596,1
3.415952,1.002,0.277,-0.251,51.757,-3.723,-11.23,1
3.424897,1.005,0.284,-0.236,49.255,-3.173,-10.803,1
3.431977,0.994,0.294,-0.227,43.395,-2.258,-11.108,1
3.440809,0.979,0.301,-0.232,36.315,-1.77,-11.535,1
3.450467,1.0,0.307,-0.227,27.038,-1.281,-11.84,1
3.457961,1.059,0.312,-0.224,22.949,-1.708,-12.329,1
3.466618,1.121,0.326,-0.208,27.526,-2.197,-12.756,1
3.475814,1.153,0.341,-0.192,42.358,-3.601,-13.0,1
3.482149,1.173,0.343,-0.158,58.532,-4.394,-13.732,1
3.491194,1.186,0.354,-0.166,72.265,-3.234,-13.977,1
3.498783,1.169,0.38,-0.16,79.284,-3.54,-15.075,1
3.508234,1.148,0.382,-0.174,81.115,-1.831,-16.235,1
3.515585,1.118,0.416,-0.179,70.983,-0.732,-18.493,1
3.524055,1.132,0.433,-0.194,57.861,0.671,-19.897,1
3.531401,1.135,0.494,-0.189,44.433,1.464,-22.277,1
3.540393,1.155,0.537,-0.192,40.283,1.281,-24.23,1
3.547878,1.19,0.576,-0.166,45.776,-0.366,-26.245,1
3.557579,1.196,0.612,-0.173,65.063,-2.136,-28.198,1
3.564391,1.168,0.654,-0.124,98.266,-6.042,-30.578,1
3.573403,1.155,0.655,-0.139,125.122,-7.812,-32.104,1
3.580733,1.186,0.665,-0.105,138.549,-8.117,-34.362,1
3.588113,1.113,0.667,-0.104,127.014,-7.629,-36.926,1
3.597117,1.14,0.667,-0.052,99.731,-2.197,-39.062,1
3.604586,1.202,0.694,-0.062,61.035,-0.366,-41.687,1
3.613933,1.188,0.745,-0.025,17.822,7.873,-43.823,1
3.620956,1.18,0.865,0.013,-11.718,9.582,-47.119,1
3.629795,1.143,0.985,0.055,-14.038,13.854,-52.124,1
3.638684,1.054,1.126,0.089,15.747,13.732,-59.326,1
3.644659,1.038,1.187,0.097,53.71,15.014,-66.406,1
3.652047,0.984,1.227,0.095,83.862,15.502,-74.584,1
3.661166,0.92,1.223,0.091,100.891,18.493,-82.397,1
3.669098,0.865,1.227,0.084,98.022,22.705,-90.881,1
3.676558,0.795,1.23,0.082,86.303,28.015,-99.304,1
3.684146,0.727,1.221,0.103,74.096,33.996,-108.764,1
3.692852,0.683,1.186,0.105,61.889,39.428,-116.516,1
3.700757,0.618,1.153,0.135,51.879,43.884,-124.084,1
3.706393,0.61,1.117,0.156,43.09,50.231,-131.042,1
3.715227,0.549,1.129,0.185,49.621,54.565,-139.892,1
3.724313,0.445,1.06,0.208,60.852,60.424,-148.254,1
3.73215,0.329,0.994,0.227,59.204,67.016,-155.395,1
3.739939,0.235,0.92,0.256,50.781,74.951,-162.048,1
3.747528,0.099,0.845,0.286,33.63,85.693,-169.067,1
3.756351,-0.023,0.78,0.316,15.624,95.947,-174.743,1
3.763166,-0.11,0.718,0.323,-3.723,104.858,-180.419,1
3.770126,-0.235,0.663,0.359,-20.202,113.891,-185.546,1
3.779084,-0.387,0.627,0.412,-23.925,121.398,-190.612,1
3.787902,-0.49,0.537,0.435,-11.84,130.676,-196.228,1
3.796506,-0.646,0.412,0.469,3.723,140.991,-200.622,1
3.804056,-0.748,0.281,0.475,20.629,150.512,-202.941,1
3.81292,-0.849,0.104,0.495,47.302,163.757,-203.552,1
3.821406,-0.89,-0.081,0.442,57.922,176.757,-201.354,1
3.829002,-1.015,-0.309,0.391,44.555,191.955,-194.946,1
3.837512,-1.082,-0.453,0.283,17.944,211.547,-186.767,1
3.845021,-1.205,-0.563,0.163,-15.319,225.341,-179.931,1
3.853336,-1.268,-0.658,0.022,-50.659,240.905,-172.302,1
3.862044,-1.408,-0.722,-0.129,-67.321,249.389,-165.893,1
3.869779,-1.414,-0.792,-0.237,-65.979,258.911,-156.86,1
3.878177,-1.424,-0.93,-0.369,-56.823,261.596,-148.132,1
3.886778,-1.48,-1.06,-0.482,-46.02,268.127,-135.498,1
3.894186,-1.559,-1.175,-0.576,-45.959,270.69,-123.718,1
3.903372,-1.603,-1.241,-0.691,-37.597,277.16,-108.764,1
3.911433,-1.737,-1.287,-0.815,-38.024,279.541,-93.383,1
3.920865,-1.807,-1.302,-0.934,-37.902,282.409,-78.979,1
3.929919,-1.94,-1.282,-0.995,-29.113,283.569,-65.002,1
3.937376,-2.058,-1.279,-1.062,-13.488,283.874,-53.1,1
3.946882,-2.132,-1.279,-1.124,0.61,283.325,-38.269,1
3.95618,-2.191,-1.272,-1.184,15.197,282.165,-23.071,1
3.965104,-2.265,-1.261,-1.221,27.099,281.25,-7.019,1
3.973856,-2.139,-1.311,-1.249,45.104,283.081,10.375,1
3.980435,-2.199,-1.354,-1.243,41.625,275.146,28.198,1
3.9881,-2.263,-1.359,-1.27,39.306,276.0,45.898,1
3.996479,-2.331,-1.385,-1.271,37.841,272.399,63.72,1
4.00556,-2.306,-1.352,-1.276,41.076,271.118,86.425,1
4.014684,-2.365,-1.348,-1.229,51.452,267.028,111.328,1
4.021925,-2.321,-1.159,-1.073,80.2,261.291,135.131,1
4.029144,-2.391,-1.3,-1.097,179.321,258.789,165.527,1
4.037334,-2.283,-1.515,-1.467,237.426,240.722,197.082,1
4.045866,-2.628,-1.619,-1.387,271.362,238.525,235.351,1
4.055149,-2.958,-1.62,-1.53,287.475,219.36,279.846,1
4.062858,-3.287,-1.591,-1.502,328.063,206.054,321.594,1
4.070557,-3.445,-1.608,-1.775,378.417,175.17,370.727,1
4.079306,-3.816,-1.623,-1.825,419.372,143.188,422.302,1
4.087676,-4.106,-1.62,-1.912,436.767,106.384,466.674,1
4.095547,-4.462,-1.598,-1.978,445.19,68.725,511.169,1
4.104593,-4.85,-1.543,-2.057,455.749,16.601,559.753,1
4.113244,-5.388,-1.433,-2.066,480.895,-34.912,598.388,1
4.121074,-6.038,-1.324,-2.099,517.517,-102.05,637.817,1
4.12968,-6.751,-1.231,-2.061,540.161,-176.757,671.081,1
4.137141,-7.359,-1.093,-1.999,550.415,-243.53,694.213,1
4.145597,-8.166,-0.908,-1.903,562.194,-325.195,712.585,1
4.154745,-9.123,-0.729,-1.822,575.073,-409.423,721.862,1
4.161897,-9.995,-0.602,-1.744,578.796,-480.468,721.801,1
4.171802,-11.049,-0.427,-1.681,564.819,-547.363,714.172,1
4.178769,-12.127,-0.185,-1.598,533.691,-620.849,696.227,1
4.187991,-12.77,-0.004,-1.512,494.445,-685.974,671.508,1
4.194907,-13.591,0.301,-1.321,469.055,-739.379,645.568,1
4.203451,-14.231,0.565,-1.054,461.181,-797.851,609.741,1
4.211949,-14.785,0.834,-0.833,471.069,-851.379,572.143,1
4.219172,-15.278,0.958,-0.52,496.032,-911.682,521.484,1
4.227593,-15.846,1.056,-0.223,529.663,-962.341,471.435,1
4.235506,-15.996,1.119,0.144,555.603,-1005.493,417.602,1
4.243762,-15.999,1.113,0.485,556.701,-1044.921,354.431,1
4.251201,-15.999,1.093,0.9,531.921,-1066.772,304.626,1
4.259986,-15.999,1.245,1.374,500.793,-1081.176,259.399,1
4.268268,-15.999,1.52,1.837,494.873,-1092.468,205.078,1
4.274916,-15.999,1.765,2.152,524.78,-1101.562,140.441,1
4.282328,-15.999,2.035,2.397,589.233,-1101.623,86.242,1
4.289722,-15.999,2.327,2.581,723.754,-1092.59,1.892,1
4.298637,-15.999,2.144,2.613,846.008,-1073.974,-102.05,1
4.306271,-15.999,1.739,2.71,877.624,-1038.574,-216.857,1
4.315532,-15.423,1.349,2.767,898.986,-979.003,-340.209,1
4.324542,-13.801,0.666,2.652,910.095,-902.099,-445.556,1
4.333469,-12.792,0.266,2.73,852.111,-797.363,-527.343,1
4.339886,-11.986,0.011,2.581,742.004,-709.838,-579.895,1
4.347571,-11.092,-0.186,2.564,617.37,-623.107,-614.44,1
4.356336,-10.511,-0.31,2.519,462.158,-536.56,-637.023,1
4.365961,-9.987,-0.392,2.506,353.576,-474.792,-643.92,1
4.373103,-9.504,-0.455,2.529,296.386,-416.931,-642.578,1
4.380773,-8.571,-0.726,2.547,286.743,-369.201,-637.084,1
4.390299,-7.959,-1.151,2.557,276.733,-324.401,-630.188,1
4.399715,-7.086,-1.677,2.608,216.369,-273.925,-615.844,1
4.407003,-6.442,-1.999,2.711,161.865,-224.853,-595.092,1
4.41475,-5.862,-2.312,2.809,122.741,-188.842,-574.646,1
4.42255,-5.482,-2.536,2.858,76.843,-149.719,-547.912,1
4.430541,-5.066,-2.645,2.937,52.307,-122.985,-523.071,1
4.439837,-4.717,-2.669,2.994,52.246,-98.571,-497.131,1
4.448865,-4.376,-2.723,3.052,72.326,-72.387,-460.632,1
4.457197,-3.791,-2.713,2.881,94.055,-46.63,-430.541,1
4.465596,-3.337,-2.901,2.979,131.286,-27.77,-400.634,1
4.472876,-3.028,-2.903,2.867,174.255,-5.981,-364.501,1
4.481314,-2.647,-2.939,2.807,213.134,14.343,-332.702,1
4.489382,-2.287,-2.935,2.651,232.788,36.743,-299.194,1
4.498286,-2.067,-2.854,2.512,232.116,61.828,-260.253,1
4.506363,-1.85,-2.698,2.312,222.106,84.228,-221.435,1
4.51674,-1.707,-2.5,2.142,217.285,101.928,-189.27,1
4.5232,-1.564,-2.285,1.934,210.388,118.713,-153.198,1
4.531012,-1.5,-2.081,1.777,206.176,133.3,-119.201,1
4.540788,-1.438,-1.88,1.595,204.467,142.089,-92.468,1
4.548305,-1.364,-1.663,1.415,203.613,151.489,-63.11,1
4.557557,-1.287,-1.465,1.233,199.523,156.616,-40.222,1
4.565661,-1.221,-1.32,1.106,192.687,161.621,-15.869,1
4.573317,-1.161,-1.165,0.975,183.471,164.978,5.859,1
4.581082,-1.124,-1.041,0.881,176.696,166.748,22.46,1
4.589027,-1.083,-0.92,0.791,169.738,167.846,37.841,1
4.598075,-1.051,-0.809,0.701,158.508,167.541,53.649,1
4.607499,-0.995,-0.707,0.628,147.033,167.053,67.504,1
4.615177,-0.93,-0.621,0.576,139.648,164.916,77.697,1
4.622852,-0.82,-0.528,0.535,136.108,161.376,88.378,1
4.632222,-0.715,-0.433,0.507,139.343,157.104,96.374,1
4.640027,-0.617,-0.354,0.504,150.573,150.512,104.431,1
4.647972,-0.526,-0.268,0.501,165.954,144.226,111.511,1
4.655555,-0.521,-0.2,0.512,181.457,138.0,116.516,1
4.66353,-0.446,-0.145,0.518,194.702,132.446,121.093,1
4.671388,-0.412,-0.071,0.546,202.392,126.464,126.342,1
4.680339,-0.403,-0.031,0.554,203.613,122.375,130.187,1
4.688342,-0.377,-0.019,0.584,199.035,118.713,133.605,1
4.696172,-0.325,-0.018,0.598,185.241,116.455,137.207,1
4.704185,-0.227,-0.022,0.611,165.832,115.234,139.526,1
4.711233,-0.096,-0.013,0.62,142.15,114.99,141.784,1
4.720106,0.0,0.007,0.625,118.896,114.746,142.7,1
4.726398,0.077,0.031,0.613,98.876,114.257,143.005,1
4.734734,0.139,0.064,0.609,85.754,114.013,142.028,1
4.742398,0.201,0.098,0.609,80.139,111.694,139.953,1
4.749671,0.233,0.132,0.604,81.726,109.68,137.756,1
4.757011,0.254,0.164,0.605,86.547,106.567,134.765,1
4.766185,0.276,0.189,0.601,95.397,103.698,131.835,1
4.773177,0.289,0.197,0.583,104.98,99.975,128.417,1
4.780334,0.324,0.192,0.572,113.281,96.435,125.244,1
4.790194,0.376,0.185,0.563,119.201,92.651,122.802,1
4.798335,0.462,0.174,0.556,123.229,89.294,120.178,1
4.804568,0.536,0.162,0.551,123.413,87.219,117.797,1
4.811482,0.567,0.156,0.547,119.75,86.486,115.6,1
4.819918,0.606,0.146,0.544,111.206,85.937,113.464,1
4.827079,0.641,0.156,0.55,101.379,86.12,112.304,1
4.835923,0.658,0.177,0.541,89.294,87.219,110.168,1
4.84463,0.673,0.215,0.546,84.533,87.158,107.91,1
4.851916,0.691,0.239,0.537,86.425,86.669,104.553,1
4.860145,0.71,0.265,0.533,91.674,85.998,101.989,1
4.867875,0.745,0.27,0.523,99.121,84.655,98.876,1
4.87416,0.782,0.277,0.52,109.741,83.312,96.191,1
4.882366,0.804,0.281,0.513,121.215,81.604,93.627,1
4.890584,0.816,0.277,0.501,131.652,79.956,91.308,1
4.897457,0.824,0.26,0.476,137.268,78.918,88.989,1
4.906946,0.841,0.242,0.464,132.995,79.101,87.463,1
4.914181,0.887,0.24,0.429,122.802,79.833,86.059,1
4.922522,0.94,0.252,0.408,112.243,80.505,84.838,1
4.928615,0.965,0.276,0.381,104.919,80.627,83.435,1
4.936198,0.969,0.298,0.355,98.449,80.383,81.604,1
4.944197,0.969,0.312,0.337,91.918,81.298,79.284,1
4.951183,0.972,0.334,0.327,86.242,80.749,76.232,1
4.959955,0.954,0.362,0.328,84.289,80.688,72.692,1
4.966443,0.939,0.378,0.32,84.106,80.871,68.603,1
4.973751,0.911,0.376,0.313,82.214,80.871,64.758,1
4.982077,0.891,0.363,0.298,75.805,81.604,60.974,1
4.988785,0.895,0.335,0.285,64.453,82.885,57.067,1
4.996084,0.901,0.316,0.269,51.025,84.35,53.71,1
5.004315,0.893,0.3,0.252,38.513,86.059,50.842,1
5.012891,0.886,0.285,0.231,28.198,87.707,48.278,1
5.020097,0.903,0.266,0.209,19.897,89.233,45.532,1
5.026999,0.913,0.262,0.189,15.38,90.515,42.846,1
5.034224,0.915,0.252,0.175,14.343,91.369,40.161,1
5.041773,0.921,0.241,0.155,15.747,92.407,37.048,1
5.049011,0.924,0.231,0.137,19.775,92.651,34.729,1
5.057975,0.916,0.215,0.126,26.0,93.017,32.653,1
5.065797,0.895,0.202,0.093,31.372,93.627,29.968,1
5.073453,0.914,0.176,0.065,33.142,94.421,28.015,1
5.080994,0.923,0.148,0.02,32.47,95.581,26.123,1
5.088456,0.916,0.124,-0.008,28.625,96.984,24.047,1
5.097719,0.912,0.106,-0.053,24.963,98.144,22.399,1
5.105601,0.898,0.099,-0.066,15.441,99.304,20.446,1
5.112768,0.923,0.126,-0.083,11.352,98.876,18.615,1
5.120101,0.959,0.167,-0.061,18.066,96.862,17.456,1
5.129065,0.988,0.199,-0.055,33.935,93.627,16.723,1
5.136052,0.981,0.214,-0.046,52.734,90.026,16.601,1
5.145281,0.943,0.227,-0.035,70.678,87.463,16.601,1
5.153678,0.944,0.225,-0.06,86.425,84.045,16.54,1
5.161603,0.94,0.231,-0.078,98.51,81.604,16.601,1
5.169701,0.958,0.23,-0.114,111.755,78.186,17.028,1
5.177091,0.941,0.226,-0.154,120.666,75.317,16.906,1
5.18419,0.885,0.231,-0.174,121.276,74.157,16.845,1
5.191697,0.956,0.245,-0.2,124.023,73.913,15.93,1
5.201319,0.966,0.26,-0.223,126.953,72.326,14.343,1
5.20877,0.931,0.28,-0.255,131.896,71.228,11.84,1
5.21634,0.905,0.303,-0.27,137.146,69.458,10.192,1
5.225115,0.879,0.314,-0.291,147.888,67.504,8.666,1
5.232378,0.883,0.318,-0.305,158.691,64.514,7.629,1
5.240073,0.904,0.326,-0.324,172.607,62.316,6.591,1
5.248368,0.916,0.323,-0.335,183.654,59.509,6.103,1
5.257986,0.923,0.327,-0.341,191.467,57.495,5.737,1
5.26562,0.879,0.333,-0.337,191.65,56.823,5.065,1
5.273104,0.836,0.32,-0.34,178.833,57.861,5.004,1
5.282106,0.83,0.318,-0.348,160.156,59.02,5.065,1
5.29152,0.838,0.326,-0.355,137.939,59.509,4.15,1
5.298933,0.841,0.337,-0.37,120.3,59.082,3.234,1
5.306824,0.829,0.351,-0.387,110.717,58.288,2.38,1
5.315391,0.833,0.358,-0.403,106.872,57.128,1.525,1
5.323246,0.832,0.363,-0.427,107.727,55.358,0.427,1
5.331089,0.859,0.361,-0.444,114.196,52.429,-0.854,1
5.338686,0.867,0.361,-0.448,124.999,50.292,-1.892,1
5.347024,0.863,0.346,-0.445,139.16,47.607,-2.929,1
5.356255,0.88,0.326,-0.431,155.7,45.654,-3.845,1
5.363515,0.906,0.309,-0.426,165.771,44.311,-4.333,1
5.372129,0.909,0.3,-0.414,170.837,43.701,-4.577,1
5.380445,0.912,0.298,-0.412,169.006,44.494,-5.065,1
5.389104,0.9,0.289,-0.419,164.611,44.738,-5.31,1
5.396431,0.887,0.288,-0.37,152.526,46.325,-5.31,1
5.405465,0.907,0.28,-0.401,134.826,46.386,-5.126,1
5.414128,0.883,0.291,-0.376,116.21,47.973,-5.371,1
5.421881,0.867,0.299,-0.385,99.06,47.851,-5.92,1
5.428675,0.87,0.3,-0.379,83.19,48.522,-6.408,1
5.437947,0.885,0.304,-0.384,73.608,47.729,-6.958,1
5.446385,0.88,0.309,-0.382,69.274,47.912,-7.568,1
5.453629,0.884,0.313,-0.396,70.678,45.654,-8.544,1
5.461881,0.899,0.312,-0.398,79.956,44.067,-9.094,1
5.470528,0.928,0.308,-0.403,92.346,41.931,-9.765,1
5.477485,0.942,0.303,-0.404,106.201,41.137,-10.131,1
5.486512,0.953,0.297,-0.408,119.934,40.283,-10.681,1
5.494165,0.922,0.289,-0.415,123.901,40.771,-11.047,1
5.502411,0.921,0.293,-0.404,123.168,40.832,-11.535,1
5.510834,0.92,0.288,-0.409,119.812,42.358,-11.657,1
5.521612,0.911,0.296,-0.419,109.374,43.334,-12.573,1
5.528452,0.88,0.309,-0.422,97.717,45.043,-13.122,1
5.537286,0.887,0.3,-0.43,87.097,44.982,-14.16,1
5.544511,0.879,0.307,-0.426,82.214,45.471,-14.465,1
5.554293,0.885,0.321,-0.438,83.007,44.677,-15.197,1
5.560648,0.899,0.324,-0.421,87.768,44.128,-15.991,1
5.568401,0.894,0.314,-0.441,92.773,44.433,-16.845,1
5.577829,0.864,0.301,-0.445,92.529,43.64,-17.15,1
5.585275,0.856,0.285,-0.468,86.791,44.86,-17.578,1
5.594424,0.826,0.269,-0.474,78.247,46.142,-18.188,1
5.601548,0.824,0.256,-0.5,69.641,47.79,-18.92,1
5.609335,0.811,0.242,-0.506,58.349,48.95,-19.042,1
5.618445,0.836,0.238,-0.531,48.461,49.987,-19.348,1
5.625411,0.84,0.243,-0.532,45.227,50.537,-20.019,1
5.633519,0.844,0.24,-0.548,49.011,50.903,-20.874,1
5.641708,0.853,0.235,-0.55,56.701,50.598,-21.179,1
5.649781,0.887,0.229,-0.568,67.443,50.17,-21.362,1
5.658148,0.881,0.21,-0.588,77.758,48.95,-21.24,1
5.666243,0.871,0.194,-0.613,82.031,48.034,-20.874,1
5.673563,0.835,0.174,-0.638,80.749,48.339,-20.446,1
5.68235,0.85,0.145,-0.665,70.861,48.339,-19.714,1
5.691131,0.879,0.134,-0.682,57.983,48.645,-18.676,1
5.698227,0.909,0.141,-0.704,44.555,48.339,-17.883,1
5.707271,0.898,0.149,-0.714,32.165,47.546,-17.822,1
5.716682,0.875,0.149,-0.74,25.939,45.898,-17.7,1
5.723682,0.882,0.157,-0.749,29.235,43.823,-17.333,1
5.732887,0.907,0.152,-0.763,38.452,41.381,-17.578,1
5.739909,0.912,0.141,-0.762,50.781,38.452,-17.333,1
5.748818,0.903,0.128,-0.763,56.213,36.193,-16.906,1
5.758358,0.897,0.119,-0.757,55.358,33.996,-16.174,1
5.766525,0.877,0.13,-0.746,50.048,32.531,-15.869,1
5.773019,0.862,0.144,-0.737,44.494,31.066,-15.38,1
5.781894,0.852,0.154,-0.729,40.161,29.785,-15.319,1
5.789761,0.857,0.151,-0.729,35.583,28.198,-14.953,1
5.799029,0.857,0.146,-0.731,30.761,27.16,-14.892,1
5.806345,0.853,0.142,-0.74,22.521,25.878,-14.648,1
5.814056,0.851,0.138,-0.734,15.563,24.902,-14.526,1
5.823099,0.845,0.135,-0.736,9.46,23.071,-14.404,1
5.831046,0.85,0.122,-0.729,5.676,21.85,-14.404,1
5.839077,0.856,0.111,-0.716,4.028,19.836,-13.977,1
5.846853,0.859,0.113,-0.706,5.065,17.7,-13.305,1
5.854012,0.853,0.117,-0.695,8.666,16.113,-12.878,1
5.861902,0.839,0.127,-0.68,13.0,14.282,-12.634,1
5.87026,0.831,0.128,-0.668,17.211,12.451,-11.962,1
5.877392,0.839,0.138,-0.667,19.897,11.23,-11.779,1
5.886203,0.839,0.133,-0.663,22.155,9.338,-11.474,1
5.893989,0.843,0.138,-0.659,22.888,8.117,-11.169,1
5.901357,0.844,0.135,-0.66,22.094,6.835,-10.864,1
5.910395,0.844,0.135,-0.653,20.019,5.432,-10.437,1
5.917637,0.852,0.128,-0.647,18.981,3.54,-9.887,1
5.925515,0.86,0.13,-0.634,20.507,1.831,-9.277,1
5.933284,0.863,0.126,-0.628,23.498,-0.122,-8.85,1
5.941931,0.857,0.137,-0.61,27.832,-1.525,-8.056,1
5.949253,0.836,0.143,-0.594,31.799,-3.234,-7.568,1
5.95829,0.812,0.156,-0.588,36.315,-4.882,-7.141,1
5.967427,0.791,0.162,-0.586,38.635,-5.493,-6.896,1
5.973262,0.796,0.167,-0.596,39.123,-6.286,-6.835,1
5.981608,0.788,0.173,-0.604,39.672,-7.141,-6.958,1
5.9898,0.782,0.172,-0.616,40.71,-7.934,-6.774,1
5.998473,0.802,0.168,-0.625,40.771,-9.155,-6.713,1
6.005908,0.815,0.163,-0.627,39.123,-9.887,-6.652,1
6.014899,0.816,0.16,-0.617,36.254,-10.314,-6.469,1
6.023607,0.813,0.165,-0.604,34.973,-10.742,-6.164,1
6.031388,0.807,0.162,-0.591,34.301,-10.925,-5.981,1
6.040066,0.803,0.165,-0.573,33.02,-11.23,-5.615,1
6.049354,0.807,0.166,-0.563,31.555,-11.169,-5.371,1
6.058182,0.812,0.165,-0.56,30.395,-11.23,-5.065,1
6.066242,0.817,0.166,-0.551,28.991,-11.047,-4.821,1
6.074759,0.831,0.165,-0.544,25.451,-10.681,-4.272,1
6.081837,0.844,0.164,-0.539,21.484,-10.925,-3.601,1
6.089771,0.846,0.171,-0.523,18.432,-10.803,-3.479,1
6.098889,0.839,0.18,-0.52,16.906,-10.62,-2.868,1
6.108198,0.842,0.178,-0.505,16.906,-10.498,-2.38,1
6.116154,0.847,0.183,-0.494,16.906,-10.437,-1.403,1
6.123633,0.849,0.187,-0.484,15.808,-10.009,-0.549,1
6.132647,0.846,0.196,-0.475,13.427,-9.399,-0.183,1
6.141795,0.841,0.203,-0.471,9.765,-8.85,0.427,1
6.149492,0.836,0.21,-0.464,6.469,-7.934,1.037,1
6.157136,0.839,0.212,-0.462,4.211,-7.995,1.342,1
6.164951,0.835,0.218,-0.459,3.54,-7.08,1.77,1
6.172451,0.836,0.223,-0.456,2.502,-6.958,2.014,1
6.181417,0.832,0.226,-0.451,2.441,-6.347,2.502,1
6.18948,0.842,0.232,-0.447,0.854,-5.859,2.868,1
6.197255,0.83,0.241,-0.433,0.488,-4.882,3.051,1
6.206388,0.821,0.242,-0.429,1.098,-4.577,2.929,1
6.214023,0.829,0.244,-0.421,1.77,-3.845,2.99,1
6.223033,0.833,0.243,-0.416,2.014,-2.929,2.868,1
6.232099,0.836,0.241,-0.406,2.38,-2.319,2.99,1
6.239061,0.841,0.246,-0.397,3.662,-1.953,3.051,1
6.247494,0.849,0.241,-0.396,5.004,-1.647,2.746,1
6.25467,0.862,0.239,-0.391,5.676,-1.22,2.685,1
6.263525,0.867,0.238,-0.393,5.981,-0.671,2.685,1
6.272088,0.885,0.243,-0.389,6.53,-0.244,2.563,1
6.279026,0.901,0.248,-0.388,6.225,0.061,2.258,1
6.286803,0.911,0.255,-0.387,6.591,0.61,2.258,1
6.295977,0.916,0.268,-0.382,7.568,0.671,2.014,1
6.303514,0.93,0.277,-0.379,9.521,1.098,1.525,1
6.312253,0.935,0.287,-0.375,12.145,1.525,1.281,1
6.318943,0.943,0.3,-0.365,14.465,2.197,0.183,1
6.327518,0.951,0.31,-0.355,17.089,2.319,-0.427,1
6.336315,0.962,0.309,-0.348,19.775,3.234,-1.403,1
6.34387,0.967,0.306,-0.343,21.545,3.662,-2.319,1
6.352985,0.982,0.309,-0.338,22.033,4.028,-3.295,1
6.359567,0.997,0.309,-0.33,20.507,4.821,-4.333,1
6.367256,1.013,0.305,-0.321,17.578,5.737,-5.249,1
6.374497,1.027,0.315,-0.319,15.014,6.835,-6.286,1
6.382007,1.034,0.324,-0.318,14.038,7.202,-7.568,1
6.389086,1.042,0.339,-0.315,14.953,7.507,-8.605,1
6.397715,1.034,0.36,-0.316,18.371,7.69,-9.826,1
6.405115,1.052,0.371,-0.318,23.62,7.629,-11.291,1
6.414078,1.043,0.382,-0.326,30.334,7.385,-12.878,1
6.42126,1.036,0.389,-0.332,37.597,7.019,-14.587,1
6.432419,1.036,0.395,-0.33,43.823,6.835,-16.296,1
6.440042,1.03,0.397,-0.342,48.706,6.164,-18.188,1
6.449196,1.044,0.387,-0.345,51.208,5.676,-20.324,1
6.458482,1.071,0.383,-0.344,51.147,4.943,-22.094,1
6.466056,1.089,0.377,-0.335,51.086,4.455,-23.437,1
6.473193,1.097,0.373,-0.335,51.696,3.906,-24.475,1
6.480315,1.096,0.376,-0.335,52.551,3.54,-25.695,1
6.488901,1.091,0.371,-0.341,52.917,2.868,-26.855,1
6.495899,1.083,0.373,-0.341,52.795,2.868,-27.954,1
6.504826,1.083,0.379,-0.348,51.818,2.563,-29.418,1
6.511545,1.092,0.39,-0.363,50.415,1.953,-31.066,1
6.519754,1.091,0.401,-0.372,49.804,0.976,-32.409,1
6.529048,1.085,0.42,-0.381,49.865,0.061,-34.423,1
6.537057,1.093,0.428,-0.39,49.865,-1.22,-36.132,1
6.545409,1.072,0.438,-0.391,51.452,-2.624,-38.085,1
6.553897,1.057,0.445,-0.391,54.809,-3.906,-39.733,1
6.562458,1.024,0.453,-0.392,60.852,-4.638,-41.625,1
6.569695,0.978,0.444,-0.385,64.697,-5.859,-43.273,1
6.578615,0.946,0.429,-0.385,66.162,-6.286,-45.104,1
6.586254,0.937,0.429,-0.387,66.04,-7.019,-46.813,1
6.595359,0.944,0.427,-0.392,64.331,-7.141,-48.767,1
6.603489,0.985,0.421,-0.4,59.387,-7.263,-50.109,1
6.611362,1.041,0.407,-0.404,50.598,-7.324,-51.452,1
6.61873,1.096,0.387,-0.415,37.719,-6.896,-52.429,1
6.627542,1.144,0.352,-0.453,21.362,-5.676,-53.222,1
6.636133,1.178,0.327,-0.468,-2.319,-4.577,-53.955,1
6.645037,1.245,0.319,-0.524,-31.066,-3.356,-54.626,1
6.652205,1.288,0.301,-0.565,-58.837,-1.037,-54.809,1
6.661438,1.256,0.312,-0.603,-81.054,-1.464,-55.419,1
6.670702,1.214,0.355,-0.604,-92.346,-3.234,-55.786,1
6.680843,1.113,0.387,-0.597,-86.73,-8.3,-55.786,1
6.68745,1.025,0.395,-0.595,-65.795,-13.977,-54.992,1
6.696213,0.942,0.481,-0.583,-24.902,-19.897,-56.457,1
6.704207,0.864,0.52,-0.58,21.057,-27.221,-59.631,1
6.712408,0.818,0.52,-0.587,77.026,-32.836,-63.781,1
6.720155,0.773,0.515,-0.587,111.145,-37.353,-67.871,1
6.731335,0.744,0.484,-0.607,131.835,-39.123,-73.303,1
6.738672,0.765,0.423,-0.589,126.22,-38.513,-78.308,1
6.74604,0.775,0.399,-0.568,104.736,-36.682,-82.519,1
6.753947,0.766,0.393,-0.524,88.012,-35.278,-86.425,1
6.763178,0.778,0.306,-0.512,71.96,-34.423,-88.5,1
6.770725,0.863,0.32,-0.453,57.067,-31.494,-90.087,1
6.779569,0.872,0.358,-0.424,59.204,-34.79,-92.834,1
6.787771,0.839,0.341,-0.366,74.462,-34.79,-94.909,1
6.796593,0.838,0.33,-0.328,85.693,-36.804,-96.435,1
6.80579,0.825,0.309,-0.275,89.782,-34.729,-96.984,1
6.8148,0.786,0.271,-0.216,82.397,-33.569,-97.412,1
6.821368,0.752,0.248,-0.175,63.049,-28.198,-96.801,1
6.829959,0.725,0.231,-0.135,34.912,-23.376,-96.313,1
6.837197,0.686,0.242,-0.099,3.479,-16.662,-96.191,1
6.847457,0.647,0.274,-0.062,-24.536,-11.047,-96.862,1
6.856135,0.605,0.335,-0.02,-33.996,-4.516,-98.083,1
6.865073,0.597,0.371,0.016,-25.268,0.0,-99.975,1
6.873866,0.589,0.388,0.045,-8.3,3.906,-102.172,1
6.880804,0.503,0.403,0.091,8.85,8.972,-106.079,1
6.889408,0.442,0.402,0.123,30.273,12.756,-111.328,1
6.895799,0.382,0.384,0.146,50.537,17.333,-116.333,1
6.904378,0.338,0.315,0.148,60.302,22.766,-121.093,1
6.911585,0.251,0.25,0.158,59.204,28.625,-124.877,1
6.918975,0.234,0.202,0.17,54.077,36.132,-128.906,1
6.927218,0.201,0.146,0.214,54.199,43.579,-132.751,1
6.935016,0.137,0.065,0.256,59.204,52.49,-136.352,1
6.944048,0.074,-0.005,0.283,67.565,61.279,-138.122,1
6.952297,0.014,-0.097,0.302,85.205,72.265,-138.732,1
6.962287,-0.025,-0.182,0.312,101.562,82.214,-137.573,1
6.970139,-0.082,-0.291,0.308,115.417,94.787,-134.338,1
6.978211,-0.145,-0.386,0.285,119.445,107.482,-129.577,1
6.985366,-0.227,-0.485,0.244,114.868,122.436,-122.436,1
6.9957,-0.307,-0.581,0.184,105.285,136.596,-114.99,1
7.004097,-0.379,-0.653,0.138,91.308,151.916,-104.98,1
7.012095,-0.423,-0.733,0.07,72.937,167.358,-94.055,1
7.02079,-0.45,-0.816,-0.027,50.598,179.748,-84.411,1
7.02934,-0.539,-0.883,-0.111,20.568,195.434,-71.411,1
7.03809,-0.62,-0.921,-0.189,4.821,205.383,-62.194,1
7.046528,-0.706,-0.958,-0.286,-1.708,214.66,-53.405,1
7.055095,-0.848,-0.996,-0.358,-3.723,224.853,-41.259,1
7.063505,-0.993,-1.023,-0.458,1.586,231.567,-30.822,1
7.072114,-1.145,-1.054,-0.502,8.117,237.792,-20.935,1
7.079912,-1.265,-1.075,-0.57,21.85,242.004,-9.216,1
7.089195,-1.423,-1.114,-0.604,43.151,246.643,4.333,1
7.098036,-1.601,-1.195,-0.682,49.011,251.281,17.944,1
7.105799,-1.877,-1.273,-0.741,40.588,258.056,31.127,1
7.115409,-2.169,-1.33,-0.783,22.216,267.7,48.034,1
7.123669,-2.354,-1.366,-0.818,13.122,277.526,65.979,1
7.13235,-2.499,-1.42,-0.867,22.521,285.034,87.646,1
7.140579,-2.565,-1.444,-0.947,44.738,288.574,112.731,1
7.147508,-2.691,-1.46,-1.005,64.941,290.405,137.817,1
7.15533,-2.889,-1.515,-1.101,64.514,291.442,168.945,1
7.164867,-3.004,-1.544,-1.157,43.212,297.607,197.937,1
7.172901,-3.11,-1.578,-1.254,11.596,298.461,231.445,1
7.180409,-3.224,-1.571,-1.277,-7.08,303.161,261.169,1
7.189542,-3.419,-1.489,-1.29,-16.174,302.49,295.654,1
7.198876,-3.73,-1.426,-1.291,-1.342,302.978,331.054,1
7.206265,-4.219,-1.346,-1.264,28.869,299.621,362.548,1
7.215282,-4.589,-1.334,-1.349,77.148,292.968,403.503,1
7.223119,-5.032,-1.322,-1.431,137.39,283.02,449.707,1
7.232279,-5.477,-1.333,-1.581,191.711,267.456,492.004,1
7.239617,-5.938,-1.317,-1.679,250.427,242.492,544.799,1
7.248463,-6.536,-1.211,-1.799,321.777,203.43,599.792,1
7.255645,-7.186,-1.037,-1.886,406.311,157.653,646.972,1
7.264847,-7.806,-0.871,-1.963,497.436,98.327,694.213,1
7.271696,-8.604,-0.666,-2.014,590.698,14.404,746.276,1
7.280693,-9.356,-0.504,-2.009,641.418,-68.237,784.667,1
7.288349,-10.168,-0.342,-1.949,655.395,-154.846,814.88,1
7.296295,-11.121,-0.147,-1.835,642.15,-256.591,837.707,1
7.305292,-12.0,0.034,-1.727,619.445,-343.444,846.618,1
7.313258,-13.086,0.258,-1.574,591.186,-427.185,846.313,1
7.321753,-14.054,0.46,-1.409,550.537,-519.042,836.181,1
7.329922,-15.201,0.693,-1.202,511.901,-604.98,817.443,1
7.338237,-15.999,0.905,-1.015,486.083,-672.973,793.64,1
7.346211,-15.999,1.111,-0.714,446.228,-745.056,760.131,1
7.352984,-15.999,1.295,-0.436,416.564,-801.391,731.079,1
7.360893,-15.999,1.506,-0.124,420.471,-861.511,700.622,1
7.370228,-15.999,1.597,0.252,458.496,-924.072,665.344,1
7.377513,-15.999,1.761,0.717,514.221,-997.07,616.577,1
7.38628,-15.999,1.769,1.121,580.81,-1062.133,556.701,1
7.392912,-15.999,1.764,1.526,616.943,-1110.29,498.229,1
7.401346,-15.999,1.846,1.974,642.578,-1149.597,433.837,1
7.410232,-15.999,2.095,2.446,688.354,-1181.518,359.924,1
7.417618,-15.999,2.457,2.927,757.385,-1202.087,254.15,1
7.425956,-15.999,2.792,3.257,857.971,-1209.899,145.629,1
7.436056,-15.999,2.79,3.346,1032.714,-1205.505,-8.789,1
7.442652,-15.999,2.59,3.183,1223.571,-1176.147,-192.565,1
7.451613,-15.999,1.99,2.874,1283.569,-1111.145,-353.759,1
7.458216,-15.999,1.295,2.617,1202.697,-1011.413,-494.14,1
7.467284,-15.999,0.673,2.254,1052.368,-894.714,-601.501,1
7.47562,-14.798,0.257,2.292,806.152,-760.131,-681.396,1
7.484834,-13.681,0.099,2.241,577.758,-644.836,-719.36,1
7.491767,-12.779,0.105,2.275,442.687,-553.344,-732.971,1
7.499582,-12.4,0.125,2.207,381.53,-491.699,-738.952,1
7.508698,-12.084,0.033,2.285,341.674,-434.936,-740.417,1
7.517952,-11.639,-0.17,2.325,315.368,-383.911,-738.281,1
7.5248,-10.55,-0.678,2.341,285.766,-326.477,-732.421,1
7.532434,-9.851,-1.017,2.322,224.609,-276.062,-718.2,1
7.540474,-9.166,-1.187,2.412,188.232,-238.22,-700.317,1
7.54906,-8.297,-1.32,2.523,201.965,-206.481,-681.945,1
7.557074,-7.913,-1.639,2.458,223.51,-170.227,-662.109,1
7.565718,-7.39,-1.939,2.539,221.374,-125.732,-635.559,1
7.574757,-6.683,-2.195,2.494,227.783,-97.839,-610.9,1
7.583456,-6.029,-2.329,2.466,263.122,-58.898,-577.575,1
7.590989,-5.585,-2.441,2.342,290.832,-29.663,-548.584,1
7.598729,-5.185,-2.618,2.21,318.908,7.995,-511.413,1
7.608437,-4.728,-2.704,2.003,324.035,36.926,-478.271,1
7.614982,-4.602,-2.658,1.777,325.744,66.589,-436.523,1
7.624045,-3.776,-2.65,1.606,309.875,90.942,-405.883,1
7.632948,-3.423,-2.509,1.375,301.513,118.835,-358.886,1
7.641767,-3.17,-2.386,1.079,294.494,131.713,-318.908,1
7.648968,-2.93,-2.244,0.973,295.043,145.202,-285.339,1
7.658696,-2.637,-2.141,0.723,287.231,151.855,-253.54,1
7.667821,-2.486,-2.055,0.612,273.559,163.146,-217.102,1
7.674115,-2.301,-1.95,0.427,251.892,168.029,-182.556,1
7.683266,-2.143,-1.85,0.354,235.534,173.339,-154.663,1
7.690771,-1.948,-1.716,0.234,216.308,173.645,-128.295,1
7.698334,-1.788,-1.594,0.185,200.134,174.133,-99.792,1
7.707134,-1.574,-1.481,0.104,191.406,170.471,-77.209,1
7.716408,-1.423,-1.405,0.08,186.035,166.137,-52.429,1
7.725515,-1.247,-1.321,0.027,179.26,159.729,-29.968,1
7.732829,-1.123,-1.243,-0.001,172.058,154.357,-12.084,1
7.742129,-1.035,-1.166,-0.024,158.325,146.728,8.972,1
7.749383,-0.989,-1.108,-0.027,148.437,141.174,22.888,1
7.758047,-0.958,-1.041,-0.023,138.793,134.765,37.292,1
7.766988,-0.922,-0.993,-0.02,132.446,129.943,48.706,1
7.775933,-0.859,-0.956,-0.029,125.732,124.084,60.729,1
7.783416,-0.785,-0.924,-0.026,119.567,118.347,72.631,1
7.79186,-0.674,-0.899,-0.037,113.342,111.572,83.374,1
7.799428,-0.564,-0.853,-0.028,110.229,104.919,91.857,1
7.807123,-0.472,-0.799,-0.012,111.267,97.9,99.731,1
7.816196,-0.393,-0.728,0.013,118.591,89.538,106.628,1
7.825437,-0.324,-0.656,0.061,136.962,77.758,114.135,1
7.834583,-0.27,-0.605,0.094,155.212,68.481,118.896,1
7.842201,-0.29,-0.565,0.125,173.889,58.959,123.535,1
7.849929,-0.232,-0.551,0.156,182.373,51.696,127.258,1
7.85821,-0.165,-0.529,0.193,183.837,45.532,131.225,1
7.86619,-0.127,-0.509,0.238,179.077,40.954,134.277,1
7.87338,-0.056,-0.487,0.294,173.217,36.926,137.207,1
7.882649,0.033,-0.476,0.344,168.457,32.958,140.93,1
7.889874,0.137,-0.462,0.396,167.785,28.991,144.47,1
7.898737,0.269,-0.459,0.449,167.907,24.902,148.62,1
7.906436,0.354,-0.471,0.511,167.175,21.606,152.282,1
7.91415,0.402,-0.489,0.548,161.682,20.385,154.785,1
7.923148,0.443,-0.504,0.565,148.681,19.958,156.677,1
7.930594,0.498,-0.503,0.589,131.53,20.263,157.348,1
7.937741,0.537,-0.472,0.606,116.455,20.874,157.531,1
7.944903,0.564,-0.425,0.638,112.731,20.874,157.47,1
7.953116,0.562,-0.369,0.659,115.722,20.385,156.921,1
7.962066,0.492,-0.35,0.674,120.605,19.592,156.799,1
7.9677,0.443,-0.294,0.689,124.938,19.958,156.616,1
7.97641,0.493,-0.277,0.715,125.732,19.958,156.005,1
7.985564,0.488,-0.25,0.699,127.929,21.423,155.029,1
7.993347,0.435,-0.235,0.728,129.699,22.888,153.564,1
7.998981,0.38,-0.24,0.689,131.286,24.414,152.099,1
8.006677,0.389,-0.234,0.684,125.488,25.695,150.39,1
8.015792,0.383,-0.243,0.663,115.051,29.052,149.108,1
8.023072,0.412,-0.258,0.632,99.121,30.883,147.399,1
8.030912,0.467,-0.26,0.607,89.477,34.606,145.935,1
8.038466,0.537,-0.244,0.586,81.909,36.254,144.714,1
8.045912,0.565,-0.215,0.591,82.336,39.855,143.432,1
8.053197,0.554,-0.187,0.561,83.984,41.259,141.662,1
8.061806,0.501,-0.164,0.572,87.646,44.372,140.075,1
8.069397,0.476,-0.145,0.538,88.867,46.325,137.817,1
8.076806,0.496,-0.117,0.55,95.642,48.156,135.986,1
8.085708,0.493,-0.12,0.507,100.28,49.743,134.277,1
8.092031,0.42,-0.123,0.507,100.708,51.208,132.385,1
8.101152,0.446,-0.148,0.45,94.177,54.077,130.31,1
8.10879,0.504,-0.142,0.452,85.205,56.64,129.028,1
8.11556,0.541,-0.146,0.4,77.941,59.814,127.807,1
8.123197,0.507,-0.143,0.375,71.228,61.462,126.831,1
8.131523,0.536,-0.152,0.307,65.673,65.124,126.037,1
8.138359,0.574,-0.156,0.275,60.607,66.833,124.877,1
8.145602,0.595,-0.169,0.234,58.776,69.213,124.45,1
8.155089,0.635,-0.171,0.187,57.739,69.763,123.474,1
8.163204,0.561,-0.199,0.139,48.522,72.387,121.826,1
8.170898,0.599,-0.23,0.113,27.893,76.293,122.741,1
8.178223,0.568,-0.223,0.094,4.089,78.43,123.901,1
8.186369,0.469,-0.177,0.116,-11.047,82.519,124.999,1
8.194721,0.445,-0.161,0.019,-3.845,82.336,125.061,1
8.201241,0.335,-0.169,0.118,5.859,87.585,126.647,1
8.210082,0.31,-0.188,0.025,6.835,85.144,127.746,1
8.217683,0.302,-0.185,0.082,9.277,88.317,130.065,1
8.226631,0.376,-0.203,0.012,4.76,86.181,132.507,1
8.2341,0.414,-0.213,0.052,2.746,90.27,135.742,1
8.242662,0.482,-0.221,-0.003,-3.295,88.378,138.732,1
8.250795,0.51,-0.208,0.055,-2.197,92.224,143.188,1
8.259101,0.567,-0.191,0.019,1.831,90.698,147.033,1
8.266274,0.539,-0.161,0.056,14.77,95.275,150.39,1
8.273897,0.526,-0.137,0.007,25.451,94.177,153.137,1
8.283294,0.459,-0.108,0.035,41.625,98.876,157.104,1
8.291477,0.403,-0.092,0.02,50.354,98.937,160.034,1
8.299553,0.357,-0.083,0.012,55.48,103.82,162.719,1
8.307489,0.327,-0.088,-0.015,53.771,104.309,165.405,1
8.314368,0.306,-0.084,-0.011,50.537,109.68,168.029,1
8.322838,0.312,-0.09,-0.043,41.32,110.412,171.02,1
8.329545,0.296,-0.09,-0.047,31.86,115.661,173.828,1
8.336925,0.295,-0.091,-0.067,18.798,117.187,176.574,1
8.345626,0.299,-0.082,-0.068,6.53,122.924,180.847,1
8.354261,0.304,-0.068,-0.091,-3.906,124.755,184.082,1
8.361486,0.289,-0.053,-0.079,-7.751,129.76,188.232,1
8.369397,0.288,-0.031,-0.1,-8.666,131.225,192.26,1
8.378523,0.279,-0.009,-0.094,-0.488,135.314,196.838,1
8.385531,0.264,0.008,-0.119,10.437,135.375,201.232,1
8.393827,0.21,0.029,-0.113,30.883,137.146,206.665,1
8.402767,0.108,0.046,-0.123,50.17,135.559,211.364,1
8.409433,0.106,0.056,-0.131,75.988,134.826,217.773,1
8.418103,0.075,0.06,-0.146,94.299,131.469,223.571,1
8.42784,0.037,0.069,-0.17,110.046,129.211,230.59,1
8.436153,-0.027,0.09,-0.18,116.271,125.488,238.098,1
8.442694,-0.096,0.121,-0.22,115.112,123.107,244.934,1
8.450225,-0.2,0.156,-0.237,106.079,119.812,250.61,1
8.459464,-0.285,0.228,-0.271,94.97,117.248,255.187,1
8.466565,-0.394,0.327,-0.285,83.007,113.708,257.568,1
8.474674,-0.475,0.428,-0.333,72.875,111.877,260.559,1
8.483638,-0.585,0.557,-0.355,67.749,108.825,261.901,1
8.490988,-0.695,0.71,-0.418,68.237,106.689,262.207,1
8.498215,-0.781,0.84,-0.437,75.256,101.074,261.413,1
8.506125,-0.795,0.934,-0.491,84.594,95.947,260.62,1
8.515482,-0.776,1.018,-0.504,91.979,90.637,259.948,1
8.522739,-0.772,1.122,-0.565,93.566,85.021,258.3,1
8.529893,-0.784,1.215,-0.585,87.28,80.383,256.164,1
8.53865,-0.808,1.329,-0.629,79.956,75.805,253.417,1
8.545903,-0.839,1.463,-0.636,75.378,70.251,248.718,1
8.554337,-0.854,1.548,-0.668,73.73,65.734,243.896,1
8.562151,-0.871,1.614,-0.661,70.007,61.34,238.891,1
8.569215,-0.828,1.665,-0.671,65.429,58.349,233.215,1
8.579155,-0.792,1.688,-0.671,59.02,54.687,227.661,1
8.586061,-0.718,1.706,-0.666,50.048,51.818,221.13,1
8.594507,-0.662,1.725,-0.655,41.625,48.706,214.782,1
8.603578,-0.628,1.739,-0.65,37.109,46.813,209.716,1
8.610952,-0.613,1.755,-0.642,33.264,43.945,203.857,1
8.619545,-0.594,1.767,-0.64,30.334,41.931,198.73,1
8.626423,-0.584,1.776,-0.634,27.893,39.245,193.176,1
8.635388,-0.568,1.773,-0.615,29.296,36.376,188.415,1
8.642203,-0.547,1.763,-0.594,36.01,32.592,182.983,1
8.650032,-0.54,1.755,-0.59,39.367,30.029,178.649,1
8.658722,-0.534,1.756,-0.594,34.79,27.77,174.682,1
8.666454,-0.51,1.76,-0.584,25.939,25.756,169.433,1
8.675067,-0.489,1.751,-0.571,19.287,23.437,164.855,1
8.68312,-0.464,1.731,-0.543,19.165,22.216,160.217,1
8.691827,-0.431,1.69,-0.514,24.841,19.287,154.724,1
8.69922,-0.429,1.645,-0.481,34.606,16.723,150.939,1
8.708627,-0.412,1.574,-0.446,46.508,13.366,146.484,1
8.715712,-0.398,1.518,-0.424,53.161,11.84,143.554,1
8.723682,-0.411,1.473,-0.427,48.339,10.681,140.869,1
8.731277,-0.416,1.446,-0.416,31.372,11.23,137.512,1
8.73902,-0.419,1.432,-0.409,15.563,11.596,134.887,1
8.747892,-0.339,1.437,-0.375,7.934,11.23,130.92,1
8.755705,-0.358,1.401,-0.345,16.784,10.314,128.417,1
8.76375,-0.418,1.354,-0.326,27.832,7.873,126.403,1
8.771112,-0.423,1.317,-0.284,42.419,5.187,124.45,1
8.78085,-0.405,1.258,-0.247,62.438,1.464,123.107,1
8.789158,-0.403,1.204,-0.198,91.308,-1.403,123.046,1
8.796422,-0.45,1.172,-0.229,102.905,-3.234,122.741,1
8.805393,-0.378,1.156,-0.213,98.754,-3.417,121.948,1
8.812535,-0.482,1.156,-0.218,79.528,-2.38,121.398,1
8.820182,-0.522,1.178,-0.207,46.386,-0.061,120.178,1
8.827927,-0.545,1.198,-0.192,22.521,1.892,118.957,1
8.836593,-0.565,1.219,-0.173,7.629,3.906,117.553,1
8.844713,-0.588,1.206,-0.157,-0.488,5.065,116.149,1
8.853138,-0.61,1.128,-0.164,-9.033,5.981,116.394,1
8.861919,-0.418,1.08,-0.146,-44.738,8.3,120.849,1
8.872085,-0.529,0.989,-0.122,-46.386,9.765,120.666,1
8.88064,-0.755,1.037,-0.119,-37.78,12.634,121.276,1
8.888348,-0.852,1.076,-0.122,-28.32,11.535,120.483,1
8.895768,-0.874,1.166,-0.119,-12.39,14.221,118.53,1
8.90321,-0.879,1.214,-0.11,7.446,11.535,115.173,1
8.911657,-0.855,1.198,-0.132,25.756,12.573,112.67,1
8.918759,-0.83,1.195,-0.131,32.958,9.887,109.863,1
8.927312,-0.82,1.194,-0.128,37.658,10.681,107.421,1
8.934488,-0.862,1.195,-0.13,37.963,9.643,104.858,1
8.941602,-0.895,1.187,-0.121,35.705,11.047,102.294,1
8.950373,-0.911,1.175,-0.118,28.198,11.779,99.975,1
8.957393,-0.938,1.168,-0.109,18.371,14.465,98.266,1
8.965053,-0.921,1.157,-0.107,11.047,15.319,95.764,1
8.972794,-0.839,1.115,-0.097,7.69,17.761,93.872,1
8.981151,-0.914,1.121,-0.077,-9.704,20.263,91.796,1
8.988127,-0.929,1.131,-0.084,-16.174,21.484,90.209,1
8.996064,-0.925,1.122,-0.071,-25.268,22.949,87.768,1
9.003517,-0.879,1.136,-0.068,-35.461,25.756,85.205,1
9.014695,-0.875,1.14,-0.066,-32.592,25.39,81.298,1
9.022532,-0.843,1.103,-0.064,-24.841,25.878,77.758,1
9.029876,-0.796,1.088,-0.052,-12.939,24.475,74.096,1
9.039097,-0.768,1.053,-0.048,1.953,23.803,70.434,1
9.046949,-0.751,1.02,-0.037,13.549,22.583,68.298,1
9.055411,-0.615,0.776,-0.092,-0.915,23.01,71.228,1
9.063421,-0.591,0.864,-0.049,-13.854,24.902,66.894,1
9.072862,-0.651,0.857,-0.059,-28.808,26.916,64.392,1
9.080771,-0.733,0.914,-0.111,-36.743,29.846,61.645,1
9.089461,-0.787,0.888,-0.052,-40.344,30.517,59.509,1
9.098674,-0.75,0.779,-0.128,-56.579,32.348,61.828,1
9.106351,-0.63,0.822,-0.079,-56.701,32.287,56.945,1
9.113794,-0.743,0.812,-0.083,-52.734,34.362,55.908,1
9.122461,-0.806,0.797,-0.093,-44.311,33.264,55.114,1
9.131542,-0.817,0.815,-0.048,-22.827,32.897,53.588,1
9.140709,-0.857,0.814,-0.057,-2.624,30.578,52.185,1
9.14819,-0.775,0.806,-0.044,32.897,29.785,50.048,1
9.157022,-0.813,0.754,-0.045,52.734,27.038,50.17,1
9.167411,-0.996,0.739,-0.07,50.415,27.832,50.292,1
9.173615,-0.925,0.804,-0.053,56.274,26.428,48.461,1
9.181255,-0.897,0.788,-0.047,58.715,26.55,47.18,1
9.190609,-0.872,0.772,-0.045,53.955,26.794,45.41,1
9.198302,-0.808,0.741,-0.033,49.621,26.916,43.457,1
9.207454,-0.85,0.736,-0.031,43.029,28.137,41.992,1
9.215157,-0.871,0.731,-0.045,30.029,28.991,39.855,1
9.224489,-0.835,0.712,-0.049,7.629,31.066,37.841,1
9.231919,-0.946,0.726,-0.05,-15.747,33.081,35.705,1
9.240578,-0.968,0.73,-0.048,-37.719,34.423,33.874,1
9.248248,-0.996,0.764,-0.05,-48.767,35.827,31.555,1
9.258164,-0.975,0.75,-0.033,-57.495,35.644,29.724,1
9.267174,-0.906,0.711,-0.063,-58.105,35.522,27.038,1
9.274477,-1.0,0.748,-0.028,-49.194,34.484,25.756,1
9.281963,-0.96,0.742,-0.069,-42.602,31.555,23.376,1
9.291517,-0.993,0.791,-0.027,-32.043,31.555,21.24,1
9.298631,-0.951,0.791,-0.052,-19.47,27.77,18.005,1
9.307134,-0.908,0.767,-0.036,-8.789,27.16,15.991,1
9.316171,-0.874,0.734,-0.043,-1.037,23.498,13.305,1
9.324074,-0.872,0.73,-0.04,6.469,22.705,10.925,1
9.332771,-0.88,0.721,-0.038,9.704,20.69,8.85,1
9.340155,-0.882,0.706,-0.036,12.756,20.629,7.263,1
9.349729,-0.875,0.694,-0.035,13.671,18.737,4.76,1
9.357523,-0.867,0.673,-0.041,14.953,18.249,3.234,1
9.365252,-0.857,0.661,-0.034,15.747,17.15,1.77,1
9.374093,-0.835,0.656,-0.038,18.005,16.479,-0.122,1
9.383202,-0.831,0.648,-0.033,20.141,15.502,-2.136,1
9.392132,-0.718,0.599,-0.061,16.662,15.014,-4.455,1
9.400095,-0.853,0.617,-0.033,10.253,15.197,-5.065,1
9.407637,-0.828,0.599,-0.037,9.338,12.939,-7.629,1
9.414834,-0.924,0.625,-0.039,11.596,14.282,-8.422,1
9.422725,-0.915,0.62,-0.059,14.465,12.207,-10.07,1
9.431944,-0.89,0.604,-0.04,14.77,12.329,-11.474,1
9.440941,-0.863,0.572,-0.048,10.498,11.352,-13.183,1
9.449921,-0.869,0.559,-0.045,7.385,11.779,-13.61,1
9.457428,-0.878,0.557,-0.047,2.746,10.803,-14.526,1
9.46653,-0.877,0.555,-0.05,-0.549,11.108,-15.258,1
9.474004,-0.863,0.544,-0.048,-3.54,10.009,-15.93,1
9.482925,-0.839,0.528,-0.05,-4.821,9.46,-16.479,1
9.491382,-0.819,0.516,-0.05,-5.432,8.361,-16.784,1
9.498497,-0.81,0.503,-0.058,-5.798,7.69,-16.662,1
9.507274,-0.815,0.491,-0.059,-5.981,6.469,-16.662,1
9.514524,-0.801,0.48,-0.064,-5.554,5.187,-16.235,1
9.52139,-0.79,0.471,-0.061,-5.31,4.211,-16.052,1
9.530395,-0.784,0.467,-0.065,-4.272,3.112,-15.686,1
9.538991,-0.785,0.457,-0.06,-3.784,1.281,-14.953,1
9.547561,-0.79,0.449,-0.068,-4.211,0.244,-14.282,1
9.556433,-0.797,0.441,-0.068,-5.981,-0.854,-13.488,1
9.565949,-0.803,0.44,-0.072,-7.812,-1.953,-12.268,1
9.572723,-0.803,0.448,-0.066,-7.568,-3.051,-11.596,1
9.582147,-0.805,0.456,-0.067,-2.868,-4.577,-10.62,1
9.588985,-0.81,0.457,-0.064,3.662,-6.164,-9.704,1
9.598907,-0.8,0.453,-0.071,10.681,-8.3,-8.911,1
9.606907,-0.804,0.445,-0.076,15.686,-9.826,-7.751,1
9.614598,-0.833,0.449,-0.079,19.348,-12.145,-6.835,1
9.623884,-0.839,0.446,-0.076,23.132,-13.549,-5.859,1
9.63162,-0.822,0.441,-0.07,27.221,-15.624,-5.065,1
9.639838,-0.808,0.436,-0.069,29.602,-17.15,-4.089,1
9.647242,-0.809,0.429,-0.062,29.907,-18.432,-3.417,1
9.656422,-0.825,0.425,-0.063,28.625,-19.226,-2.563,1
9.664072,-0.847,0.424,-0.063,25.329,-20.202,-1.403,1
9.673045,-0.868,0.425,-0.058,21.484,-20.935,-0.366,1
9.68101,-0.875,0.429,-0.055,18.371,-21.728,0.854,1
9.690377,-0.873,0.433,-0.049,16.174,-22.705,2.075,1
9.698114,-0.875,0.441,-0.047,14.831,-23.498,3.112,1
9.704953,-0.892,0.454,-0.049,14.221,-24.536,3.967,1
9.712821,-0.908,0.463,-0.042,14.343,-25.634,4.577,1
9.722427,-0.907,0.467,-0.046,15.075,-26.367,5.065,1
9.729488,-0.899,0.472,-0.04,16.357,-27.526,5.126,1
9.738839,-0.89,0.475,-0.032,17.639,-28.198,5.737,1
9.745268,-0.893,0.481,-0.031,19.287,-28.869,5.92,1
9.754325,-0.905,0.484,-0.026,21.179,-29.724,6.164,1
9.762382,-0.929,0.492,-0.032,22.216,-30.334,6.286,1
9.770436,-0.941,0.497,-0.03,22.644,-30.456,6.53,1
9.778446,-0.946,0.492,-0.035,22.46,-31.066,6.53,1
9.786963,-0.943,0.493,-0.041,22.216,-31.249,6.713,1
9.794468,-0.952,0.49,-0.04,21.179,-31.799,6.958,1
9.80274,-0.976,0.499,-0.041,20.385,-31.921,7.202,1
9.810814,-0.988,0.5,-0.042,20.812,-32.409,7.507,1
9.818274,-0.953,0.5,-0.033,22.46,-32.714,7.568,1
9.82745,-0.908,0.486,-0.027,25.939,-33.386,7.934,1
9.834482,-0.869,0.476,-0.025,29.418,-33.569,8.361,1
9.843162,-0.849,0.474,-0.023,33.081,-34.118,8.605,1
9.853606,-0.836,0.473,-0.023,37.17,-34.24,8.789,1
9.86087,-0.829,0.473,-0.025,41.137,-34.912,8.85,1
9.869723,-0.832,0.477,-0.023,44.616,-35.095,8.666,1
9.877269,-0.826,0.479,-0.024,48.278,-35.4,8.605,1
9.88616,-0.815,0.474,-0.024,50.903,-35.461,8.3,1
9.895052,-0.813,0.475,-0.019,51.635,-34.729,7.812,1
9.902112,-0.826,0.475,-0.018,51.208,-33.996,7.568,1
9.910958,-0.85,0.476,-0.02,48.889,-33.447,7.202,1
9.920273,-0.854,0.475,-0.014,46.874,-32.409,6.958,1
9.92699,-0.834,0.471,-0.007,45.288,-31.433,6.469,1
9.936168,-0.824,0.467,-0.006,43.518,-30.09,6.103,1
9.944959,-0.831,0.468,-0.011,39.489,-28.991,5.798,1
9.952496,-0.849,0.464,-0.023,35.644,-27.587,5.249,1
9.960654,-0.867,0.464,-0.032,30.334,-26.306,4.943,1
9.968369,-0.866,0.467,-0.037,25.329,-25.512,4.943,1
9.976956,-0.856,0.465,-0.039,20.996,-25.085,4.577,1
9.985768,-0.851,0.463,-0.047,18.371,-24.23,4.15,1
9.992777,-0.856,0.468,-0.047,17.7,-24.353,4.028,1
