timestamp_s,ax,ay,az,gx,gy,gz,label
0.006483,0.348,0.333,-0.217,-117.065,-51.269,-100.708,1
0.01532,0.319,0.3,-0.195,-116.333,-53.161,-98.266,1
0.021662,0.331,0.255,-0.175,-119.079,-54.26,-96.191,1
0.029834,0.306,0.246,-0.148,-122.253,-55.236,-93.933,1
0.036407,0.254,0.237,-0.139,-121.459,-55.419,-91.857,1
0.045717,0.23,0.232,-0.121,-114.44,-56.579,-88.623,1
0.052312,0.269,0.228,-0.12,-100.891,-56.518,-84.96,1
0.059492,0.454,0.257,-0.066,-81.97,-55.725,-83.435,1
0.067311,0.475,0.24,-0.119,-68.237,-54.992,-80.81,1
0.075479,0.387,0.234,-0.139,-67.138,-55.358,-77.453,1
0.083532,0.368,0.237,-0.194,-72.509,-55.358,-75.439,1
0.090677,0.317,0.263,-0.222,-76.782,-56.762,-74.218,1
0.099144,0.334,0.263,-0.234,-73.974,-60.791,-71.716,1
0.106061,0.311,0.279,-0.174,-61.523,-61.218,-69.396,1
0.114688,0.061,0.265,-0.185,-49.621,-60.607,-65.917,1
0.122926,0.123,0.258,-0.171,-50.109,-61.584,-62.988,1
0.13093,0.422,0.223,-0.17,-60.546,-59.692,-61.889,1
0.138211,0.525,0.206,-0.132,-78.613,-59.02,-60.363,1
0.146659,0.541,0.221,-0.099,-93.688,-57.434,-58.776,1
0.154659,0.555,0.25,-0.077,-100.708,-56.762,-56.884,1
0.161345,0.593,0.259,-0.086,-96.252,-57.739,-55.908,1
0.169678,0.613,0.274,-0.073,-84.045,-58.715,-54.809,1
0.176453,0.623,0.29,-0.091,-64.819,-60.18,-53.588,1
0.184811,0.62,0.301,-0.101,-41.564,-63.293,-53.344,1
0.191928,0.609,0.307,-0.092,-15.38,-65.185,-53.894,1
0.198988,0.597,0.293,-0.073,6.347,-67.016,-54.321,1
0.20728,0.618,0.274,-0.032,22.277,-66.772,-54.87,1
0.215265,0.662,0.229,0.001,31.249,-66.04,-55.541,1
0.221901,0.731,0.184,0.036,30.944,-63.781,-55.603,1
0.228969,0.771,0.155,0.058,21.85,-59.997,-55.236,1
0.237178,0.782,0.115,0.059,4.394,-57.067,-54.87,1
0.244149,0.82,0.069,0.074,-13.183,-54.321,-54.504,1
0.252825,0.881,0.04,0.072,-39.123,-50.659,-52.246,1
0.259405,0.923,0.029,0.075,-55.419,-47.851,-50.415,1
0.266317,0.933,0.025,0.062,-72.753,-45.715,-48.339,1
0.274366,0.965,0.022,0.082,-85.815,-44.25,-46.264,1
0.281337,1.011,0.024,0.086,-91.125,-42.297,-43.823,1
0.289121,1.018,0.04,0.097,-87.707,-40.588,-41.503,1
0.298176,1.012,0.071,0.088,-78.674,-39.184,-39.916,1
0.305801,0.979,0.113,0.095,-64.514,-38.574,-38.818,1
0.314109,0.977,0.122,0.074,-48.645,-37.841,-38.33,1
0.321236,0.99,0.136,0.069,-37.658,-37.17,-38.024,1
0.328958,1.003,0.145,0.057,-28.381,-36.254,-38.391,1
0.335252,1.014,0.142,0.053,-21.362,-35.827,-38.696,1
0.343589,1.008,0.134,0.045,-17.456,-35.034,-39.55,1
0.350959,1.003,0.125,0.056,-15.319,-33.752,-39.733,1
0.359372,0.994,0.118,0.049,-16.113,-31.982,-39.367,1
0.365845,0.916,0.121,0.026,-17.456,-30.151,-39.794,1
0.374076,0.959,0.133,0.006,-20.507,-28.991,-39.916,1
0.38256,0.99,0.147,-0.041,-22.644,-27.648,-40.1,1
0.390118,0.985,0.142,-0.073,-25.024,-27.038,-40.893,1
0.398029,0.973,0.128,-0.114,-30.456,-27.709,-41.076,1
0.406479,0.981,0.164,-0.124,-34.851,-26.367,-40.527,1
0.413408,1.02,0.186,-0.187,-36.865,-27.038,-40.893,1
0.420403,1.027,0.21,-0.189,-37.414,-27.893,-41.137,1
0.428219,0.99,0.225,-0.223,-37.109,-28.564,-42.053,1
0.436869,0.963,0.242,-0.231,-35.705,-30.273,-43.09,1
0.443587,0.996,0.238,-0.273,-36.376,-29.846,-44.372,1
0.452017,0.963,0.243,-0.321,-46.264,-31.311,-45.654,1
0.459972,0.922,0.257,-0.354,-62.316,-32.47,-47.302,1
0.468449,0.886,0.292,-0.342,-69.885,-34.301,-48.522,1
0.475198,0.878,0.312,-0.357,-76.11,-36.193,-50.109,1
0.483477,0.832,0.343,-0.364,-75.317,-39.306,-51.757,1
0.491964,0.763,0.348,-0.388,-73.486,-43.457,-53.71,1
0.498542,0.754,0.354,-0.393,-72.448,-47.119,-55.48,1
0.507017,0.719,0.351,-0.427,-71.838,-51.086,-57.617,1
0.513642,0.67,0.344,-0.429,-72.143,-55.603,-60.119,1
0.520637,0.582,0.33,-0.44,-72.937,-59.997,-62.377,1
0.528746,0.541,0.321,-0.425,-76.049,-63.476,-64.331,1
0.536814,0.521,0.301,-0.432,-75.378,-67.871,-66.04,1
0.543876,0.438,0.278,-0.43,-78.857,-73.669,-68.054,1
0.552706,0.389,0.241,-0.414,-83.557,-78.552,-69.58,1
0.560029,0.356,0.235,-0.407,-88.989,-84.289,-70.678,1
0.568909,0.326,0.231,-0.398,-87.768,-88.989,-71.35,1
0.576111,0.307,0.211,-0.393,-84.411,-95.336,-72.326,1
0.582719,0.266,0.188,-0.368,-74.34,-100.708,-72.875,1
0.591754,0.356,0.147,-0.352,-58.105,-107.849,-72.937,1
0.598225,0.489,0.086,-0.336,-36.254,-114.807,-72.57,1
0.605954,0.568,0.032,-0.298,-11.108,-123.901,-71.777,1
0.615432,0.562,-0.008,-0.25,8.056,-130.615,-70.617,1
0.622365,0.446,-0.023,-0.179,22.949,-137.634,-69.519,1
0.630531,0.324,-0.05,-0.079,33.447,-143.737,-68.664,1
0.63763,0.261,-0.109,0.001,26.733,-147.277,-67.871,1
0.647013,0.217,-0.16,0.069,6.164,-149.047,-66.528,1
0.65367,0.188,-0.187,0.141,-18.066,-150.268,-64.758,1
0.66166,0.161,-0.185,0.198,-36.865,-152.282,-62.683,1
0.669969,0.175,-0.188,0.266,-40.1,-154.602,-60.852,1
0.678786,0.12,-0.204,0.348,-31.799,-157.592,-58.532,1
0.686345,0.086,-0.236,0.443,-9.216,-159.973,-55.847,1
0.695183,0.165,-0.269,0.524,16.723,-162.353,-54.687,1
0.702238,0.19,-0.323,0.615,39.55,-163.208,-54.443,1
0.709322,0.182,-0.373,0.68,51.757,-161.804,-54.504,1
0.716197,0.228,-0.428,0.753,50.659,-159.24,-54.809,1
0.725045,0.303,-0.48,0.84,42.785,-155.09,-54.565,1
0.731878,0.39,-0.518,0.929,30.273,-150.024,-53.833,1
0.738526,0.497,-0.543,1.01,13.0,-143.981,-52.307,1
0.746452,0.64,-0.525,1.085,0.549,-139.282,-50.72,1
0.754669,0.776,-0.537,1.16,-7.568,-134.948,-48.767,1
0.761753,0.983,-0.551,1.264,-1.77,-130.92,-46.508,1
0.769506,1.104,-0.577,1.367,13.916,-127.929,-44.372,1
0.776837,1.221,-0.609,1.457,26.672,-124.45,-42.663,1
0.783385,1.292,-0.637,1.538,35.644,-118.591,-40.283,1
0.79044,1.312,-0.652,1.603,37.841,-111.267,-37.902,1
0.799139,1.324,-0.641,1.641,38.635,-103.149,-35.339,1
0.80588,1.326,-0.622,1.652,40.893,-95.153,-33.02,1
0.813746,1.294,-0.597,1.648,41.32,-87.463,-31.555,1
0.820504,1.233,-0.551,1.643,42.907,-79.833,-30.578,1
0.829293,1.175,-0.51,1.627,45.959,-73.608,-30.517,1
0.83588,1.119,-0.483,1.615,48.156,-65.856,-30.7,1
0.842635,1.065,-0.471,1.582,43.518,-57.312,-31.127,1
0.850761,1.016,-0.45,1.543,33.996,-48.156,-31.799,1
0.85977,0.982,-0.412,1.503,27.404,-40.039,-32.836,1
0.866356,0.952,-0.38,1.469,27.221,-32.714,-33.813,1
0.875186,0.929,-0.381,1.412,26.184,-25.573,-34.912,1
0.882145,0.922,-0.39,1.36,19.531,-16.723,-35.888,1
0.89085,0.933,-0.382,1.304,11.84,-9.582,-36.865,1
0.899675,0.92,-0.364,1.259,9.155,-4.272,-37.109,1
0.906285,0.895,-0.329,1.214,14.648,1.525,-37.719,1
0.913131,0.884,-0.334,1.17,18.188,5.737,-38.574,1
0.921502,0.894,-0.335,1.133,17.7,10.559,-39.062,1
0.928429,0.877,-0.334,1.102,15.319,14.77,-39.489,1
0.935415,0.851,-0.334,1.079,12.512,19.592,-39.367,1
0.943714,0.821,-0.341,1.054,10.131,23.071,-39.855,1
0.950492,0.791,-0.346,1.032,7.385,26.977,-39.855,1
0.959153,0.764,-0.361,0.993,3.112,30.944,-39.855,1
0.966039,0.746,-0.384,0.952,-2.685,34.851,-39.794,1
0.973041,0.729,-0.386,0.894,-7.934,38.208,-39.611,1
0.980189,0.72,-0.38,0.853,-8.85,40.283,-39.306,1
0.988418,0.691,-0.375,0.818,-4.821,41.748,-39.062,1
0.995632,0.682,-0.386,0.781,-0.061,43.09,-39.184,1
1.002576,0.67,-0.405,0.745,0.793,44.616,-38.879,1
1.009711,0.657,-0.412,0.712,-1.342,46.02,-38.391,1
1.017661,0.638,-0.412,0.683,-4.15,47.485,-37.963,1
1.024869,0.619,-0.401,0.65,-5.187,48.583,-37.597,1
1.032733,0.618,-0.397,0.625,-4.699,49.194,-37.353,1
1.041264,0.611,-0.405,0.601,-6.225,50.17,-37.475,1
1.048028,0.608,-0.412,0.565,-10.253,51.269,-37.231,1
1.054761,0.631,-0.417,0.538,-15.808,52.185,-37.109,1
1.06264,0.632,-0.416,0.497,-20.751,53.161,-37.353,1
1.071637,0.634,-0.414,0.468,-23.376,53.588,-37.475,1
1.080107,0.63,-0.417,0.436,-24.475,53.405,-38.085,1
1.086734,0.628,-0.429,0.397,-24.475,53.283,-38.574,1
1.094534,0.641,-0.448,0.375,-24.719,52.612,-39.001,1
1.101003,0.645,-0.466,0.359,-24.353,52.001,-38.94,1
1.108724,0.648,-0.486,0.341,-23.437,51.391,-39.001,1
1.117003,0.662,-0.502,0.316,-23.132,51.025,-38.757,1
1.123673,0.679,-0.516,0.298,-23.071,49.926,-38.574,1
1.132521,0.686,-0.531,0.277,-22.338,48.95,-38.33,1
1.13874,0.695,-0.534,0.255,-21.85,47.424,-38.208,1
1.146981,0.698,-0.535,0.242,-22.033,45.837,-38.024,1
1.154339,0.703,-0.54,0.229,-22.277,44.189,-37.475,1
1.16135,0.705,-0.538,0.225,-21.118,42.236,-37.597,1
1.169528,0.712,-0.545,0.219,-19.958,40.344,-37.353,1
1.176049,0.715,-0.557,0.215,-20.812,38.391,-36.743,1
1.184265,0.717,-0.564,0.212,-23.315,36.743,-36.376,1
1.1908,0.731,-0.572,0.224,-23.925,35.156,-35.766,1
1.199005,0.728,-0.576,0.227,-22.705,33.386,-35.217,1
1.205649,0.737,-0.572,0.248,-18.798,31.127,-34.729,1
1.213826,0.733,-0.578,0.252,-15.441,28.808,-34.301,1
1.220122,0.729,-0.586,0.277,-13.61,26.977,-33.813,1
1.228546,0.739,-0.583,0.311,-11.596,25.024,-33.386,1
1.235926,0.728,-0.574,0.354,-7.568,23.071,-32.897,1
1.242806,0.714,-0.578,0.392,-4.089,21.728,-32.653,1
1.250508,0.714,-0.587,0.423,-3.295,20.568,-32.409,1
1.258747,0.716,-0.595,0.463,-2.929,19.958,-31.616,1
1.26666,0.714,-0.605,0.49,-2.868,19.653,-31.249,1
1.273255,0.72,-0.624,0.519,-1.953,19.531,-30.395,1
1.282019,0.734,-0.639,0.544,-1.708,19.653,-29.602,1
1.28987,0.748,-0.657,0.56,-2.197,19.958,-28.564,1
1.296898,0.761,-0.665,0.587,-1.098,20.446,-27.709,1
1.305434,0.748,-0.667,0.612,1.159,20.874,-26.733,1
1.312234,0.726,-0.671,0.635,3.173,21.606,-25.817,1
1.318641,0.706,-0.682,0.65,3.173,22.338,-25.085,1
1.326894,0.713,-0.698,0.667,3.051,23.559,-24.047,1
1.333168,0.713,-0.716,0.686,3.295,24.719,-23.498,1
1.340739,0.719,-0.714,0.705,5.004,26.55,-22.277,1
1.348191,0.677,-0.719,0.702,4.516,28.198,-20.568,1
1.356576,0.694,-0.722,0.713,4.455,29.541,-19.226,1
1.364579,0.726,-0.735,0.716,3.051,32.104,-17.639,1
1.372799,0.61,-0.694,0.729,8.056,32.897,-15.624,1
1.379432,0.721,-0.702,0.717,18.31,35.095,-14.221,1
1.387723,0.756,-0.724,0.686,15.075,37.536,-12.695,1
1.39443,0.653,-0.735,0.659,0.366,40.71,-11.535,1
1.40203,0.733,-0.73,0.662,-13.122,42.724,-11.108,1
1.409186,0.683,-0.697,0.677,-15.441,45.41,-9.948,1
1.417506,0.676,-0.687,0.67,-11.23,47.363,-9.338,1
1.425299,0.635,-0.68,0.653,-11.718,49.072,-8.85,1
1.433174,0.62,-0.682,0.63,-16.357,51.818,-8.117,1
1.441747,0.621,-0.678,0.62,-21.484,53.161,-7.507,1
1.448099,0.614,-0.666,0.604,-23.681,55.725,-6.591,1
1.456538,0.605,-0.647,0.579,-23.864,56.762,-5.92,1
1.464769,0.606,-0.635,0.565,-20.996,58.044,-5.554,1
1.47166,0.634,-0.636,0.541,-15.991,58.471,-5.004,1
1.479783,0.707,-0.664,0.522,-11.413,58.898,-4.15,1
1.48763,0.724,-0.651,0.539,-8.117,60.546,-2.929,1
1.494678,0.717,-0.631,0.503,0.122,60.058,-2.197,1
1.502684,0.734,-0.631,0.516,11.108,60.546,-1.098,1
1.50938,0.756,-0.643,0.499,17.456,60.913,0.0,1
1.516727,0.759,-0.647,0.485,17.578,61.523,0.854,1
1.524731,0.759,-0.637,0.457,14.038,63.171,2.197,1
1.53237,0.746,-0.611,0.437,13.122,63.659,3.417,1
1.538908,0.739,-0.575,0.408,16.723,63.842,4.15,1
1.547699,0.727,-0.543,0.376,21.057,63.293,4.699,1
1.553934,0.719,-0.515,0.353,25.024,63.11,4.943,1
1.561975,0.727,-0.475,0.327,27.709,62.133,4.882,1
1.568947,0.737,-0.441,0.309,32.775,62.072,4.455,1
1.575405,0.733,-0.396,0.28,39.367,61.035,3.54,1
1.582981,0.705,-0.36,0.246,43.945,60.302,2.319,1
1.590792,0.647,-0.321,0.201,42.785,59.875,0.732,1
1.599193,0.597,-0.276,0.165,36.926,58.837,-1.831,1
1.60787,0.574,-0.239,0.133,34.301,57.922,-4.699,1
1.614012,0.594,-0.207,0.092,36.682,56.213,-7.324,1
1.622709,0.535,-0.19,0.047,39.733,54.504,-9.826,1
1.630305,0.516,-0.187,-0.004,35.888,52.307,-13.305,1
1.637462,0.502,-0.199,-0.055,25.268,50.537,-17.089,1
1.645506,0.499,-0.196,-0.097,15.441,48.583,-20.141,1
1.653964,0.482,-0.184,-0.149,5.065,47.302,-23.071,1
1.661123,0.474,-0.173,-0.226,-5.981,44.433,-26.55,1
1.670017,0.462,-0.173,-0.28,-15.624,41.015,-29.968,1
1.676363,0.433,-0.191,-0.35,-23.01,36.926,-33.508,1
1.684887,0.388,-0.214,-0.403,-28.015,31.433,-37.536,1
1.691644,0.336,-0.253,-0.448,-29.724,26.245,-40.649,1
1.699953,0.301,-0.309,-0.488,-30.212,20.69,-43.09,1
1.70647,0.282,-0.374,-0.531,-28.564,16.113,-45.104,1
1.71462,0.25,-0.444,-0.551,-24.23,9.521,-46.63,1
1.721644,0.217,-0.513,-0.581,-21.667,2.99,-47.058,1
1.730084,0.158,-0.604,-0.63,-26.428,-3.356,-46.691,1
1.738403,0.114,-0.672,-0.669,-39.306,-10.864,-45.043,1
1.745081,0.049,-0.731,-0.7,-49.56,-17.578,-43.334,1
1.753739,-0.001,-0.786,-0.731,-55.969,-25.146,-40.893,1
1.762209,-0.092,-0.827,-0.771,-57.434,-33.142,-37.475,1
1.769331,-0.177,-0.879,-0.812,-59.509,-41.809,-33.386,1
1.776235,-0.296,-0.934,-0.862,-59.448,-50.415,-28.32,1
1.784526,-0.363,-0.989,-0.902,-58.898,-61.828,-21.911,1
1.791686,-0.462,-1.051,-0.931,-59.204,-71.35,-15.502,1
1.799487,-0.53,-1.124,-0.967,-61.889,-81.665,-8.056,1
1.807819,-0.639,-1.198,-1.006,-65.734,-92.041,0.671,1
1.814656,-0.699,-1.28,-1.062,-65.063,-104.064,10.498,1
1.822952,-0.806,-1.384,-1.102,-63.415,-116.577,21.606,1
1.829992,-0.91,-1.516,-1.158,-72.082,-129.638,34.179,1
1.838127,-1.059,-1.61,-1.182,-87.89,-141.723,48.95,1
1.846143,-1.317,-1.691,-1.205,-96.069,-157.592,67.321,1
1.854609,-1.426,-1.828,-1.207,-112.731,-172.851,85.815,1
1.861378,-1.58,-1.934,-1.193,-126.953,-185.729,107.421,1
1.869364,-1.837,-2.023,-1.169,-132.507,-200.988,130.737,1
1.87794,-2.109,-2.12,-1.104,-140.38,-214.66,156.86,1
1.885777,-2.41,-2.19,-1.054,-145.202,-228.942,185.424,1
1.892772,-2.781,-2.305,-0.967,-142.395,-243.164,216.186,1
1.900611,-3.248,-2.416,-0.928,-163.085,-256.53,249.572,1
1.907636,-3.716,-2.488,-0.788,-201.599,-267.883,293.396,1
1.916087,-4.275,-2.477,-0.654,-218.505,-276.55,334.594,1
1.924222,-4.794,-2.489,-0.471,-223.693,-283.813,378.601,1
1.93156,-5.352,-2.472,-0.252,-227.172,-286.56,425.537,1
1.939513,-6.217,-2.447,-0.005,-246.032,-284.79,474.365,1
1.948457,-6.886,-2.301,0.275,-278.747,-275.329,534.057,1
1.954903,-7.791,-2.137,0.516,-304.809,-258.728,587.402,1
1.963233,-8.587,-1.907,0.802,-317.565,-242.98,631.835,1
1.97161,-9.572,-1.687,1.058,-318.786,-211.303,695.068,1
1.978571,-10.569,-1.46,1.261,-319.152,-180.725,748.84,1
1.987067,-11.909,-1.167,1.436,-323.608,-143.066,801.757,1
1.995845,-13.21,-0.826,1.535,-330.871,-93.322,862.06,1
2.002475,-14.578,-0.415,1.615,-317.504,-48.461,910.461,1
2.010427,-15.954,0.001,1.628,-291.625,-3.112,954.833,1
2.018346,-15.999,0.465,1.58,-258.972,48.156,1002.136,1
2.025534,-15.999,0.836,1.548,-239.501,92.834,1039.428,1
2.032501,-15.999,1.204,1.489,-237.792,139.526,1072.998,1
2.040461,-15.999,1.652,1.403,-237.792,178.405,1097.473,1
2.048414,-15.999,2.125,1.362,-240.844,225.219,1120.788,1
2.056415,-15.999,2.67,1.292,-238.403,271.118,1136.596,1
2.06339,-15.999,3.226,1.274,-225.463,326.477,1147.094,1
2.071305,-15.999,3.53,1.214,-225.891,369.995,1150.817,1
2.078448,-15.999,3.644,1.189,-245.544,423.767,1151.672,1
2.086759,-15.999,3.614,1.0,-311.523,485.107,1151.916,1
2.094989,-15.999,3.68,0.851,-399.658,562.805,1146.24,1
2.101592,-15.999,3.744,0.586,-516.296,654.113,1131.225,1
2.109124,-15.999,3.867,0.227,-649.108,769.409,1101.928,1
2.116016,-15.999,4.033,-0.26,-765.014,871.582,1059.265,1
2.12393,-15.999,4.124,-1.043,-890.563,1005.126,994.75,1
2.131024,-15.999,4.2,-1.905,-1019.836,1116.455,888.366,1
2.13954,-15.999,4.173,-2.392,-1153.442,1215.637,740.539,1
2.146683,-15.999,4.01,-3.08,-1250.549,1286.315,557.251,1
2.154962,-15.999,3.73,-3.468,-1324.523,1325.134,350.28,1
2.161972,-15.999,3.026,-3.971,-1407.958,1344.604,136.901,1
2.169921,-15.999,2.154,-4.326,-1505.859,1304.931,-83.435,1
2.176799,-15.999,1.454,-3.916,-1514.587,1236.145,-292.602,1
2.185538,-15.999,1.123,-3.311,-1403.076,1118.713,-469.604,1
2.194417,-15.999,0.937,-2.853,-1168.212,952.636,-618.835,1
2.201046,-15.999,0.509,-2.189,-937.805,823.364,-697.143,1
2.209406,-15.999,-0.107,-2.17,-763.183,703.491,-741.394,1
2.21742,-15.843,-0.738,-2.188,-688.72,585.266,-766.479,1
2.224009,-14.292,-1.218,-2.137,-673.278,489.807,-775.39,1
2.23224,-13.106,-1.555,-1.934,-673.156,402.221,-774.536,1
2.241113,-11.898,-1.701,-1.776,-655.273,318.603,-765.624,1
2.248284,-10.818,-1.875,-1.64,-626.647,236.694,-747.802,1
2.255376,-9.754,-1.966,-1.451,-580.627,163.696,-722.29,1
2.265146,-8.915,-1.943,-1.312,-503.356,85.815,-685.058,1
2.273069,-7.938,-1.817,-1.124,-398.681,19.348,-644.958,1
2.2813,-7.112,-1.738,-0.942,-306.457,-27.404,-611.206,1
2.288348,-6.359,-1.722,-0.763,-230.529,-61.218,-579.345,1
2.296779,-5.615,-1.687,-0.574,-176.879,-87.097,-542.541,1
2.305836,-5.125,-1.599,-0.465,-150.695,-101.928,-512.451,1
2.313777,-4.741,-1.51,-0.333,-136.962,-113.769,-484.558,1
2.320969,-4.499,-1.487,-0.242,-134.704,-122.68,-452.453,1
2.329241,-4.16,-1.425,-0.163,-138.305,-130.126,-426.513,1
2.33782,-3.932,-1.3,-0.031,-111.206,-137.634,-396.545,1
2.344828,-3.654,-1.289,-0.034,-68.054,-144.104,-373.291,1
2.352002,-3.482,-1.289,0.008,-23.071,-148.254,-351.684,1
2.359777,-3.262,-1.386,-0.011,8.178,-149.047,-331.115,1
2.368086,-2.987,-1.43,0.012,28.32,-148.925,-311.828,1
2.37634,-2.799,-1.435,0.019,39.611,-144.287,-292.663,1
2.382489,-2.604,-1.456,0.001,34.545,-140.258,-274.536,1
2.389697,-2.468,-1.417,0.028,24.658,-132.995,-257.019,1
2.397944,-2.343,-1.391,0.014,10.803,-127.563,-240.417,1
2.406132,-2.2,-1.346,0.05,-1.159,-121.459,-224.914,1
2.414091,-2.065,-1.336,0.052,-12.573,-116.027,-210.021,1
2.420679,-1.984,-1.308,0.078,-23.01,-110.229,-195.556,1
2.429152,-1.868,-1.283,0.104,-26.55,-105.285,-181.457,1
2.437463,-1.767,-1.267,0.132,-21.484,-99.365,-165.71,1
2.446452,-1.683,-1.277,0.145,-17.15,-94.421,-152.893,1
2.453555,-1.548,-1.316,0.152,-17.395,-87.89,-137.634,1
2.460564,-1.424,-1.332,0.165,-16.845,-82.702,-124.938,1
2.468605,-1.343,-1.322,0.165,-11.779,-76.599,-112.854,1
2.477351,-1.199,-1.345,0.156,-8.483,-71.716,-100.952,1
2.48454,-1.137,-1.36,0.146,-9.948,-64.208,-89.904,1
2.491546,-1.059,-1.394,0.126,-18.493,-58.715,-79.467,1
2.500481,-0.954,-1.394,0.138,-22.399,-52.307,-68.847,1
2.508813,-0.875,-1.39,0.115,-18.188,-46.569,-57.556,1
2.515479,-0.826,-1.402,0.099,-15.136,-40.832,-48.4,1
2.524173,-0.776,-1.416,0.072,-18.249,-35.4,-39.55,1
2.532411,-0.667,-1.447,0.05,-25.329,-28.991,-29.113,1
2.539278,-0.565,-1.471,0.018,-29.724,-23.925,-20.507,1
2.549418,-0.479,-1.479,-0.003,-30.639,-19.653,-12.329,1
2.55804,-0.402,-1.502,-0.03,-33.264,-14.099,-2.502,1
2.565978,-0.347,-1.507,-0.062,-33.203,-9.826,7.141,1
2.573087,-0.185,-1.534,-0.082,-29.296,-5.981,15.808,1
2.580966,-0.157,-1.54,-0.142,-17.15,-4.028,24.169,1
2.587995,-0.121,-1.562,-0.15,-16.723,-1.159,32.47,1
2.596316,-0.129,-1.546,-0.209,-25.512,4.272,40.832,1
2.603281,-0.118,-1.492,-0.228,-35.644,7.69,48.217,1
2.611536,-0.112,-1.463,-0.276,-44.189,14.099,56.152,1
2.618492,-0.103,-1.421,-0.33,-51.391,17.883,62.194,1
2.62699,-0.088,-1.386,-0.368,-57.373,22.766,68.054,1
2.635495,-0.09,-1.335,-0.415,-62.499,26.306,73.486,1
2.642003,-0.092,-1.302,-0.44,-63.537,29.174,79.467,1
2.649556,-0.068,-1.26,-0.465,-57.128,32.775,86.242,1
2.65845,-0.086,-1.205,-0.491,-50.048,33.996,90.942,1
2.665435,-0.104,-1.152,-0.51,-40.1,36.499,96.862,1
2.673362,-0.114,-1.107,-0.538,-36.804,37.719,101.928,1
2.6823,-0.14,-1.044,-0.553,-35.766,39.672,106.811,1
2.689376,-0.158,-0.987,-0.583,-37.414,41.931,111.45,1
2.696596,-0.158,-0.932,-0.603,-38.635,43.762,115.112,1
2.704514,-0.16,-0.877,-0.626,-40.649,45.471,118.103,1
2.712592,-0.169,-0.823,-0.645,-43.395,47.607,121.032,1
2.720695,-0.188,-0.762,-0.659,-46.874,49.072,123.596,1
2.72889,-0.193,-0.716,-0.663,-49.926,50.781,126.037,1
2.735639,-0.2,-0.689,-0.666,-53.649,52.124,128.906,1
2.744549,-0.202,-0.664,-0.665,-58.41,53.588,131.469,1
2.751137,-0.199,-0.638,-0.654,-60.791,54.931,134.643,1
2.760059,-0.191,-0.614,-0.637,-60.363,56.762,138.549,1
2.766649,-0.195,-0.597,-0.625,-59.753,58.471,141.54,1
2.774639,-0.173,-0.578,-0.621,-59.57,59.875,144.165,1
2.781462,-0.129,-0.571,-0.628,-59.143,61.889,147.338,1
2.789513,-0.11,-0.551,-0.645,-57.678,62.499,150.39,1
2.798241,-0.136,-0.538,-0.64,-55.358,63.659,153.747,1
2.804984,-0.149,-0.53,-0.656,-52.551,64.758,157.348,1
2.811655,-0.144,-0.53,-0.671,-46.997,65.368,161.254,1
2.819918,-0.14,-0.513,-0.669,-35.095,64.331,165.039,1
2.828144,-0.072,-0.513,-0.658,-13.427,63.537,169.128,1
2.835192,-0.011,-0.478,-0.658,16.418,61.096,173.706,1
2.843129,0.045,-0.439,-0.652,59.082,57.128,178.405,1
2.849985,0.102,-0.473,-0.686,90.576,52.734,183.715,1
2.858407,0.117,-0.455,-0.7,107.727,49.133,189.514,1
2.865102,0.155,-0.459,-0.761,107.543,46.874,195.129,1
2.872379,0.152,-0.423,-0.802,91.735,43.823,200.256,1
2.880721,0.098,-0.372,-0.806,77.087,43.212,204.467,1
2.887721,0.088,-0.318,-0.817,62.927,41.809,208.74,1
2.896484,0.067,-0.274,-0.813,55.541,40.466,212.829,1
2.903183,0.037,-0.25,-0.819,51.269,39.245,217.834,1
2.911113,-0.018,-0.244,-0.827,46.325,38.696,221.557,1
2.918077,-0.004,-0.212,-0.839,38.024,38.33,225.402,1
2.924978,-0.016,-0.168,-0.862,30.09,38.208,229.37,1
2.932782,-0.042,-0.118,-0.894,22.583,37.048,232.299,1
2.940628,-0.055,-0.079,-0.917,16.296,35.827,234.741,1
2.948978,-0.072,-0.06,-0.959,9.277,34.545,237.304,1
2.956093,-0.083,-0.06,-0.977,-2.075,33.325,239.318,1
2.963139,-0.105,-0.06,-0.989,-12.817,33.02,240.966,1
2.970981,-0.115,-0.047,-0.986,-25.573,32.653,242.919,1
2.979141,-0.124,-0.04,-0.99,-34.24,33.02,245.483,1
2.986303,-0.167,-0.028,-0.99,-42.724,33.569,248.535,1
2.993547,-0.215,0.012,-1.005,-45.532,35.217,250.61,1
3.001709,-0.292,0.068,-1.047,-47.973,35.156,252.929,1
3.009474,-0.291,0.104,-1.07,-47.973,35.766,254.211,1
3.018196,-0.315,0.187,-1.126,-48.828,35.034,254.76,1
3.025249,-0.269,0.27,-1.137,-41.625,33.996,255.126,1
3.033696,-0.201,0.346,-1.202,-28.503,30.456,254.516,1
3.04037,-0.152,0.419,-1.221,-12.268,25.695,253.295,1
3.047415,-0.108,0.476,-1.238,5.798,21.057,252.075,1
3.055947,-0.077,0.514,-1.27,17.517,14.953,250.61,1
3.06256,-0.049,0.534,-1.292,20.751,11.047,249.694,1
3.069551,-0.046,0.573,-1.353,12.634,7.507,248.535,1
3.076981,-0.053,0.624,-1.42,-3.784,4.516,247.131,1
3.085595,-0.065,0.664,-1.454,-19.165,2.746,245.971,1
3.092851,-0.115,0.706,-1.513,-36.254,0.671,243.896,1
3.099358,-0.172,0.739,-1.537,-52.734,-1.525,241.638,1
3.107713,-0.151,0.791,-1.529,-64.697,-3.112,239.379,1
3.114803,-0.125,0.864,-1.565,-62.927,-4.821,237.304,1
3.123216,-0.111,0.924,-1.619,-51.513,-9.887,234.558,1
3.129916,-0.092,0.937,-1.643,-33.264,-15.686,231.201,1
3.137981,-0.103,0.948,-1.651,-21.85,-20.996,228.515,1
3.144693,-0.077,0.957,-1.639,-20.08,-26.977,224.792,1
3.151862,-0.065,0.949,-1.609,-16.113,-31.005,221.984,1
3.16095,-0.087,0.919,-1.604,-19.348,-36.56,219.055,1
3.168739,-0.1,0.855,-1.535,-34.973,-39.794,216.003,1
3.17758,-0.13,0.793,-1.514,-57.495,-41.442,214.111,1
3.185173,-0.142,0.765,-1.458,-80.688,-42.236,212.585,1
3.193272,-0.07,0.781,-1.411,-92.651,-42.785,211.486,1
3.2012,-0.056,0.802,-1.381,-88.5,-45.715,210.632,1
3.208335,-0.052,0.811,-1.347,-78.674,-49.804,209.96,1
3.216748,-0.08,0.819,-1.304,-62.988,-53.466,209.228,1
3.225173,-0.12,0.83,-1.265,-38.94,-59.875,208.251,1
3.233028,-0.158,0.812,-1.208,-19.653,-65.368,206.787,1
3.239541,-0.196,0.789,-1.154,-7.812,-69.824,205.688,1
3.248028,-0.23,0.77,-1.102,-5.554,-73.669,204.04,1
3.254968,-0.244,0.748,-1.023,-8.483,-76.66,202.636,1
3.263263,-0.255,0.732,-0.97,-13.549,-79.223,201.232,1
3.27182,-0.275,0.716,-0.887,-17.15,-81.42,199.89,1
3.278158,-0.302,0.723,-0.831,-20.568,-82.702,198.669,1
3.286331,-0.312,0.744,-0.786,-24.475,-83.984,197.631,1
3.293527,-0.321,0.762,-0.73,-29.785,-84.899,196.228,1
3.301717,-0.324,0.787,-0.672,-31.433,-85.327,194.763,1
3.308549,-0.317,0.791,-0.626,-30.029,-86.059,193.237,1
3.316934,-0.303,0.778,-0.578,-26.123,-86.853,191.833,1
3.323883,-0.271,0.738,-0.534,-24.658,-86.669,191.162,1
3.33251,-0.187,0.774,-0.482,-20.324,-85.266,190.002,1
3.339738,-0.125,0.817,-0.442,-7.446,-85.937,188.171,1
3.346752,-0.075,0.83,-0.424,10.925,-84.899,186.889,1
3.355577,-0.007,0.856,-0.437,25.451,-84.716,186.462,1
3.362577,0.067,0.925,-0.469,45.41,-85.021,183.227,1
3.369406,0.078,0.995,-0.476,64.514,-83.679,180.541,1
3.377236,0.13,1.042,-0.519,70.617,-81.848,177.124,1
3.384196,0.186,1.061,-0.545,56.152,-78.796,174.56,1
3.39206,0.284,1.149,-0.596,39.55,-74.035,169.372,1
3.398993,0.254,1.246,-0.616,23.559,-70.19,165.893,1
3.406058,0.262,1.303,-0.667,4.333,-65.673,161.987,1
3.414805,0.234,1.381,-0.72,-11.047,-63.049,157.592,1
3.421488,0.219,1.459,-0.772,-20.324,-60.607,152.954,1
3.43033,0.193,1.539,-0.835,-22.46,-60.119,147.705,1
3.437589,0.154,1.624,-0.898,-19.348,-60.607,142.272,1
3.444243,0.112,1.698,-0.955,-10.681,-63.232,136.108,1
3.451082,0.074,1.752,-0.99,0.0,-66.528,130.981,1
3.459477,0.051,1.801,-1.016,13.854,-70.129,124.511,1
3.466305,0.078,1.834,-1.04,26.428,-75.561,117.614,1
3.474061,0.091,1.85,-1.029,35.4,-79.589,111.328,1
3.481061,0.11,1.878,-1.045,39.55,-83.618,104.431,1
3.489359,0.115,1.907,-1.051,40.893,-88.012,97.595,1
3.496041,0.116,1.926,-1.041,40.222,-91.796,90.759,1
3.504245,0.122,1.934,-1.026,35.339,-95.764,83.862,1
3.510868,0.121,1.924,-0.99,30.09,-98.266,78.063,1
3.517935,0.126,1.905,-0.949,23.254,-101.196,71.289,1
3.526109,0.116,1.832,-0.922,12.695,-103.271,65.49,1
3.533033,0.199,1.826,-0.853,4.76,-105.773,59.387,1
3.54085,0.181,1.801,-0.807,6.958,-107.604,53.283,1
3.547837,0.204,1.777,-0.769,10.314,-109.68,47.18,1
3.555995,0.227,1.733,-0.721,9.216,-111.511,42.114,1
3.563995,0.243,1.655,-0.683,6.53,-112.731,37.109,1
3.570986,0.246,1.595,-0.644,3.356,-113.342,32.104,1
3.578075,0.256,1.552,-0.609,1.281,-113.647,27.038,1
3.586337,0.278,1.513,-0.574,0.366,-113.891,22.583,1
3.594955,0.291,1.463,-0.547,0.183,-114.013,18.615,1
3.601904,0.291,1.407,-0.518,-1.098,-114.013,15.197,1
3.609989,0.31,1.367,-0.487,-3.784,-113.647,11.962,1
3.61671,0.321,1.316,-0.459,-5.981,-113.403,8.728,1
3.626911,0.342,1.298,-0.424,-7.08,-111.938,5.371,1
3.633842,0.352,1.253,-0.392,-9.643,-111.328,2.502,1
3.64067,0.367,1.225,-0.381,-8.911,-110.656,-0.427,1
3.649235,0.36,1.192,-0.362,-10.192,-109.619,-3.234,1
3.65617,0.39,1.16,-0.361,-18.127,-107.604,-5.493,1
3.664981,0.421,1.142,-0.351,-29.113,-106.018,-7.019,1
3.67175,0.452,1.138,-0.352,-32.958,-104.675,-9.399,1
3.680005,0.421,1.145,-0.334,-32.958,-103.759,-11.291,1
3.687017,0.439,1.125,-0.351,-32.958,-102.905,-13.122,1
3.695805,0.458,1.091,-0.346,-36.132,-102.111,-14.709,1
3.702332,0.44,1.022,-0.357,-41.625,-100.952,-15.747,1
3.709632,0.534,1.108,-0.333,-41.015,-99.121,-18.554,1
3.717374,0.467,1.077,-0.326,-38.085,-99.914,-20.263,1
3.725823,0.452,1.05,-0.31,-33.813,-97.717,-21.667,1
3.733703,0.459,1.0,-0.329,-38.818,-97.656,-23.315,1
3.742563,0.505,1.046,-0.285,-48.583,-93.933,-23.742,1
3.749775,0.521,1.003,-0.314,-49.316,-95.825,-26.123,1
3.758519,0.469,0.945,-0.28,-49.194,-92.468,-26.489,1
3.765645,0.542,1.049,-0.294,-52.185,-91.491,-26.428,1
3.772675,0.55,0.964,-0.309,-39.916,-93.933,-29.174,1
3.781105,0.532,0.939,-0.27,-23.986,-93.078,-29.968,1
3.788388,0.522,0.913,-0.305,-11.535,-93.627,-30.822,1
3.795113,0.519,0.882,-0.307,-1.098,-94.421,-31.921,1
3.80295,0.543,0.881,-0.318,8.483,-94.97,-32.592,1
3.809915,0.556,0.884,-0.321,16.845,-95.886,-32.897,1
3.818231,0.523,0.828,-0.355,14.953,-94.421,-32.714,1
3.826957,0.592,0.859,-0.324,0.0,-93.872,-33.386,1
3.833904,0.519,0.77,-0.312,-12.695,-94.97,-34.484,1
3.840917,0.479,0.789,-0.262,-13.854,-93.139,-35.278,1
3.849244,0.457,0.773,-0.263,-20.263,-93.872,-33.264,1
3.856257,0.551,0.756,-0.311,-13.732,-93.2,-35.461,1
3.864509,0.563,0.823,-0.251,-20.141,-92.529,-35.461,1
3.871505,0.583,0.674,-0.317,-23.681,-92.651,-36.315,1
3.87978,0.496,0.737,-0.229,-30.029,-88.623,-35.766,1
3.888173,0.564,0.592,-0.326,-33.691,-91.308,-35.583,1
3.896291,0.551,0.585,-0.26,-32.592,-89.904,-34.606,1
3.904995,0.572,0.588,-0.298,-32.165,-90.454,-33.447,1
3.912061,0.543,0.611,-0.268,-32.165,-90.209,-32.348,1
3.919251,0.618,0.642,-0.319,-27.832,-91.125,-32.287,1
3.927506,0.611,0.631,-0.27,-23.925,-92.407,-32.043,1
3.934436,0.598,0.597,-0.303,-19.897,-91.979,-30.944,1
3.943084,0.614,0.595,-0.3,-20.629,-93.383,-29.846,1
3.94972,0.608,0.573,-0.321,-22.521,-93.688,-28.93,1
3.957537,0.55,0.563,-0.321,-30.212,-94.055,-27.282,1
3.964398,0.588,0.562,-0.335,-38.452,-93.017,-26.245,1
3.972746,0.606,0.567,-0.334,-45.104,-93.933,-24.78,1
3.979781,0.603,0.54,-0.333,-43.395,-94.421,-23.925,1
3.986441,0.597,0.557,-0.273,-37.292,-93.994,-22.46,1
3.993685,0.611,0.543,-0.269,-32.531,-94.421,-22.094,1
4.001711,0.642,0.537,-0.2,-31.188,-93.2,-21.789,1
4.010138,0.596,0.519,-0.166,-38.208,-91.552,-21.057,1
4.019574,0.618,0.52,-0.113,-56.396,-87.341,-19.775,1
4.026676,0.613,0.556,-0.089,-71.838,-85.021,-19.653,1
4.033164,0.584,0.59,-0.085,-78.979,-83.862,-19.226,1
4.041869,0.551,0.603,-0.064,-73.547,-84.533,-18.249,1
4.049019,0.555,0.588,-0.03,-64.392,-84.045,-17.211,1
4.057354,0.609,0.561,-0.025,-57.189,-83.007,-16.418,1
4.06591,0.606,0.511,0.0,-61.767,-81.42,-16.723,1
4.072606,0.595,0.482,0.023,-77.392,-76.293,-16.418,1
4.080438,0.627,0.499,0.043,-89.172,-72.998,-17.211,1
4.088838,0.653,0.503,0.079,-93.566,-69.824,-18.249,1
4.095527,0.675,0.513,0.083,-86.975,-65.979,-19.165,1
4.104716,0.624,0.532,0.082,-77.575,-63.964,-19.836,1
4.111956,0.639,0.538,0.075,-61.523,-61.584,-20.812,1
4.1202,0.678,0.552,0.097,-43.64,-61.279,-21.972,1
4.12818,0.702,0.533,0.108,-27.648,-58.166,-22.216,1
4.134719,0.794,0.552,0.097,-17.089,-55.725,-23.376,1
4.142411,0.801,0.527,0.089,-15.136,-53.283,-24.291,1
4.15071,0.805,0.51,0.057,-24.353,-49.133,-24.353,1
4.157688,0.796,0.508,0.049,-40.283,-46.508,-24.475,1
4.165771,0.755,0.52,0.025,-55.114,-42.968,-24.047,1
4.1727,0.723,0.541,0.023,-67.077,-41.32,-23.559,1
4.181187,0.709,0.542,0.028,-72.082,-39.55,-22.583,1
4.187714,0.682,0.548,0.017,-76.721,-38.146,-22.155,1
4.195663,0.652,0.551,0.0,-82.946,-36.376,-21.24,1
4.204213,0.551,0.572,-0.011,-88.073,-35.461,-19.836,1
4.210955,0.538,0.6,-0.017,-85.815,-35.949,-18.615,1
4.219518,0.487,0.642,0.008,-74.218,-37.597,-17.211,1
4.225376,0.544,0.622,0.025,-57.861,-39.245,-16.174,1
4.23335,0.586,0.602,0.05,-46.264,-39.916,-15.258,1
4.241366,0.662,0.59,0.053,-39.001,-38.94,-14.587,1
4.24788,0.716,0.594,0.05,-34.484,-37.78,-14.16,1
4.254929,0.755,0.605,0.036,-31.555,-35.949,-14.099,1
4.262686,0.791,0.614,0.013,-30.7,-34.606,-14.282,1
4.271429,0.82,0.631,0.009,-31.311,-32.409,-15.38,1
4.278418,0.842,0.645,-0.001,-33.569,-30.456,-16.54,1
4.285259,0.85,0.658,-0.009,-38.574,-28.198,-17.822,1
4.292397,0.872,0.677,-0.007,-44.25,-26.123,-19.104,1
4.300157,0.916,0.687,0.008,-46.813,-24.475,-20.568,1
4.308355,0.947,0.687,0.014,-45.898,-22.705,-21.972,1
4.314984,0.956,0.687,0.013,-44.006,-20.507,-22.705,1
4.32335,0.924,0.686,-0.018,-46.386,-18.554,-24.047,1
4.330424,0.876,0.686,-0.037,-51.086,-17.639,-25.207,1
4.337493,0.861,0.683,-0.05,-54.443,-16.052,-26.428,1
4.346132,0.847,0.67,-0.046,-56.213,-15.197,-27.832,1
4.354541,0.843,0.662,-0.035,-52.307,-13.977,-28.564,1
4.362921,0.847,0.677,-0.059,-41.381,-13.793,-29.479,1
4.370367,0.84,0.673,-0.069,-23.315,-13.793,-30.212,1
4.379167,0.855,0.68,-0.078,-6.286,-13.122,-30.456,1
4.387342,0.875,0.672,-0.13,7.629,-12.268,-30.944,1
4.393721,0.873,0.646,-0.165,15.686,-10.314,-31.982,1
4.401771,0.892,0.606,-0.207,12.512,-7.934,-32.47,1
4.40806,0.9,0.584,-0.247,-7.69,-4.394,-33.02,1
4.41662,0.866,0.596,-0.277,-36.376,-0.976,-33.508,1
4.423017,0.846,0.631,-0.295,-58.593,1.281,-34.057,1
4.431795,0.831,0.659,-0.3,-66.772,1.708,-34.973,1
4.439607,0.799,0.677,-0.324,-67.687,1.342,-36.193,1
4.446771,0.765,0.682,-0.34,-66.528,-0.305,-37.658,1
4.455057,0.758,0.665,-0.345,-64.636,-1.953,-39.184,1
4.462909,0.771,0.64,-0.347,-62.194,-4.089,-40.832,1
4.46991,0.794,0.594,-0.335,-61.401,-5.554,-42.114,1
4.477747,0.821,0.551,-0.33,-62.255,-7.019,-43.212,1
4.485991,0.855,0.497,-0.303,-64.147,-8.422,-44.128,1
4.494352,0.871,0.445,-0.274,-66.589,-9.338,-44.616,1
4.501068,0.875,0.403,-0.24,-70.007,-10.07,-44.799,1
4.509406,0.866,0.369,-0.201,-74.584,-10.498,-44.25,1
4.517353,0.871,0.349,-0.172,-78.979,-10.375,-43.823,1
4.524048,0.867,0.33,-0.141,-80.444,-10.864,-43.273,1
4.53105,0.871,0.312,-0.113,-79.65,-10.925,-42.541,1
4.539767,0.895,0.304,-0.083,-75.439,-10.986,-41.748,1
4.5465,0.926,0.286,-0.059,-68.481,-10.559,-41.015,1
4.555207,0.951,0.276,-0.044,-62.133,-9.887,-39.978,1
4.561976,0.973,0.268,-0.039,-58.227,-8.422,-39.123,1
4.569982,0.973,0.271,-0.037,-57.067,-7.202,-38.024,1
4.576741,0.983,0.285,-0.028,-55.908,-5.432,-37.17,1
4.585104,1.028,0.293,-0.016,-53.833,-4.76,-36.254,1
4.594806,1.056,0.304,-0.002,-52.246,-2.99,-35.034,1
4.601592,1.064,0.312,-0.015,-56.091,-1.647,-33.996,1
4.609863,1.054,0.324,-0.01,-62.805,-0.732,-33.02,1
4.61779,1.075,0.341,0.001,-67.565,0.427,-32.165,1
4.624,1.125,0.359,0.005,-67.932,0.915,-31.799,1
4.631468,1.148,0.375,-0.004,-66.284,2.319,-32.165,1
4.63947,1.164,0.393,-0.039,-67.199,3.479,-32.653,1
4.647982,1.165,0.412,-0.061,-70.922,5.004,-33.691,1
4.654807,1.164,0.443,-0.098,-77.575,6.469,-34.912,1
4.661822,1.14,0.487,-0.138,-85.144,7.751,-36.865,1
4.668908,1.129,0.541,-0.17,-88.989,7.446,-39.001,1
4.677228,1.109,0.574,-0.207,-88.012,6.958,-41.564,1
4.683987,1.104,0.604,-0.255,-87.219,6.53,-44.067,1
4.691037,1.104,0.653,-0.305,-89.05,5.554,-46.447,1
4.699437,1.102,0.709,-0.35,-87.829,3.845,-49.194,1
4.706161,1.114,0.769,-0.406,-81.359,1.464,-52.49,1
4.714138,1.137,0.839,-0.447,-70.678,-2.746,-56.457,1
4.721379,1.143,0.903,-0.498,-54.809,-6.408,-60.607,1
4.727823,1.112,0.951,-0.544,-41.564,-10.437,-65.734,1
4.736139,1.044,0.974,-0.583,-37.475,-12.939,-70.434,1
4.74447,0.981,0.977,-0.629,-46.081,-15.258,-77.819,1
4.751509,0.97,0.98,-0.643,-59.875,-16.845,-84.655,1
4.759414,0.963,0.957,-0.646,-71.533,-19.165,-90.759,1
4.766869,0.983,0.899,-0.639,-82.275,-22.216,-96.618,1
4.775544,0.963,0.835,-0.609,-91.308,-25.756,-101.44,1
4.783297,0.911,0.752,-0.582,-99.792,-30.456,-106.506,1
4.792064,0.874,0.674,-0.56,-104.248,-35.217,-110.351,1
4.798647,0.819,0.582,-0.511,-104.492,-40.466,-114.074,1
4.806943,0.79,0.488,-0.449,-100.891,-46.325,-116.699,1
4.813886,0.751,0.391,-0.366,-93.872,-51.818,-119.079,1
4.82215,0.711,0.288,-0.284,-83.068,-56.64,-120.666,1
4.829048,0.667,0.201,-0.209,-70.251,-60.729,-121.948,1
4.837578,0.624,0.093,-0.128,-60.18,-63.415,-123.046,1
4.8446,0.59,0.011,-0.08,-54.992,-65.185,-123.596,1
4.853171,0.573,-0.061,-0.043,-54.382,-66.406,-123.535,1
4.861775,0.575,-0.137,0.005,-57.312,-66.65,-123.107,1
4.8686,0.569,-0.201,0.044,-61.645,-66.467,-122.009,1
4.876834,0.553,-0.24,0.086,-63.842,-66.894,-120.605,1
4.884721,0.536,-0.281,0.131,-61.523,-67.382,-119.018,1
4.891329,0.541,-0.318,0.176,-56.335,-67.504,-117.065,1
4.899663,0.543,-0.359,0.23,-48.828,-67.749,-115.173,1
4.907538,0.552,-0.395,0.286,-38.635,-66.894,-113.037,1
4.91465,0.544,-0.432,0.314,-30.395,-65.612,-110.412,1
4.922919,0.542,-0.457,0.335,-23.803,-64.147,-107.971,1
4.929548,0.559,-0.493,0.348,-17.272,-62.499,-105.651,1
4.937384,0.583,-0.53,0.364,-11.596,-60.791,-103.271,1
4.944221,0.613,-0.569,0.375,-11.474,-57.678,-100.585,1
4.952592,0.644,-0.598,0.374,-17.395,-54.626,-97.229,1
4.960913,0.656,-0.589,0.381,-24.047,-51.635,-93.872,1
4.967588,0.648,-0.565,0.378,-27.404,-48.767,-90.942,1
4.974577,0.636,-0.541,0.371,-27.526,-46.813,-88.439,1
4.982315,0.629,-0.525,0.353,-27.099,-44.921,-86.303,1
4.991003,0.598,-0.51,0.325,-29.724,-43.151,-84.777,1
4.997544,0.549,-0.472,0.286,-36.743,-41.137,-83.007,1
5.005789,0.488,-0.427,0.248,-41.687,-39.672,-81.97,1
5.014268,0.404,-0.384,0.186,-46.386,-38.635,-81.359,1
5.022795,0.286,-0.344,0.122,-56.762,-37.536,-82.031,1
5.029421,0.118,-0.297,0.046,-76.232,-36.926,-82.885,1
5.037866,0.017,-0.255,-0.026,-90.026,-37.353,-84.106,1
5.045676,-0.087,-0.233,-0.078,-100.097,-38.94,-85.51,1
5.053971,-0.231,-0.239,-0.136,-109.069,-42.053,-86.975,1
5.061923,-0.348,-0.248,-0.168,-111.877,-45.959,-87.829,1
5.06975,-0.413,-0.3,-0.215,-112.06,-51.208,-88.073,1
5.076945,-0.453,-0.358,-0.229,-112.182,-57.189,-87.158,1
5.085434,-0.535,-0.421,-0.241,-110.778,-63.171,-85.266,1
5.093834,-0.593,-0.487,-0.256,-109.619,-70.068,-82.702,1
5.102093,-0.639,-0.584,-0.262,-117.065,-75.5,-78.491,1
5.109313,-0.72,-0.642,-0.266,-130.249,-82.092,-73.852,1
5.117572,-0.841,-0.686,-0.233,-141.54,-88.134,-68.847,1
5.124596,-0.895,-0.74,-0.2,-140.808,-93.322,-63.354,1
5.132882,-0.892,-0.842,-0.229,-151.062,-100.769,-55.725,1
5.141603,-0.872,-0.936,-0.229,-172.912,-105.651,-45.288,1
5.149559,-0.917,-1.02,-0.236,-195.678,-111.022,-35.278,1
5.1574,-0.898,-1.055,-0.178,-212.707,-115.173,-23.742,1
5.167195,-1.033,-1.224,-0.174,-226.135,-121.887,-7.69,1
5.173654,-0.983,-1.342,-0.086,-245.605,-123.535,11.23,1
5.182001,-1.027,-1.417,-0.086,-257.995,-126.77,28.869,1
5.189977,-1.144,-1.487,0.0,-267.272,-127.99,51.269,1
5.198361,-1.312,-1.565,0.024,-271.301,-131.652,67.504,1
5.205484,-1.28,-1.612,0.125,-248.107,-133.972,93.261,1
5.213524,-1.335,-1.721,0.081,-229.187,-138.488,115.539,1
5.221553,-1.522,-1.716,0.196,-203.552,-142.272,138.916,1
5.228144,-1.644,-1.771,0.174,-167.175,-147.033,163.696,1
5.236441,-1.843,-1.834,0.196,-146.606,-151.489,188.842,1
5.243431,-2.017,-1.923,0.196,-155.273,-151.794,216.247,1
5.251634,-2.195,-1.98,0.299,-185.546,-149.78,247.802,1
5.258309,-2.357,-1.908,0.383,-199.035,-141.845,281.311,1
5.266194,-2.591,-1.894,0.481,-195.617,-138.671,316.589,1
5.273238,-2.929,-1.825,0.608,-172.607,-128.479,352.233,1
5.282611,-3.146,-2.017,0.676,-187.927,-121.398,390.502,1
5.291255,-3.576,-1.967,0.875,-233.459,-93.933,437.072,1
5.297908,-4.115,-1.822,0.993,-254.028,-76.416,476.135,1
5.306158,-4.519,-1.661,1.195,-241.394,-49.377,516.296,1
5.314591,-5.231,-1.413,1.208,-207.946,-23.864,561.035,1
5.322804,-5.945,-1.318,1.326,-190.612,0.732,599.548,1
5.329424,-6.527,-1.224,1.31,-217.956,33.874,639.404,1
5.337665,-7.339,-0.954,1.386,-257.385,69.824,677.612,1
5.345542,-8.255,-0.649,1.41,-278.442,113.342,714.843,1
5.353445,-9.194,-0.354,1.379,-287.292,155.7,748.535,1
5.360117,-10.228,-0.063,1.337,-290.1,210.327,786.01,1
5.367352,-11.274,0.235,1.21,-286.01,255.126,814.269,1
5.374977,-12.208,0.507,1.121,-270.019,292.663,836.303,1
5.383347,-13.349,0.788,0.931,-244.384,334.228,860.107,1
5.390179,-14.45,1.059,0.755,-220.275,372.253,881.835,1
5.398515,-15.657,1.323,0.623,-195.617,407.287,902.709,1
5.405555,-15.992,1.625,0.479,-176.635,441.223,919.372,1
5.412247,-15.999,1.89,0.346,-178.955,475.036,934.02,1
5.419133,-15.999,2.184,0.201,-182.678,509.582,945.8,1
5.427492,-15.999,2.412,0.136,-165.466,534.057,953.857,1
5.433982,-15.999,2.629,0.011,-152.465,557.861,959.472,1
5.440918,-15.999,2.854,0.041,-157.531,579.834,960.998,1
5.448065,-15.999,3.056,-0.059,-174.56,602.905,959.106,1
5.456535,-15.999,3.291,-0.058,-185.241,628.479,951.232,1
5.463481,-15.999,3.449,-0.121,-191.284,658.813,939.758,1
5.470395,-15.999,3.447,-0.258,-249.938,695.739,924.865,1
5.478141,-15.999,3.406,-0.416,-379.577,750.183,899.78,1
5.486482,-15.999,3.486,-0.539,-537.414,822.143,857.727,1
5.492843,-15.999,3.481,-0.744,-650.085,906.555,804.931,1
5.501259,-15.999,3.493,-1.128,-707.336,979.37,735.29,1
5.50929,-15.999,3.39,-1.437,-734.619,1034.057,667.724,1
5.515986,-15.999,3.396,-1.742,-779.785,1079.345,571.289,1
5.523099,-15.999,3.193,-2.127,-866.394,1116.516,460.937,1
5.529777,-15.999,2.972,-2.622,-978.271,1135.803,329.833,1
5.537979,-15.999,2.666,-2.979,-1082.702,1145.202,185.302,1
5.545036,-15.999,2.052,-3.404,-1178.894,1143.676,53.955,1
5.552846,-15.999,1.468,-3.677,-1294.799,1101.196,-132.873,1
5.561541,-15.999,0.989,-3.377,-1351.867,1036.804,-285.705,1
5.568381,-15.999,0.737,-2.729,-1303.466,941.284,-419.067,1
5.576193,-14.819,0.598,-2.088,-1128.723,838.195,-519.714,1
5.583545,-13.434,0.342,-1.84,-925.109,731.201,-586.914,1
5.592078,-12.046,-0.208,-1.717,-767.272,636.108,-625.793,1
5.600582,-11.336,-0.711,-1.705,-686.828,543.396,-648.803,1
5.607641,-10.816,-1.048,-1.708,-671.386,467.468,-659.118,1
5.616392,-10.27,-1.213,-1.613,-644.287,395.935,-664.428,1
5.624693,-9.5,-1.491,-1.541,-582.092,315.612,-660.095,1
5.631369,-8.615,-1.77,-1.43,-546.02,254.333,-648.132,1
5.639997,-7.579,-2.022,-1.366,-525.024,198.73,-628.356,1
5.64692,-6.739,-2.012,-1.208,-455.322,144.714,-604.492,1
5.655462,-5.958,-2.257,-1.18,-380.493,97.961,-576.904,1
5.663759,-5.461,-2.363,-1.151,-340.515,60.424,-544.494,1
5.670514,-5.074,-2.319,-1.109,-335.205,22.888,-506.225,1
5.680058,-4.592,-2.183,-1.006,-334.838,-8.483,-474.67,1
5.686625,-4.178,-1.962,-0.798,-317.565,-37.048,-444.885,1
5.694927,-3.685,-1.752,-0.635,-270.263,-65.551,-411.132,1
5.705016,-3.262,-1.541,-0.539,-215.393,-89.294,-385.925,1
5.711363,-3.073,-1.399,-0.375,-145.935,-110.351,-359.68,1
5.719702,-2.987,-1.35,-0.324,-99.914,-123.291,-339.843,1
5.726618,-2.846,-1.29,-0.242,-67.687,-132.202,-322.021,1
5.735366,-2.656,-1.248,-0.2,-48.034,-138.061,-306.213,1
5.742489,-2.537,-1.218,-0.135,-39.245,-141.662,-289.001,1
5.749444,-2.369,-1.238,-0.131,-41.809,-142.639,-274.902,1
5.75748,-2.219,-1.211,-0.068,-50.659,-143.615,-259.704,1
5.765852,-2.066,-1.236,-0.093,-53.283,-142.639,-245.727,1
5.774018,-1.927,-1.202,-0.047,-50.903,-142.7,-232.116,1
5.781041,-1.772,-1.188,-0.037,-33.447,-142.333,-219.177,1
5.789438,-1.676,-1.258,0.003,-26.306,-143.92,-206.665,1
5.795918,-1.588,-1.277,0.041,-18.432,-141.113,-193.847,1
5.804371,-1.564,-1.259,0.065,-2.441,-139.282,-181.823,1
5.811019,-1.438,-1.279,0.094,3.784,-136.108,-170.166,1
5.81963,-1.381,-1.305,0.106,5.615,-132.385,-159.606,1
5.825812,-1.325,-1.298,0.141,-2.441,-126.464,-148.986,1
5.834397,-1.252,-1.267,0.155,-12.084,-120.544,-138.854,1
5.840974,-1.156,-1.245,0.18,-19.958,-114.257,-129.028,1
5.848756,-1.061,-1.2,0.192,-21.911,-108.459,-119.445,1
5.857097,-0.97,-1.162,0.207,-16.845,-103.759,-110.473,1
5.864114,-0.897,-1.152,0.199,-11.047,-98.876,-101.867,1
5.871979,-0.814,-1.188,0.204,-10.62,-95.031,-93.749,1
5.88027,-0.753,-1.222,0.237,-8.972,-89.538,-85.144,1
5.886943,-0.584,-1.265,0.224,-7.08,-84.289,-76.049,1
5.894048,-0.476,-1.253,0.235,-2.746,-79.65,-67.443,1
5.901698,-0.388,-1.301,0.247,6.225,-74.707,-58.593,1
5.910038,-0.349,-1.342,0.203,0.183,-69.091,-50.231,1
5.916648,-0.262,-1.375,0.202,-14.343,-62.622,-41.992,1
5.924877,-0.209,-1.363,0.221,-23.01,-56.762,-33.081,1
5.932138,-0.164,-1.335,0.222,-21.118,-51.269,-24.963,1
5.940031,-0.134,-1.31,0.202,-16.296,-46.386,-17.15,1
5.947855,-0.12,-1.283,0.173,-15.258,-41.198,-10.375,1
5.955711,-0.132,-1.279,0.15,-23.376,-35.278,-4.15,1
5.962758,-0.104,-1.255,0.131,-32.836,-29.785,1.586,1
5.970881,-0.055,-1.222,0.125,-34.118,-24.78,6.835,1
5.979322,-0.006,-1.208,0.105,-31.494,-20.507,12.023,1
5.986054,0.02,-1.185,0.07,-33.447,-14.831,17.333,1
5.994332,0.037,-1.161,0.047,-36.621,-10.742,22.216,1
6.001182,0.064,-1.139,0.021,-36.987,-7.019,26.794,1
6.008382,0.108,-1.181,-0.004,-40.283,-3.173,31.127,1
6.016374,0.19,-1.201,-0.018,-46.691,-0.122,35.095,1
6.024108,0.244,-1.197,-0.034,-50.292,3.784,40.039,1
6.030607,0.273,-1.192,-0.038,-47.058,6.774,44.372,1
6.039229,0.294,-1.185,-0.06,-42.602,9.887,49.255,1
6.045888,0.281,-1.177,-0.08,-42.358,12.939,53.833,1
6.055394,0.291,-1.163,-0.094,-42.541,17.089,58.654,1
6.062526,0.314,-1.124,-0.108,-36.437,20.019,63.11,1
6.070466,0.327,-1.097,-0.122,-24.963,22.827,68.054,1
6.077099,0.332,-1.075,-0.142,-15.258,26.367,73.425,1
6.084812,0.338,-1.051,-0.165,-13.488,29.113,76.843,1
6.091528,0.342,-1.024,-0.19,-17.7,33.02,80.322,1
6.098739,0.346,-0.993,-0.219,-26.733,36.865,83.74,1
6.106837,0.353,-0.949,-0.24,-37.719,41.259,86.364,1
6.115629,0.366,-0.913,-0.262,-49.56,45.532,88.928,1
6.122336,0.325,-0.832,-0.267,-57.006,49.072,90.576,1
6.128961,0.354,-0.817,-0.303,-61.645,52.246,92.468,1
6.137706,0.385,-0.795,-0.296,-64.331,55.786,94.543,1
6.143631,0.408,-0.776,-0.32,-62.561,59.631,97.106,1
6.151771,0.424,-0.729,-0.33,-59.326,61.401,99.06,1
6.158598,0.415,-0.649,-0.316,-44.982,64.575,101.806,1
6.166903,0.432,-0.669,-0.402,-37.231,67.26,103.454,1
6.173434,0.444,-0.663,-0.405,-42.785,70.739,105.346,1
6.181541,0.42,-0.586,-0.426,-47.546,72.753,107.055,1
6.1901,0.441,-0.612,-0.478,-52.612,75.439,107.971,1
6.196726,0.396,-0.546,-0.491,-54.077,78.491,108.276,1
6.204964,0.393,-0.522,-0.486,-60.363,80.444,109.13,1
6.212021,0.31,-0.555,-0.55,-65.551,82.824,109.374,1
6.219998,0.32,-0.547,-0.549,-69.458,85.327,109.741,1
6.227296,0.361,-0.492,-0.571,-72.265,87.158,110.473,1
6.23435,0.374,-0.421,-0.565,-70.068,88.317,112.06,1
6.24228,0.398,-0.415,-0.596,-62.316,89.538,113.342,1
6.249394,0.414,-0.4,-0.599,-49.499,89.904,114.685,1
6.257618,0.46,-0.361,-0.641,-31.616,89.721,116.21,1
6.265877,0.535,-0.332,-0.675,-13.244,86.73,117.248,1
6.272728,0.551,-0.254,-0.772,4.333,84.411,117.797,1
6.28094,0.552,-0.231,-0.798,11.84,80.444,118.164,1
6.2889,0.537,-0.218,-0.834,12.634,77.941,118.774,1
6.296007,0.501,-0.215,-0.857,7.568,75.439,119.018,1
6.304936,0.51,-0.204,-0.873,-1.77,74.584,119.384,1
6.311504,0.515,-0.199,-0.9,-13.0,74.096,119.323,1
6.318591,0.561,-0.183,-0.932,-24.902,74.096,119.567,1
6.326847,0.64,-0.169,-0.967,-37.414,74.157,119.323,1
6.333987,0.651,-0.14,-1.021,-49.316,73.974,119.384,1
6.340618,0.711,-0.128,-1.008,-56.335,73.364,119.079,1
6.348487,0.731,-0.103,-1.064,-61.462,72.204,118.957,1
6.356669,0.735,-0.08,-1.106,-63.232,71.105,118.347,1
6.363843,0.78,-0.071,-1.114,-63.415,67.443,117.553,1
6.370542,0.805,-0.077,-1.142,-63.293,64.697,115.966,1
6.379108,0.741,-0.054,-1.163,-64.819,60.18,114.929,1
6.3857,0.773,-0.062,-1.169,-62.805,57.861,113.403,1
6.392751,0.753,-0.051,-1.208,-63.354,53.344,112.06,1
6.399977,0.759,-0.046,-1.228,-62.499,51.696,110.656,1
6.408256,0.775,-0.04,-1.282,-63.171,48.522,108.764,1
6.414906,0.773,-0.033,-1.322,-65.49,45.227,106.811,1
6.42296,0.789,-0.037,-1.362,-68.908,42.907,105.285,1
6.429482,0.79,-0.033,-1.394,-75.073,40.161,103.454,1
6.437708,0.791,-0.043,-1.394,-83.984,37.17,101.745,1
6.446126,0.802,-0.065,-1.384,-94.116,35.095,100.708,1
6.452717,0.796,-0.041,-1.353,-102.172,32.592,99.121,1
6.460639,0.744,-0.012,-1.312,-103.271,29.052,97.839,1
6.468537,0.808,0.027,-1.271,-89.233,24.902,95.642,1
6.474836,0.811,-0.038,-1.307,-86.669,21.24,94.116,1
6.483051,0.827,-0.044,-1.216,-77.148,17.089,92.773,1
6.491698,0.83,-0.067,-1.231,-77.026,13.0,91.857,1
6.498227,0.83,-0.075,-1.178,-76.11,9.582,91.125,1
6.507055,0.846,-0.092,-1.178,-76.477,5.981,90.026,1
6.513449,0.827,-0.088,-1.148,-78.186,2.807,88.806,1
6.522105,0.796,-0.094,-1.12,-79.406,0.305,87.707,1
6.530344,0.768,-0.118,-1.095,-83.19,-2.014,86.73,1
6.537156,0.743,-0.132,-1.062,-89.172,-2.99,85.754,1
6.543873,0.743,-0.14,-1.042,-94.787,-4.089,84.655,1
6.551908,0.757,-0.144,-1.013,-99.182,-5.249,83.984,1
6.559597,0.75,-0.148,-0.985,-104.248,-6.347,83.068,1
6.566601,0.724,-0.163,-0.944,-109.374,-7.202,82.458,1
6.574882,0.795,-0.155,-0.915,-116.271,-7.446,81.848,1
6.581741,0.792,-0.143,-0.881,-118.286,-7.69,81.787,1
6.590045,0.721,-0.078,-0.848,-110.473,-9.399,81.787,1
6.596742,0.807,-0.062,-0.74,-78.552,-10.803,81.054,1
6.604894,0.751,-0.071,-0.816,-63.903,-15.258,79.528,1
6.611705,0.739,-0.076,-0.741,-56.335,-15.38,78.613,1
6.620367,0.682,-0.049,-0.722,-53.527,-17.333,78.002,1
6.627361,0.681,-0.041,-0.686,-51.391,-16.967,77.148,1
6.634382,0.693,-0.04,-0.683,-51.086,-18.676,76.11,1
6.641823,0.666,-0.016,-0.638,-48.278,-19.714,75.5,1
6.650994,0.648,-0.033,-0.619,-44.799,-20.324,74.523,1
6.657656,0.641,-0.052,-0.587,-44.555,-21.057,74.157,1
6.6659,0.585,-0.066,-0.572,-47.79,-20.812,73.486,1
6.673167,0.634,-0.081,-0.548,-52.612,-20.751,73.12,1
6.679683,0.68,-0.077,-0.528,-57.312,-21.118,72.814,1
6.687966,0.75,-0.088,-0.521,-60.974,-19.531,72.814,1
6.695869,0.773,-0.092,-0.529,-64.453,-18.676,73.303,1
6.704598,0.865,-0.113,-0.515,-70.068,-17.089,73.181,1
6.711544,0.878,-0.069,-0.506,-72.753,-17.395,73.486,1
6.719909,0.93,-0.062,-0.5,-68.664,-15.197,74.218,1
6.726208,0.915,-0.085,-0.522,-73.852,-15.441,74.279,1
6.73443,0.858,-0.05,-0.494,-74.462,-13.0,74.584,1
6.741091,0.847,-0.074,-0.527,-80.81,-12.084,74.401,1
6.749184,0.834,-0.074,-0.522,-91.613,-10.314,74.157,1
6.757927,0.844,-0.054,-0.558,-100.219,-8.239,73.852,1
6.766096,0.853,-0.025,-0.567,-103.82,-7.507,73.425,1
6.773144,0.835,-0.011,-0.592,-102.722,-7.324,72.326,1
6.781813,0.837,-0.002,-0.598,-100.83,-7.812,71.411,1
6.790508,0.816,-0.016,-0.62,-101.928,-8.361,70.068,1
6.797476,0.795,-0.023,-0.618,-104.98,-8.239,68.847,1
6.805827,0.762,-0.038,-0.627,-114.135,-8.178,68.054,1
6.814689,0.828,-0.036,-0.621,-121.032,-7.873,66.894,1
6.821162,0.85,-0.027,-0.61,-121.032,-8.056,66.162,1
6.82998,0.815,-0.027,-0.613,-117.98,-7.69,65.063,1
6.837676,0.863,0.001,-0.592,-112.548,-7.507,64.147,1
6.844673,0.944,0.001,-0.606,-101.318,-8.666,62.927,1
6.851631,0.916,0.003,-0.599,-90.881,-9.216,61.584,1
6.859932,0.874,0.0,-0.604,-84.167,-9.948,60.485,1
6.867834,0.86,-0.015,-0.614,-80.932,-10.864,59.387,1
6.874878,0.838,-0.011,-0.609,-79.711,-11.657,58.227,1
6.883509,0.807,-0.033,-0.607,-82.641,-12.023,56.64,1
6.890304,0.79,-0.041,-0.594,-87.036,-13.0,55.603,1
6.898938,0.793,-0.058,-0.571,-91.796,-12.695,54.992,1
6.906456,0.815,-0.074,-0.554,-94.543,-12.512,54.138,1
6.912497,0.838,-0.082,-0.527,-92.407,-12.268,53.894,1
6.920577,0.891,-0.093,-0.504,-86.303,-12.145,53.466,1
6.928998,0.96,-0.095,-0.472,-74.707,-12.207,52.856,1
6.93585,1.022,-0.107,-0.426,-59.936,-11.718,52.551,1
6.944219,1.043,-0.103,-0.375,-40.588,-9.521,52.673,1
6.952638,1.054,-0.114,-0.385,-25.878,-9.826,52.429,1
6.959471,1.062,-0.125,-0.35,-15.624,-7.873,52.246,1
6.96663,1.062,-0.125,-0.369,-12.023,-7.08,52.062,1
6.974393,1.048,-0.121,-0.346,-11.779,-6.103,51.574,1
6.981452,1.032,-0.119,-0.345,-13.61,-4.272,51.208,1
6.989879,1.0,-0.112,-0.333,-16.357,-3.234,51.269,1
6.998595,0.966,-0.098,-0.327,-18.249,-1.159,51.452,1
7.005655,0.92,-0.069,-0.323,-17.7,-0.427,51.513,1
7.013803,0.871,-0.058,-0.326,-17.15,0.854,51.208,1
7.020446,0.825,-0.067,-0.348,-20.019,1.953,50.781,1
7.028222,0.798,-0.059,-0.353,-26.611,3.784,50.476,1
7.036632,0.778,-0.032,-0.362,-30.456,5.187,50.109,1
7.043347,0.769,-0.028,-0.381,-29.418,5.981,49.621,1
7.051244,0.762,-0.018,-0.395,-29.663,6.896,49.072,1
7.058462,0.769,-0.012,-0.423,-30.944,7.324,48.522,1
7.065885,0.785,-0.006,-0.448,-33.996,7.751,47.851,1
7.074112,0.805,0.002,-0.468,-36.621,8.3,47.546,1
7.080514,0.817,0.016,-0.482,-39.123,8.605,46.874,1
7.088772,0.821,0.027,-0.504,-39.245,8.056,46.264,1
7.096838,0.829,0.034,-0.522,-37.963,7.324,45.532,1
7.103436,0.851,0.04,-0.548,-34.912,6.042,44.86,1
7.111899,0.884,0.04,-0.556,-32.287,5.126,44.25,1
7.119976,0.915,0.035,-0.556,-29.541,4.333,43.762,1
7.126701,0.938,0.038,-0.554,-28.808,3.417,42.907,1
7.134857,0.967,0.04,-0.557,-30.212,2.807,42.175,1
7.142387,0.979,0.045,-0.552,-32.47,2.38,41.442,1
7.1505,0.995,0.047,-0.54,-34.301,1.586,41.015,1
7.157069,1.008,0.052,-0.539,-36.01,0.854,40.344,1
7.164585,1.022,0.048,-0.526,-37.475,-0.061,39.367,1
7.173141,1.056,0.04,-0.518,-40.1,-0.427,38.879,1
7.179565,1.098,0.032,-0.516,-44.738,-0.732,38.269,1
7.188008,1.142,0.018,-0.5,-52.246,-0.122,37.841,1
7.194493,1.161,0.018,-0.501,-61.706,0.976,37.231,1
7.202327,1.23,0.008,-0.482,-70.8,1.525,36.987,1
7.20932,1.28,-0.006,-0.461,-81.481,3.723,36.682,1
7.216383,1.366,-0.025,-0.431,-93.872,5.676,36.804,1
7.224583,1.408,-0.035,-0.395,-105.957,8.972,37.048,1
7.231681,1.424,-0.044,-0.382,-116.943,10.498,37.658,1
7.240237,1.426,-0.055,-0.365,-121.52,12.756,38.269,1
7.247174,1.471,-0.085,-0.384,-120.3,13.671,38.635,1
7.255489,1.543,-0.128,-0.394,-113.647,15.502,38.94,1
7.261997,1.592,-0.185,-0.456,-108.764,15.563,39.672,1
7.270384,1.517,-0.194,-0.455,-112.365,17.639,40.283,1
7.276965,1.437,-0.181,-0.517,-113.464,18.249,41.015,1
7.285759,1.313,-0.141,-0.532,-108.093,19.104,41.503,1
7.292184,1.232,-0.1,-0.578,-98.51,18.493,41.809,1
7.299589,1.108,-0.055,-0.596,-88.195,17.211,41.687,1
7.308132,0.988,-0.02,-0.643,-78.735,15.747,41.259,1
7.314668,0.884,0.02,-0.666,-70.312,14.038,40.466,1
7.323265,0.825,0.059,-0.69,-62.072,11.535,39.489,1
7.329833,0.711,0.097,-0.715,-53.039,8.361,38.391,1
7.338178,0.62,0.12,-0.727,-48.583,5.31,37.17,1
7.34518,0.605,0.11,-0.759,-54.504,2.441,35.644,1
7.352145,0.49,0.172,-0.749,-59.082,0.427,34.24,1
7.360503,0.462,0.209,-0.775,-57.678,-2.807,32.836,1
7.367801,0.395,0.246,-0.769,-47.363,-7.934,30.029,1
7.376274,0.364,0.25,-0.774,-36.132,-12.023,28.076,1
7.384559,0.371,0.26,-0.767,-16.357,-18.066,24.841,1
7.391142,0.394,0.25,-0.746,0.976,-22.949,22.155,1
7.399525,0.411,0.229,-0.726,9.826,-27.404,19.47,1
7.405867,0.427,0.206,-0.694,10.742,-30.273,17.517,1
7.414942,0.466,0.176,-0.682,6.347,-33.142,15.075,1
7.421371,0.509,0.185,-0.652,5.493,-34.545,13.549,1
7.429505,0.565,0.16,-0.639,1.647,-36.987,11.901,1
7.43649,0.587,0.138,-0.595,-6.103,-37.17,10.803,1
7.443501,0.628,0.135,-0.595,-15.686,-37.658,10.009,1
7.451193,0.643,0.137,-0.566,-22.155,-38.269,8.972,1
7.459603,0.664,0.135,-0.563,-24.475,-38.452,7.934,1
7.467704,0.704,0.121,-0.547,-24.169,-39.367,7.385,1
7.47448,0.731,0.113,-0.542,-23.62,-39.489,7.019,1
7.482744,0.743,0.112,-0.541,-22.827,-40.527,6.408,1
7.489788,0.749,0.101,-0.536,-19.897,-41.137,5.981,1
7.498145,0.752,0.086,-0.522,-16.845,-41.809,5.676,1
7.506661,0.752,0.066,-0.514,-16.296,-42.053,5.676,1
7.513229,0.757,0.047,-0.498,-20.446,-41.748,5.371,1
7.521816,0.77,0.032,-0.486,-27.038,-41.687,5.554,1
7.528738,0.777,0.022,-0.463,-35.095,-40.954,5.187,1
7.535597,0.791,0.021,-0.443,-41.87,-40.161,4.882,1
7.544129,0.827,0.03,-0.416,-44.738,-39.855,4.15,1
7.550935,0.855,0.036,-0.384,-44.555,-40.222,3.356,1
7.559433,0.87,0.038,-0.348,-41.32,-40.405,2.014,1
7.567413,0.881,0.041,-0.312,-37.78,-40.588,1.403,1
7.575668,0.87,0.035,-0.297,-36.193,-40.832,0.976,1
7.582031,0.86,0.026,-0.265,-35.522,-40.893,0.793,1
7.590368,0.877,0.016,-0.247,-35.034,-40.405,1.037,1
7.598705,0.944,0.001,-0.228,-35.217,-40.466,1.281,1
7.606405,0.965,0.0,-0.219,-35.522,-40.039,1.525,1
7.613471,1.001,-0.014,-0.211,-36.193,-40.344,1.892,1
7.622083,1.051,-0.032,-0.213,-35.583,-40.954,2.685,1
7.628679,1.097,-0.046,-0.201,-36.621,-41.87,3.906,1
7.636748,1.173,-0.055,-0.176,-37.963,-41.931,5.493,1
7.645194,1.208,-0.057,-0.156,-39.184,-41.625,6.774,1
7.653254,1.174,-0.033,-0.136,-38.574,-41.442,8.422,1
7.660211,1.202,-0.026,-0.128,-36.926,-41.381,9.521,1
7.667987,1.21,-0.01,-0.113,-39.916,-41.687,10.192,1
7.675994,1.234,0.0,-0.104,-38.452,-42.48,11.108,1
7.683236,1.264,0.015,-0.103,-31.127,-44.006,12.145,1
7.691107,1.271,0.017,-0.106,-20.019,-46.264,12.756,1
7.69768,1.266,0.01,-0.1,-8.239,-47.851,13.793,1
7.706131,1.199,0.011,-0.102,-2.99,-47.485,14.16,1
7.713293,1.156,0.025,-0.148,-4.516,-47.18,13.061,1
7.720214,1.068,0.044,-0.118,-9.277,-48.828,11.23,1
7.728845,1.052,0.077,-0.093,-9.765,-46.386,10.07,1
7.735224,1.065,0.111,-0.107,-8.972,-45.349,7.507,1
7.743108,1.069,0.157,-0.087,-4.821,-43.273,4.516,1
7.749929,1.068,0.163,-0.102,-2.197,-41.198,1.159,1
7.758417,1.073,0.16,-0.103,-2.563,-38.452,-2.38,1
7.766337,1.094,0.147,-0.107,-5.92,-36.071,-5.554,1
7.773961,1.098,0.143,-0.09,-9.704,-34.179,-8.239,1
7.780349,1.063,0.143,-0.091,-12.145,-32.104,-10.62,1
7.788576,1.027,0.148,-0.075,-11.596,-30.7,-13.549,1
7.79712,0.983,0.129,-0.07,-8.789,-28.991,-15.502,1
7.803658,0.949,0.11,-0.056,-7.385,-28.076,-17.883,1
7.811695,0.952,0.085,-0.051,-6.53,-26.672,-19.531,1
7.820097,0.934,0.066,-0.043,-4.943,-25.817,-21.057,1
7.828435,0.905,0.06,-0.04,-3.906,-24.658,-21.85,1
7.835023,0.895,0.041,-0.048,-5.737,-23.437,-22.766,1
7.842868,0.864,0.021,-0.051,-9.643,-22.338,-23.559,1
7.851082,0.834,0.013,-0.052,-12.451,-21.057,-24.536,1
7.857968,0.801,0.008,-0.043,-15.258,-19.775,-25.329,1
7.866471,0.806,-0.002,-0.046,-19.165,-18.31,-25.756,1
7.874748,0.818,-0.004,-0.043,-24.353,-16.845,-26.062,1
7.881366,0.834,-0.011,-0.039,-28.991,-15.258,-26.55,1
7.889603,0.815,-0.01,-0.035,-32.226,-14.099,-26.916,1
7.897956,0.832,-0.009,-0.035,-33.935,-12.39,-27.404,1
7.905781,0.864,-0.011,-0.031,-34.362,-10.803,-27.954,1
7.914535,0.895,-0.019,-0.045,-33.996,-9.216,-28.564,1
7.921122,0.911,-0.031,-0.062,-33.203,-8.117,-29.296,1
7.929658,0.919,-0.043,-0.066,-34.24,-6.713,-29.846,1
7.937858,0.948,-0.063,-0.08,-38.757,-4.821,-30.456,1
7.94632,0.974,-0.082,-0.097,-44.677,-2.868,-30.822,1
7.953929,0.976,-0.096,-0.112,-52.673,-1.159,-31.311,1
7.960622,1.009,-0.098,-0.121,-61.096,0.061,-31.127,1
7.969239,1.043,-0.091,-0.13,-63.415,1.098,-31.494,1
7.976395,1.064,-0.089,-0.157,-62.927,1.037,-31.433,1
7.983047,1.082,-0.095,-0.171,-62.499,0.854,-31.799,1
7.991177,1.114,-0.099,-0.194,-63.964,1.22,-32.287,1
7.999102,1.109,-0.101,-0.217,-68.664,1.159,-32.592,1
8.007443,1.129,-0.098,-0.234,-75.439,1.708,-33.386,1
8.015389,1.143,-0.087,-0.246,-79.406,1.464,-34.301,1
8.021633,1.138,-0.075,-0.254,-78.247,1.159,-35.4,1
8.0302,1.146,-0.078,-0.256,-72.814,0.549,-36.376,1
8.037382,1.156,-0.084,-0.262,-69.213,-0.183,-37.353,1
8.045719,1.146,-0.095,-0.274,-67.749,-0.488,-38.085,1
8.054025,1.126,-0.099,-0.284,-66.65,-1.342,-39.123,1
8.060534,1.083,-0.099,-0.292,-64.941,-2.746,-40.222,1
8.069151,1.078,-0.102,-0.291,-63.354,-4.394,-41.015,1
8.077602,1.03,-0.108,-0.273,-59.997,-5.737,-42.236,1
8.086392,1.025,-0.114,-0.261,-55.175,-7.873,-43.334,1
8.093864,1.013,-0.133,-0.238,-49.316,-9.826,-44.677,1
8.101993,1.024,-0.145,-0.219,-44.25,-11.901,-45.654,1
8.109863,1.019,-0.152,-0.198,-37.353,-13.549,-46.752,1
8.116808,1.017,-0.164,-0.167,-28.015,-15.319,-48.095,1
8.125148,1.024,-0.179,-0.151,-17.883,-17.333,-49.438,1
8.133408,1.036,-0.193,-0.125,-9.46,-18.737,-50.964,1
8.140521,1.045,-0.208,-0.106,-7.812,-19.409,-52.185,1
8.149265,1.037,-0.212,-0.084,-9.826,-19.897,-53.222,1
8.156392,1.03,-0.212,-0.056,-14.099,-19.653,-54.382,1
8.164237,1.038,-0.221,-0.02,-19.287,-19.287,-55.358,1
8.172691,1.033,-0.23,0.012,-21.728,-19.47,-56.335,1
8.181095,1.039,-0.244,0.042,-21.423,-19.47,-56.945,1
8.187948,1.04,-0.259,0.057,-20.568,-19.042,-57.067,1
8.195025,1.072,-0.271,0.069,-19.592,-18.676,-57.373,1
8.202065,1.044,-0.29,0.092,-19.104,-18.066,-57.25,1
8.210684,1.058,-0.302,0.103,-20.568,-17.089,-57.128,1
8.217758,1.049,-0.302,0.125,-20.751,-16.54,-56.762,1
8.22655,1.039,-0.307,0.134,-21.423,-15.38,-56.518,1
8.233154,1.019,-0.302,0.162,-20.019,-14.343,-56.03,1
8.240927,1.019,-0.298,0.169,-14.282,-14.038,-55.786,1
8.247958,0.992,-0.282,0.201,-10.681,-12.634,-55.175,1
8.256001,0.975,-0.285,0.217,-8.422,-10.681,-54.87,1
8.264437,0.938,-0.273,0.224,-7.507,-8.728,-54.321,1
8.271154,0.899,-0.287,0.229,-9.033,-6.958,-54.199,1
8.279591,0.865,-0.28,0.237,-15.808,-3.967,-53.527,1
8.287467,0.833,-0.269,0.217,-26.855,-1.708,-53.222,1
8.294539,0.813,-0.262,0.218,-41.503,1.281,-53.222,1
8.302803,0.798,-0.254,0.196,-51.269,3.112,-52.917,1
8.311238,0.782,-0.239,0.187,-59.02,4.577,-52.734,1
8.317845,0.761,-0.205,0.162,-61.95,5.615,-52.368,1
8.32622,0.744,-0.181,0.128,-61.157,5.187,-52.185,1
8.332731,0.709,-0.159,0.104,-58.959,4.943,-52.612,1
8.340562,0.672,-0.139,0.074,-57.739,4.211,-53.405,1
8.348632,0.624,-0.122,0.043,-57.983,3.479,-54.626,1
8.355709,0.557,-0.104,-0.004,-60.302,2.319,-56.03,1
8.364527,0.507,-0.1,-0.033,-63.598,1.342,-57.617,1
8.371062,0.448,-0.098,-0.063,-68.237,0.305,-59.57,1
8.378213,0.377,-0.104,-0.103,-76.049,-1.098,-61.584,1
8.386648,0.306,-0.117,-0.144,-86.73,-2.807,-63.476,1
8.393501,0.226,-0.135,-0.172,-96.679,-4.76,-65.429,1
8.402044,0.125,-0.161,-0.199,-105.102,-7.019,-67.26,1
8.4104,0.033,-0.192,-0.229,-110.29,-10.07,-68.42,1
8.41714,-0.052,-0.223,-0.262,-111.267,-13.549,-69.152,1
8.42764,-0.14,-0.285,-0.296,-109.191,-18.676,-69.458,1
8.436761,-0.248,-0.35,-0.316,-106.018,-23.803,-68.908,1
8.444215,-0.416,-0.407,-0.34,-104.064,-29.357,-67.26,1
8.453197,-0.592,-0.492,-0.367,-112.792,-33.02,-66.162,1
8.461714,-0.61,-0.601,-0.41,-123.168,-37.231,-63.171,1
8.470697,-0.663,-0.695,-0.442,-135.62,-42.114,-59.02,1
8.479418,-0.759,-0.824,-0.47,-146.606,-47.912,-52.612,1
8.487858,-0.8,-0.969,-0.482,-156.25,-54.382,-44.616,1
8.496809,-0.8,-1.145,-0.522,-153.93,-61.767,-33.996,1
8.505631,-0.895,-1.245,-0.52,-146.606,-69.03,-21.972,1
8.513413,-1.013,-1.401,-0.568,-137.939,-78.186,-8.117,1
8.523503,-1.106,-1.583,-0.604,-134.155,-87.951,6.408,1
8.531556,-1.153,-1.728,-0.609,-142.7,-95.031,24.291,1
8.540187,-1.228,-1.762,-0.578,-145.446,-103.759,44.006,1
8.548678,-1.357,-1.902,-0.593,-142.761,-113.159,62.866,1
8.557606,-1.444,-1.998,-0.563,-130.432,-124.328,86.059,1
8.565656,-1.609,-2.135,-0.57,-92.041,-138.61,113.098,1
8.574232,-1.686,-2.305,-0.577,-73.12,-152.648,142.456,1
8.583872,-1.876,-2.402,-0.544,-66.345,-164.55,170.227,1
8.592398,-2.181,-2.439,-0.49,-46.936,-179.809,208.557,1
8.60162,-2.557,-2.431,-0.438,-23.437,-195.617,236.999,1
8.609609,-2.888,-2.519,-0.393,1.098,-213.806,276.916,1
8.617337,-3.234,-2.641,-0.308,-30.395,-223.327,309.997,1
8.626695,-3.647,-2.692,-0.217,-94.177,-225.891,347.045,1
8.633595,-4.288,-2.402,0.004,-159.057,-224.121,398.254,1
8.642983,-4.583,-2.491,0.152,-198.974,-221.984,441.955,1
8.651101,-5.069,-2.468,0.416,-259.643,-203.918,499.633,1
8.659024,-5.826,-2.234,0.68,-310.18,-182.128,558.593,1
8.668149,-6.611,-2.032,0.86,-356.445,-151.184,610.107,1
8.674839,-7.371,-1.681,1.004,-394.836,-118.957,659.362,1
8.68504,-8.455,-1.249,1.214,-402.221,-70.678,714.172,1
8.693395,-9.526,-0.868,1.312,-397.766,-22.216,763.977,1
8.700795,-10.712,-0.495,1.377,-389.77,24.719,802.978,1
8.707701,-11.843,-0.127,1.354,-375.183,71.838,837.463,1
8.716681,-12.968,0.208,1.281,-350.402,127.441,873.535,1
8.72436,-14.285,0.579,1.125,-330.444,180.969,905.029,1
8.73374,-15.348,0.877,0.996,-317.81,226.867,928.222,1
8.740955,-15.999,1.196,0.865,-310.058,272.399,947.692,1
8.748398,-15.999,1.606,0.74,-292.602,317.871,962.768,1
8.757203,-15.999,1.978,0.648,-263.183,364.318,974.914,1
8.764893,-15.999,2.394,0.621,-230.712,408.752,981.14,1
8.772169,-15.999,2.686,0.598,-207.031,442.016,983.032,1
8.779818,-15.999,2.862,0.584,-201.171,478.759,982.91,1
8.789392,-15.999,3.024,0.485,-209.594,507.385,980.407,1
8.796742,-15.999,3.228,0.445,-230.163,552.429,973.144,1
8.805659,-15.999,3.343,0.384,-268.676,597.595,958.801,1
8.813104,-15.999,3.262,0.176,-343.566,660.095,937.194,1
8.821759,-15.999,3.351,0.103,-443.298,726.013,909.179,1
8.829161,-15.999,3.385,-0.154,-541.809,811.218,873.657,1
8.838461,-15.999,3.459,-0.546,-618.469,896.911,819.03,1
8.84548,-15.999,3.373,-0.836,-675.72,969.482,749.511,1
8.852565,-15.999,3.368,-1.582,-803.588,1034.423,658.264,1
8.861306,-15.999,3.374,-2.377,-945.983,1097.106,535.766,1
8.868388,-15.999,3.125,-2.857,-1147.033,1135.681,356.384,1
8.875728,-15.999,2.641,-3.241,-1289.489,1159.729,182.617,1
8.885089,-15.999,1.906,-3.516,-1423.339,1143.981,-0.122,1
8.892677,-15.999,1.198,-3.663,-1521.728,1099.548,-178.222,1
8.900577,-15.997,0.865,-3.031,-1509.887,988.83,-369.018,1
8.910947,-14.705,0.588,-2.573,-1374.572,875.244,-494.323,1
8.920055,-12.901,0.277,-1.905,-1148.071,705.932,-607.666,1
8.927163,-11.782,-0.122,-1.577,-991.027,590.82,-653.869,1
8.935729,-10.848,-0.57,-1.331,-868.469,486.206,-679.26,1
8.944753,-10.275,-0.971,-1.296,-762.634,381.53,-687.438,1
8.95175,-9.595,-1.341,-1.241,-705.566,284.729,-680.725,1
8.961357,-8.877,-1.509,-1.169,-633.117,200.744,-659.973,1
8.969518,-7.863,-1.627,-1.09,-536.254,132.019,-635.376,1
8.977519,-7.087,-1.725,-1.049,-421.63,75.744,-605.896,1
8.984522,-6.297,-1.836,-1.058,-326.171,21.057,-568.603,1
8.992457,-5.685,-1.829,-0.941,-290.039,-13.916,-536.926,1
9.000259,-5.194,-1.814,-0.794,-269.348,-47.485,-502.014,1
9.010033,-4.746,-1.734,-0.618,-257.019,-70.434,-472.9,1
9.019617,-4.233,-1.542,-0.462,-230.468,-98.022,-437.927,1
9.027504,-3.896,-1.39,-0.282,-189.27,-117.126,-409.973,1
9.036745,-3.691,-1.241,-0.15,-147.644,-133.361,-383.178,1
9.045023,-3.383,-1.238,-0.07,-105.712,-143.005,-363.647,1
9.053704,-3.193,-1.119,0.066,-56.701,-151.123,-342.163,1
9.060839,-2.95,-1.151,0.096,-9.948,-154.235,-326.599,1
9.068711,-2.757,-1.212,0.14,30.7,-155.578,-309.204,1
9.077428,-2.567,-1.249,0.135,54.626,-152.587,-295.898,1
9.084696,-2.415,-1.287,0.143,61.889,-147.705,-280.273,1
9.093439,-2.25,-1.336,0.153,48.278,-140.319,-267.272,1
9.10196,-2.038,-1.34,0.155,26.184,-132.751,-254.15,1
9.108752,-1.905,-1.324,0.164,3.295,-126.281,-241.088,1
9.117087,-1.773,-1.277,0.189,-13.549,-120.605,-227.966,1
9.125646,-1.667,-1.212,0.207,-20.996,-115.539,-213.439,1
9.132679,-1.577,-1.161,0.222,-14.77,-111.938,-199.768,1
9.140679,-1.521,-1.141,0.231,-4.455,-109.558,-188.72,1
9.149363,-1.421,-1.14,0.25,9.033,-106.689,-178.1,1
9.157659,-1.283,-1.15,0.264,27.099,-102.966,-166.076,1
9.166359,-1.17,-1.176,0.269,38.513,-99.121,-156.188,1
9.174841,-1.055,-1.2,0.263,42.114,-92.529,-144.409,1
9.183023,-0.958,-1.219,0.255,37.902,-86.486,-134.948,1
9.193399,-0.834,-1.226,0.24,28.991,-78.796,-123.657,1
9.200627,-0.732,-1.224,0.23,20.935,-71.838,-112.731,1
9.209432,-0.645,-1.239,0.224,15.258,-64.27,-101.806,1
9.217544,-0.536,-1.25,0.206,8.728,-57.373,-91.308,1
9.225873,-0.463,-1.255,0.203,7.019,-52.062,-82.946,1
9.233333,-0.391,-1.267,0.195,7.202,-46.325,-73.059,1
9.242493,-0.322,-1.288,0.192,8.483,-41.076,-65.124,1
9.251506,-0.281,-1.312,0.185,11.047,-35.644,-55.786,1
9.259278,-0.221,-1.346,0.179,12.145,-29.785,-47.973,1
9.267,-0.146,-1.367,0.163,9.582,-23.559,-39.245,1
9.275661,-0.086,-1.373,0.154,8.483,-17.761,-31.738,1
9.282483,-0.043,-1.373,0.138,7.629,-11.352,-23.437,1
9.290299,0.007,-1.374,0.111,2.746,-5.31,-16.906,1
9.298,0.041,-1.352,0.083,-4.028,0.183,-10.131,1
9.305286,0.072,-1.329,0.061,-8.728,5.249,-4.455,1
9.312203,0.086,-1.312,0.043,-10.62,10.314,1.159,1
9.319406,0.121,-1.288,0.015,-11.657,14.892,6.713,1
9.328305,0.16,-1.264,-0.01,-11.474,19.226,11.901,1
9.337003,0.183,-1.244,-0.053,-12.329,24.414,17.761,1
9.345866,0.216,-1.229,-0.083,-14.221,28.625,22.888,1
9.352579,0.247,-1.201,-0.11,-13.977,32.775,27.954,1
9.360105,0.274,-1.177,-0.148,-13.122,36.254,32.897,1
9.369239,0.31,-1.142,-0.197,-13.549,40.893,38.574,1
9.376413,0.328,-1.098,-0.25,-13.916,44.555,43.64,1
9.384652,0.35,-1.028,-0.308,-13.0,48.828,49.133,1
9.393934,0.361,-0.958,-0.371,-11.901,52.001,53.71,1
9.40102,0.366,-0.892,-0.441,-16.967,56.396,58.166,1
9.41009,0.358,-0.829,-0.512,-26.855,59.936,61.767,1
9.418247,0.346,-0.771,-0.583,-40.283,64.147,65.246,1
9.426867,0.333,-0.739,-0.65,-49.56,66.955,67.993,1
9.434339,0.369,-0.729,-0.712,-59.448,69.519,70.861,1
9.442105,0.396,-0.727,-0.76,-66.833,71.838,73.608,1
9.450022,0.41,-0.725,-0.795,-71.777,73.73,76.599,1
9.458383,0.428,-0.721,-0.825,-74.89,75.317,79.406,1
9.466119,0.447,-0.721,-0.847,-77.941,76.171,83.007,1
9.474023,0.472,-0.707,-0.845,-79.345,77.392,86.303,1
9.481727,0.479,-0.683,-0.844,-79.956,78.002,89.66,1
9.487997,0.475,-0.656,-0.828,-78.735,78.613,92.468,1
9.495929,0.486,-0.615,-0.817,-72.387,78.796,95.031,1
9.502904,0.461,-0.58,-0.801,-63.11,78.613,97.9,1
9.510218,0.427,-0.529,-0.794,-49.56,77.575,99.853,1
9.518511,0.414,-0.465,-0.781,-30.883,75.805,101.501,1
9.525192,0.351,-0.413,-0.767,-12.756,74.035,102.905,1
9.533387,0.332,-0.361,-0.748,8.85,72.387,104.492,1
9.540067,0.266,-0.308,-0.737,31.555,69.152,106.567,1
9.547887,0.306,-0.341,-0.716,58.166,68.481,107.91,1
9.554823,0.372,-0.359,-0.788,57.983,66.955,109.252,1
9.563201,0.357,-0.365,-0.771,44.311,68.847,111.022,1
9.56976,0.406,-0.346,-0.847,20.69,70.312,113.281,1
9.578716,0.433,-0.307,-0.838,-0.671,71.044,114.746,1
9.587116,0.458,-0.268,-0.879,-13.977,72.875,116.455,1
9.593807,0.388,-0.14,-0.843,-6.286,69.641,118.225,1
9.602533,0.432,-0.062,-0.839,29.357,64.758,119.873,1
9.609341,0.482,-0.068,-0.862,53.405,60.546,121.276,1
9.61765,0.465,-0.12,-0.849,55.419,56.701,123.413,1
9.625536,0.399,-0.114,-0.843,41.259,56.274,124.999,1
9.632324,0.405,-0.094,-0.803,27.404,55.847,126.586,1
9.639895,0.422,-0.064,-0.791,20.385,57.373,127.868,1
9.648575,0.417,-0.04,-0.774,16.113,57.861,129.028,1
9.655356,0.385,-0.027,-0.788,9.948,59.997,130.004,1
9.664046,0.354,-0.03,-0.798,-2.258,61.096,130.432,1
9.671079,0.318,-0.027,-0.798,-16.113,63.293,131.225,1
9.679717,0.31,-0.028,-0.799,-28.93,64.514,131.958,1
9.686907,0.325,-0.016,-0.748,-34.24,64.208,132.69,1
9.693993,0.365,-0.01,-0.712,-28.93,63.659,134.216,1
9.701994,0.419,-0.001,-0.667,-8.911,61.523,136.474,1
9.709021,0.504,0.006,-0.682,15.624,60.546,139.282,1
9.715894,0.545,0.02,-0.762,32.592,58.471,141.052,1
9.724365,0.542,0.026,-0.794,44.555,55.053,142.7,1
9.731026,0.532,0.016,-0.812,48.156,53.71,144.042,1
9.739397,0.519,0.016,-0.847,43.518,53.405,145.385,1
9.747319,0.493,0.023,-0.861,32.348,53.161,146.423,1
9.75409,0.445,0.049,-0.861,17.456,53.649,147.399,1
9.761231,0.403,0.078,-0.848,2.319,54.504,148.01,1
9.769451,0.357,0.109,-0.84,-9.582,55.297,148.193,1
9.77654,0.327,0.128,-0.846,-16.906,55.725,148.071,1
9.784722,0.311,0.138,-0.866,-21.057,56.701,148.132,1
9.791926,0.274,0.172,-0.918,-20.751,56.152,148.498,1
9.798324,0.253,0.226,-0.941,-15.991,55.053,148.803,1
9.805299,0.264,0.26,-0.968,-3.54,52.917,148.62,1
9.8135,0.24,0.281,-0.983,14.526,49.072,148.132,1
9.820603,0.186,0.282,-0.988,33.813,45.776,148.132,1
9.829536,0.131,0.258,-0.999,50.964,41.076,147.766,1
9.835748,0.095,0.208,-0.975,65.673,36.682,147.888,1
9.843594,0.094,0.133,-0.95,73.059,34.423,148.437,1
9.850437,0.104,0.082,-0.951,65.917,33.508,148.986,1
9.857419,0.098,0.056,-0.956,48.645,33.142,149.23,1
9.865255,0.088,0.062,-0.962,22.46,34.24,149.841,1
9.871903,0.076,0.095,-0.965,1.159,35.156,150.268,1
9.878873,0.057,0.119,-0.969,-9.46,35.705,150.634,1
9.885853,0.062,0.131,-0.966,-15.258,35.278,150.878,1
9.89372,0.076,0.125,-0.965,-14.953,34.423,151.245,1
9.901629,0.074,0.115,-0.969,-9.277,32.958,151.489,1
9.909519,0.04,0.091,-0.954,2.502,30.09,151.794,1
9.916174,0.02,0.054,-0.916,17.639,27.343,152.648,1
9.923866,0.02,0.015,-0.881,40.283,23.193,153.686,1
9.930443,0.068,-0.02,-0.849,64.514,19.409,155.09,1
9.93759,0.116,-0.062,-0.817,78.002,14.709,157.348,1
9.945939,0.077,-0.059,-0.784,100.097,11.657,160.156,1
9.95368,0.042,-0.047,-0.768,123.229,7.629,163.085,1
9.96243,0.055,-0.041,-0.736,142.456,4.089,165.71,1
9.9684,0.041,-0.04,-0.717,154.541,0.61,167.846,1
9.976358,0.021,-0.031,-0.687,161.56,-2.075,170.227,1
9.983236,-0.031,-0.031,-0.651,167.846,-4.882,173.034,1
9.990293,-0.187,0.003,-0.6,179.138,-6.408,176.452,1
9.997996,-0.241,0.023,-0.596,192.504,-11.169,179.138,1
