timestamp_s,ax,ay,az,gx,gy,gz,label
0.006137,0.002,0.985,0.204,0.915,0.061,0.122,1
0.012923,0.0,0.986,0.203,0.976,0.183,0.0,1
0.019884,0.0,0.981,0.199,0.915,0.183,0.122,1
0.030695,-0.002,0.983,0.196,0.915,0.183,0.0,1
0.037894,0.0,0.979,0.196,-0.122,0.183,0.244,1
0.045032,-0.001,0.979,0.193,-0.366,0.366,0.183,1
0.053328,0.0,0.982,0.194,-0.183,0.122,0.0,1
0.061341,0.0,0.988,0.194,0.183,0.305,0.305,1
0.068244,0.005,0.989,0.196,0.366,0.061,0.061,1
0.076731,0.001,0.985,0.194,0.61,-0.122,0.061,1
0.083547,0.002,0.984,0.196,0.366,0.122,-0.061,1
0.091714,0.003,0.986,0.196,0.549,-0.244,-0.122,1
0.099576,0.001,0.983,0.203,0.366,-0.122,-0.061,1
0.108853,0.0,0.983,0.196,0.183,-0.122,-0.061,1
0.115963,0.001,0.983,0.2,0.549,-0.427,-0.244,1
0.123534,0.0,0.98,0.202,1.098,-0.488,-0.244,1
0.132691,-0.001,0.981,0.205,1.647,-0.122,-0.305,1
0.140899,0.0,0.985,0.204,2.014,-0.183,-0.305,1
0.149981,0.0,0.978,0.201,1.708,-0.305,-0.122,1
0.157271,0.0,0.987,0.2,0.854,-0.061,-0.244,1
0.166131,0.004,0.982,0.197,0.488,-0.061,-0.366,1
0.17338,0.006,0.981,0.199,-0.244,-0.244,-0.183,1
0.18154,0.004,0.983,0.198,-0.915,-0.244,-0.061,1
0.189861,0.006,0.98,0.192,-1.525,-0.366,-0.122,1
0.198395,0.001,0.981,0.194,-1.647,-0.244,-0.122,1
0.207055,0.0,0.977,0.192,-1.037,-0.427,0.061,1
0.213966,0.0,0.973,0.19,-0.061,-0.366,0.0,1
0.222664,-0.001,0.975,0.195,0.61,-0.671,0.061,1
0.232838,-0.006,0.975,0.201,1.77,-0.732,0.366,1
0.238346,0.003,0.978,0.203,2.38,-0.854,0.305,1
0.246441,0.002,0.98,0.204,2.441,-0.732,0.549,1
0.255857,0.004,0.98,0.207,1.953,-0.549,0.122,1
0.26263,0.01,0.982,0.208,1.22,-0.366,0.305,1
0.27085,0.008,0.986,0.208,0.488,-0.305,0.427,1
0.278763,0.009,0.989,0.208,0.122,-0.305,0.305,1
0.286427,0.008,0.987,0.201,0.732,-0.244,0.244,1
0.294051,0.005,0.988,0.202,0.671,-0.183,0.183,1
0.302048,0.004,0.985,0.198,1.22,-0.244,0.244,1
0.310101,0.005,0.988,0.205,0.793,-0.305,-0.122,1
0.318721,0.006,0.987,0.212,0.976,-0.183,0.061,1
0.325659,0.006,0.991,0.213,1.159,-0.183,0.0,1
0.333305,0.005,0.994,0.213,1.281,-0.122,0.061,1
0.342111,0.006,0.996,0.214,1.037,0.061,-0.183,1
0.349442,0.008,0.992,0.212,0.854,0.305,-0.061,1
0.357807,0.01,0.995,0.213,0.61,0.305,-0.183,1
0.366106,0.009,0.997,0.204,0.427,0.366,-0.671,1
0.375367,0.011,0.998,0.207,0.488,0.427,-0.549,1
0.383227,0.009,1.009,0.207,0.793,0.305,-0.732,1
0.390136,0.012,1.023,0.203,1.098,0.366,-0.793,1
0.39724,0.025,1.045,0.206,0.305,0.61,-1.037,1
0.40531,0.033,1.075,0.208,-2.38,1.281,-1.953,1
0.41216,0.026,1.112,0.21,-5.187,1.525,-2.807,1
0.421132,0.03,1.16,0.199,-5.737,1.77,-3.784,1
0.429397,0.041,1.205,0.179,-5.004,1.831,-5.31,1
0.437622,0.054,1.256,0.161,-3.479,1.464,-7.385,1
0.444881,0.077,1.311,0.147,-1.159,0.671,-9.521,1
0.452587,0.1,1.365,0.144,1.892,0.122,-11.718,1
0.460757,0.128,1.423,0.141,5.31,-0.61,-14.587,1
0.468019,0.146,1.476,0.144,8.728,-1.037,-17.517,1
0.477384,0.158,1.528,0.145,9.704,-1.342,-21.362,1
0.484469,0.177,1.599,0.151,8.728,-1.281,-25.024,1
0.492975,0.195,1.663,0.154,6.774,-1.037,-29.968,1
0.500548,0.211,1.694,0.145,1.77,-0.366,-34.484,1
0.510097,0.242,1.698,0.129,-12.023,0.976,-39.245,1
0.517014,0.267,1.752,0.13,-24.108,2.258,-44.25,1
0.524858,0.274,1.811,0.139,-29.724,2.38,-49.255,1
0.534169,0.27,1.862,0.165,-32.47,3.112,-55.847,1
0.542256,0.284,1.896,0.173,-31.921,2.807,-62.316,1
0.549562,0.286,1.887,0.18,-29.907,2.685,-67.749,1
0.557243,0.286,1.857,0.188,-26.55,2.563,-74.462,1
0.566772,0.294,1.814,0.165,-24.108,2.258,-79.833,1
0.574038,0.291,1.762,0.183,-25.39,3.723,-85.083,1
0.581837,0.312,1.756,0.169,-28.015,4.821,-90.087,1
0.589129,0.323,1.793,0.165,-29.663,6.347,-95.642,1
0.599764,0.312,1.847,0.136,-28.076,7.568,-100.708,1
0.606835,0.308,1.882,0.098,-28.503,8.239,-106.994,1
0.61388,0.332,1.855,0.042,-37.17,9.399,-112.792,1
0.622686,0.363,1.808,-0.007,-50.17,10.07,-118.103,1
0.629544,0.354,1.765,-0.006,-57.495,9.765,-122.863,1
0.637692,0.322,1.655,0.031,-63.781,8.972,-126.037,1
0.646005,0.285,1.592,0.11,-58.532,8.605,-129.943,1
0.653051,0.233,1.522,0.227,-38.146,8.239,-133.667,1
0.660875,0.203,1.432,0.301,-3.234,8.178,-136.657,1
0.668047,0.198,1.214,0.333,17.15,8.117,-138.793,1
0.674936,0.208,1.063,0.377,21.972,11.474,-138.977,1
0.684135,0.21,0.929,0.369,15.624,15.441,-138.854,1
0.69159,0.248,0.77,0.37,-5.126,21.911,-137.573,1
0.700704,0.284,0.657,0.332,-35.888,27.526,-135.192,1
0.707604,0.332,0.574,0.306,-71.716,33.02,-132.385,1
0.716151,0.393,0.531,0.274,-111.511,37.353,-128.784,1
0.723549,0.453,0.477,0.257,-139.343,40.039,-125.549,1
0.733417,0.514,0.443,0.209,-165.527,41.625,-120.788,1
0.741236,0.578,0.44,0.174,-181.762,41.259,-116.821,1
0.749961,0.634,0.45,0.118,-191.467,39.733,-112.06,1
0.757717,0.643,0.499,0.102,-189.392,36.193,-107.482,1
0.765621,0.642,0.555,0.098,-171.813,31.188,-103.027,1
0.773743,0.621,0.617,0.102,-145.141,25.451,-99.731,1
0.781771,0.603,0.673,0.105,-110.961,19.226,-96.313,1
0.789792,0.601,0.711,0.108,-69.335,11.718,-92.956,1
0.796741,0.581,0.741,0.111,-38.879,6.652,-90.332,1
0.804724,0.546,0.772,0.119,-18.188,1.77,-88.745,1
0.812787,0.524,0.797,0.126,-13.061,-0.671,-87.707,1
0.821666,0.498,0.846,0.149,-16.662,-2.746,-87.219,1
0.82971,0.462,0.917,0.169,-23.742,-4.028,-87.402,1
0.836453,0.436,0.993,0.198,-29.357,-6.469,-88.623,1
0.845197,0.433,1.082,0.229,-27.282,-9.033,-90.454,1
0.85385,0.437,1.127,0.25,-22.644,-12.451,-91.125,1
0.861526,0.473,1.207,0.301,-15.258,-16.54,-93.444,1
0.868267,0.405,1.276,0.327,6.347,-20.263,-96.74,1
0.878122,0.314,1.339,0.366,32.104,-23.498,-100.036,1
0.884749,0.312,1.354,0.392,55.48,-26.306,-104.431,1
0.892931,0.27,1.372,0.417,63.232,-25.756,-109.008,1
0.902055,0.188,1.378,0.439,49.926,-23.193,-114.196,1
0.907911,0.186,1.354,0.457,18.92,-17.883,-119.018,1
0.917166,0.171,1.356,0.489,-18.676,-11.657,-124.145,1
0.924481,0.128,1.392,0.495,-52.124,-4.638,-130.004,1
0.933225,0.098,1.432,0.523,-55.297,-1.892,-134.704,1
0.941697,-0.002,1.442,0.548,-23.01,-0.366,-140.014,1
0.94862,0.096,1.425,0.568,25.512,-0.488,-145.507,1
0.956873,0.034,1.326,0.568,62.744,1.953,-149.536,1
0.963611,0.063,1.205,0.551,75.317,5.737,-153.442,1
0.970837,0.061,1.092,0.554,65.795,12.634,-156.188,1
0.979878,0.073,1.008,0.533,42.358,19.836,-158.935,1
0.987466,0.092,0.956,0.541,18.554,27.282,-160.461,1
0.994811,0.087,0.906,0.518,2.502,33.63,-162.17,1
1.001578,0.109,0.848,0.495,-6.103,38.269,-162.841,1
1.01036,0.189,0.779,0.492,-3.784,43.945,-163.33,1
1.017272,0.208,0.716,0.446,3.54,48.034,-163.024,1
1.024157,0.223,0.644,0.433,11.291,53.344,-161.987,1
1.032402,0.233,0.583,0.395,15.747,59.326,-160.705,1
1.039389,0.228,0.518,0.366,17.578,65.307,-158.935,1
1.047804,0.253,0.476,0.33,19.287,71.289,-157.47,1
1.054989,0.272,0.43,0.305,19.775,76.232,-155.395,1
1.063196,0.29,0.392,0.27,21.301,80.871,-153.442,1
1.070286,0.293,0.358,0.234,23.986,83.251,-151.428,1
1.078472,0.294,0.317,0.191,28.991,85.51,-148.803,1
1.085005,0.305,0.273,0.148,35.156,86.181,-146.362,1
1.092209,0.335,0.233,0.122,43.334,87.036,-142.944,1
1.100313,0.366,0.197,0.078,51.147,87.829,-139.709,1
1.107337,0.379,0.169,0.035,57.739,88.806,-136.047,1
1.115672,0.395,0.143,-0.022,61.828,89.66,-132.568,1
1.122583,0.414,0.11,-0.067,64.514,91.491,-128.967,1
1.130727,0.414,0.072,-0.115,64.941,93.261,-125.488,1
1.137425,0.41,0.025,-0.174,59.509,95.52,-121.826,1
1.145706,0.427,-0.018,-0.225,46.936,98.022,-118.225,1
1.153586,0.434,-0.04,-0.278,31.921,100.097,-114.929,1
1.160638,0.443,-0.061,-0.324,17.944,101.989,-111.694,1
1.168798,0.464,-0.076,-0.371,6.53,102.661,-108.825,1
1.176277,0.454,-0.092,-0.427,1.586,102.233,-105.651,1
1.184083,0.456,-0.092,-0.468,5.371,99.975,-102.661,1
1.191004,0.495,-0.12,-0.528,16.967,98.266,-99.67,1
1.198869,0.522,-0.143,-0.604,23.986,94.421,-96.496,1
1.205981,0.57,-0.171,-0.652,28.259,92.834,-93.139,1
1.214219,0.596,-0.189,-0.707,27.893,89.66,-89.538,1
1.222147,0.591,-0.19,-0.718,29.785,87.28,-86.181,1
1.230382,0.585,-0.182,-0.733,36.743,83.068,-82.824,1
1.237535,0.612,-0.191,-0.746,46.386,79.956,-79.284,1
1.24546,0.635,-0.212,-0.771,49.377,76.904,-75.378,1
1.252484,0.647,-0.218,-0.802,39.794,74.768,-71.228,1
1.260412,0.654,-0.201,-0.825,28.503,73.181,-68.603,1
1.269081,0.651,-0.173,-0.839,20.019,70.251,-65.49,1
1.276679,0.655,-0.147,-0.857,21.545,66.65,-63.049,1
1.283442,0.659,-0.137,-0.877,26.184,63.232,-61.157,1
1.292249,0.682,-0.132,-0.896,30.639,59.326,-59.143,1
1.301064,0.7,-0.12,-0.901,34.79,55.175,-56.884,1
1.308139,0.717,-0.122,-0.906,36.621,51.696,-54.565,1
1.31635,0.717,-0.118,-0.905,35.278,48.645,-52.673,1
1.323591,0.742,-0.12,-0.912,28.686,45.166,-50.17,1
1.331878,0.766,-0.108,-0.912,21.484,42.663,-48.278,1
1.339873,0.778,-0.079,-0.917,15.38,39.245,-46.569,1
1.348311,0.789,-0.058,-0.906,10.07,35.949,-45.471,1
1.355592,0.811,-0.017,-0.916,9.033,31.677,-44.555,1
1.363646,0.807,-0.017,-0.908,11.047,28.259,-43.945,1
1.374013,0.799,-0.01,-0.902,15.686,23.742,-42.602,1
1.381201,0.818,-0.004,-0.879,23.803,20.385,-42.114,1
1.389232,0.832,-0.011,-0.858,28.381,15.441,-41.687,1
1.396814,0.84,-0.02,-0.861,35.522,13.366,-40.832,1
1.405371,0.825,-0.023,-0.847,35.4,10.07,-40.649,1
1.413751,0.823,-0.025,-0.841,30.212,8.544,-40.283,1
1.421878,0.816,-0.019,-0.815,18.005,5.31,-40.161,1
1.430258,0.847,-0.01,-0.823,14.465,5.249,-39.428,1
1.438367,0.84,-0.023,-0.808,11.108,2.746,-39.245,1
1.447079,0.846,-0.03,-0.797,8.178,0.976,-39.245,1
1.454211,0.843,-0.033,-0.767,5.065,-2.136,-39.428,1
1.461122,0.861,-0.034,-0.76,9.582,-3.173,-39.245,1
1.469112,0.865,-0.054,-0.713,13.244,-5.31,-38.879,1
1.476816,0.852,-0.066,-0.711,13.854,-6.652,-38.757,1
1.485613,0.803,-0.084,-0.666,0.976,-7.995,-38.574,1
1.494144,0.782,-0.122,-0.695,-25.024,-5.493,-38.33,1
1.502895,0.765,-0.122,-0.645,-57.189,-4.516,-37.536,1
1.511968,0.772,-0.075,-0.608,-85.205,-3.112,-37.17,1
1.520529,0.75,-0.04,-0.597,-93.994,-5.554,-37.597,1
1.528911,0.729,-0.027,-0.573,-82.214,-7.019,-38.513,1
1.538195,0.688,-0.026,-0.571,-67.993,-10.437,-40.039,1
1.546308,0.673,-0.042,-0.563,-52.124,-11.779,-41.931,1
1.555181,0.625,-0.061,-0.552,-40.649,-13.366,-43.701,1
1.563101,0.623,-0.086,-0.553,-32.897,-13.366,-45.227,1
1.570989,0.637,-0.128,-0.52,-25.817,-13.427,-46.508,1
1.579724,0.677,-0.161,-0.525,-20.202,-13.122,-47.546,1
1.587371,0.744,-0.17,-0.498,-16.296,-12.39,-48.217,1
1.596686,0.751,-0.181,-0.502,-7.446,-12.451,-47.79,1
1.603723,0.815,-0.191,-0.469,2.136,-11.474,-46.936,1
1.611964,0.833,-0.215,-0.458,6.042,-11.535,-46.203,1
1.6195,0.838,-0.227,-0.418,3.234,-9.643,-44.921,1
1.627635,0.834,-0.227,-0.408,-2.685,-8.178,-44.25,1
1.63771,0.83,-0.223,-0.37,-7.019,-5.371,-43.518,1
1.644842,0.866,-0.217,-0.353,-8.544,-3.845,-42.663,1
1.653775,0.89,-0.222,-0.326,-7.141,-1.831,-41.687,1
1.661293,0.948,-0.226,-0.307,-5.554,-0.122,-40.283,1
1.671932,0.937,-0.22,-0.283,-1.77,0.976,-38.94,1
1.679745,0.928,-0.217,-0.238,6.591,2.99,-37.414,1
1.686874,0.906,-0.222,-0.198,15.197,4.577,-36.315,1
1.695864,0.865,-0.22,-0.163,22.583,6.713,-35.278,1
1.702886,0.823,-0.225,-0.136,31.921,8.056,-34.118,1
1.711523,0.781,-0.232,-0.106,47.729,9.948,-32.653,1
1.719461,0.73,-0.256,-0.086,60.18,12.145,-31.188,1
1.728069,0.637,-0.306,-0.051,64.575,16.296,-28.686,1
1.73572,0.583,-0.363,-0.03,55.908,21.057,-26.367,1
1.74305,0.497,-0.425,0.007,35.705,27.77,-23.193,1
1.751639,0.407,-0.479,0.047,13.244,34.423,-19.592,1
1.760128,0.347,-0.544,0.102,-9.521,42.358,-14.648,1
1.767336,0.307,-0.583,0.149,-17.211,48.4,-10.559,1
1.776139,0.249,-0.618,0.202,-10.07,53.833,-6.896,1
1.785101,0.147,-0.699,0.251,4.516,58.776,-1.953,1
1.791424,0.088,-0.774,0.27,27.282,63.964,4.821,1
1.799647,0.001,-0.834,0.281,51.33,68.969,11.413,1
1.808493,-0.07,-0.919,0.256,75.134,74.707,20.812,1
1.815691,-0.151,-0.997,0.217,80.383,81.42,29.785,1
1.823266,-0.22,-1.071,0.161,69.213,89.233,40.222,1
1.833306,-0.3,-1.111,0.106,47.668,97.229,51.147,1
1.840236,-0.39,-1.09,0.065,25.878,106.323,64.208,1
1.848871,-0.48,-1.008,0.036,22.46,111.572,75.561,1
1.856137,-0.64,-0.937,-0.048,30.029,116.699,86.486,1
1.864308,-0.774,-0.902,-0.103,37.78,120.544,99.243,1
1.871603,-0.863,-0.87,-0.15,47.058,123.901,111.022,1
1.881245,-1.004,-0.849,-0.204,58.532,125.732,123.474,1
1.888137,-1.15,-0.849,-0.276,69.152,128.723,138.549,1
1.895869,-1.278,-0.839,-0.334,69.58,130.859,154.663,1
1.905693,-1.417,-0.846,-0.394,67.504,133.239,169.494,1
1.912538,-1.568,-0.85,-0.459,64.453,134.277,185.241,1
1.92307,-1.722,-0.837,-0.537,59.02,135.925,203.918,1
1.930218,-1.948,-0.812,-0.625,54.687,136.657,223.51,1
1.93862,-2.132,-0.777,-0.674,54.321,136.413,240.478,1
1.946659,-2.319,-0.756,-0.72,59.326,134.826,260.986,1
1.953418,-2.461,-0.728,-0.78,67.321,130.859,279.785,1
1.961489,-2.628,-0.718,-0.788,76.232,125.549,300.415,1
1.969841,-2.88,-0.753,-0.833,73.486,120.117,323.913,1
1.97849,-3.005,-0.765,-0.905,69.946,109.252,353.332,1
1.985381,-3.116,-0.779,-1.015,80.871,99.487,381.774,1
1.99408,-3.311,-0.813,-1.183,107.604,82.458,417.663,1
2.001183,-3.532,-0.867,-1.372,144.714,64.758,451.66,1
2.009386,-3.786,-0.954,-1.6,190.246,41.442,487.853,1
2.017451,-4.158,-1.029,-1.79,238.098,12.512,526.001,1
2.024832,-4.732,-1.111,-1.975,283.874,-29.418,570.129,1
2.032662,-5.325,-1.177,-2.066,304.26,-70.19,606.933,1
2.039793,-5.949,-1.201,-2.094,304.748,-113.769,641.357,1
2.047579,-6.778,-1.12,-2.035,299.987,-150.451,668.457,1
2.055372,-7.611,-0.992,-1.933,306.091,-204.65,703.857,1
2.062162,-8.653,-0.807,-1.852,325.256,-254.455,730.407,1
2.070324,-9.748,-0.642,-1.692,349.67,-306.884,753.906,1
2.077271,-10.835,-0.413,-1.61,371.276,-351.989,770.08,1
2.086749,-11.734,-0.148,-1.359,372.253,-409.667,785.583,1
2.093899,-12.634,0.148,-1.201,359.497,-472.351,796.447,1
2.101805,-13.508,0.508,-0.929,339.233,-524.475,800.72,1
2.109491,-14.456,0.92,-0.728,328.369,-574.218,800.903,1
2.117184,-15.37,1.335,-0.441,333.374,-634.338,794.677,1
2.125396,-15.999,1.675,-0.226,370.788,-689.269,782.287,1
2.131954,-15.999,1.78,0.076,420.532,-749.267,762.268,1
2.14006,-15.999,1.792,0.407,462.768,-802.429,737.548,1
2.146507,-15.999,2.004,0.765,504.394,-846.557,710.449,1
2.15503,-15.999,2.448,1.104,607.421,-893.615,664.062,1
2.161939,-15.999,2.78,1.45,765.869,-955.871,598.327,1
2.169071,-15.999,2.996,1.816,979.736,-1011.657,500.061,1
2.177568,-15.999,2.674,2.135,1135.376,-1065.124,370.91,1
2.184499,-15.999,2.479,2.145,1162.963,-1096.069,226.196,1
2.192625,-15.999,2.096,2.731,1096.252,-1096.069,77.27,1
2.201031,-15.999,1.754,3.04,945.068,-1037.719,-52.062,1
2.208533,-15.366,1.645,3.308,737.182,-968.261,-164.428,1
2.219045,-14.469,1.987,3.07,711.852,-890.319,-241.088,1
2.22591,-13.233,1.666,2.791,753.478,-840.881,-342.529,1
2.233318,-11.527,1.359,2.618,742.37,-741.149,-406.799,1
2.241816,-10.52,1.103,2.106,690.917,-704.772,-463.195,1
2.249402,-9.317,0.807,2.099,686.828,-610.534,-502.197,1
2.259245,-8.587,0.562,1.74,624.267,-551.147,-539.428,1
2.26833,-7.891,0.341,1.577,554.199,-460.021,-560.363,1
2.274861,-7.498,0.19,1.424,459.35,-412.048,-571.228,1
2.284521,-6.712,0.004,1.439,348.999,-334.96,-572.021,1
2.291656,-6.244,-0.047,1.452,252.441,-297.729,-567.749,1
2.300473,-5.805,-0.079,1.471,193.359,-250.915,-556.396,1
2.309374,-5.567,-0.064,1.578,178.1,-224.121,-543.945,1
2.31732,-5.273,-0.064,1.572,209.228,-194.213,-530.639,1
2.325379,-5.024,-0.127,1.701,258.178,-171.569,-520.019,1
2.334589,-4.82,-0.233,1.63,310.058,-137.817,-506.957,1
2.342785,-4.673,-0.365,1.63,334.228,-109.191,-494.811,1
2.351204,-4.47,-0.541,1.513,328.124,-69.763,-476.745,1
2.358516,-4.275,-0.654,1.464,299.865,-38.879,-459.472,1
2.366249,-3.986,-0.761,1.345,256.408,-4.943,-438.049,1
2.375812,-3.712,-0.824,1.302,221.618,18.859,-419.677,1
2.383018,-3.388,-0.904,1.223,194.274,41.015,-401.367,1
2.391157,-3.016,-1.003,1.18,171.325,59.387,-383.239,1
2.397316,-2.715,-1.08,1.139,153.32,78.918,-362.06,1
2.406609,-2.448,-1.161,1.072,143.676,91.308,-343.383,1
2.414732,-2.246,-1.23,1.052,141.967,103.454,-324.645,1
2.421648,-2.101,-1.288,0.994,141.357,113.037,-305.664,1
2.43101,-1.938,-1.391,0.948,139.221,123.657,-282.531,1
2.438734,-1.739,-1.461,0.87,127.685,131.591,-259.643,1
2.447797,-1.611,-1.476,0.836,113.647,139.526,-239.99,1
2.45552,-1.444,-1.421,0.773,100.036,144.47,-218.139,1
2.464214,-1.242,-1.406,0.692,100.341,149.597,-199.829,1
2.471867,-1.15,-1.381,0.646,93.322,150.512,-179.626,1
2.479439,-1.042,-1.396,0.618,83.435,153.747,-161.865,1
2.487554,-0.926,-1.365,0.565,77.697,153.503,-144.836,1
2.496628,-0.825,-1.307,0.553,73.364,155.761,-126.464,1
2.504528,-0.746,-1.278,0.49,67.199,152.282,-108.886,1
2.513586,-0.617,-1.271,0.437,71.35,155.09,-93.749,1
2.521697,-0.501,-1.259,0.383,70.678,150.329,-77.88,1
2.529056,-0.394,-1.216,0.333,65.551,150.146,-62.561,1
2.538433,-0.347,-1.173,0.316,59.265,146.179,-50.964,1
2.548205,-0.306,-1.106,0.282,56.091,145.629,-38.085,1
2.556348,-0.251,-1.053,0.28,50.781,141.845,-27.099,1
2.563424,-0.182,-1.005,0.24,45.532,140.441,-18.432,1
2.571329,-0.116,-0.948,0.242,41.625,137.023,-9.643,1
2.580375,-0.047,-0.901,0.212,39.916,134.46,-2.99,1
2.587852,0.009,-0.846,0.213,40.283,131.164,4.211,1
2.596829,0.07,-0.809,0.195,40.832,128.479,9.948,1
2.605188,0.18,-0.76,0.206,41.809,125.183,16.662,1
2.612794,0.254,-0.706,0.201,44.86,122.131,22.216,1
2.620167,0.318,-0.642,0.205,49.316,119.201,27.221,1
2.628673,0.372,-0.585,0.197,52.795,115.844,32.653,1
2.636733,0.42,-0.549,0.2,52.062,111.999,36.621,1
2.643577,0.467,-0.502,0.193,47.668,110.656,40.222,1
2.650754,0.518,-0.453,0.188,39.001,108.276,43.212,1
2.659048,0.561,-0.405,0.191,30.212,107.971,45.837,1
2.667213,0.598,-0.351,0.176,20.874,106.506,47.973,1
2.675018,0.624,-0.287,0.173,14.221,105.651,49.804,1
2.683598,0.704,-0.229,0.159,11.657,102.661,51.94,1
2.691026,0.799,-0.177,0.167,13.305,99.487,53.649,1
2.697717,0.853,-0.136,0.149,17.7,96.923,55.419,1
2.704563,0.851,-0.102,0.148,21.85,94.116,56.518,1
2.712695,0.845,-0.081,0.136,23.376,92.346,57.067,1
2.719283,0.843,-0.069,0.134,21.362,90.515,57.312,1
2.727657,0.871,-0.053,0.144,16.052,89.355,56.701,1
2.734467,0.913,-0.03,0.132,9.704,88.195,56.335,1
2.743698,0.921,-0.004,0.129,5.126,87.341,55.786,1
2.750691,0.917,0.02,0.117,3.723,86.791,54.992,1
2.759306,0.923,0.052,0.102,5.615,85.571,53.588,1
2.766386,0.959,0.074,0.094,8.544,84.35,52.307,1
2.773887,1.0,0.097,0.082,10.742,82.824,51.086,1
2.782697,1.0,0.13,0.077,12.573,81.481,49.316,1
2.79027,0.969,0.159,0.078,16.906,80.017,46.936,1
2.798554,0.939,0.187,0.074,25.451,77.941,44.311,1
2.806146,0.933,0.216,0.065,40.954,75.439,41.259,1
2.813097,0.927,0.225,0.055,52.856,73.486,39.001,1
2.820502,0.924,0.234,0.037,65.185,71.166,36.254,1
2.828898,0.922,0.231,0.015,73.12,68.908,33.813,1
2.837119,0.928,0.224,-0.015,77.758,66.589,30.761,1
2.845627,0.933,0.219,-0.037,78.735,65.307,27.893,1
2.852787,0.941,0.213,-0.05,79.284,63.781,24.902,1
2.860919,0.939,0.205,-0.056,80.017,62.866,22.338,1
2.868124,0.935,0.201,-0.066,81.481,62.072,20.202,1
2.875107,0.927,0.196,-0.071,83.801,61.035,17.761,1
2.884221,0.922,0.194,-0.075,87.646,59.814,16.113,1
2.891631,0.9,0.187,-0.079,94.726,58.349,14.282,1
2.899867,0.929,0.181,-0.073,102.661,56.701,13.183,1
2.906879,0.927,0.165,-0.087,108.52,55.725,12.512,1
2.914792,0.915,0.159,-0.088,110.473,54.87,11.84,1
2.9219,0.916,0.154,-0.096,109.802,54.626,11.23,1
2.930749,0.915,0.158,-0.102,108.398,53.955,10.559,1
2.938003,0.934,0.173,-0.102,111.389,53.71,9.826,1
2.946906,0.935,0.16,-0.106,112.854,53.222,9.216,1
2.954067,0.941,0.148,-0.125,113.098,53.222,8.605,1
2.963616,0.916,0.138,-0.114,112.854,52.734,7.873,1
2.971148,0.916,0.131,-0.124,115.112,52.185,7.629,1
2.979234,0.901,0.127,-0.125,117.797,51.818,7.202,1
2.986692,0.886,0.142,-0.146,122.192,51.513,7.568,1
2.995233,0.888,0.119,-0.151,123.596,50.659,7.751,1
3.003796,0.89,0.126,-0.176,121.337,51.513,7.69,1
3.012071,0.874,0.156,-0.181,115.722,51.086,7.568,1
3.019891,0.899,0.15,-0.186,110.9,51.391,7.69,1
3.028595,0.895,0.153,-0.195,109.008,51.086,7.751,1
3.035755,0.873,0.142,-0.198,107.727,50.903,7.568,1
3.044365,0.871,0.15,-0.208,105.834,51.391,7.202,1
3.05231,0.841,0.15,-0.21,102.111,51.879,6.835,1
3.059334,0.841,0.153,-0.213,98.51,53.1,6.347,1
3.066588,0.826,0.179,-0.218,94.848,53.71,6.225,1
3.075524,0.843,0.171,-0.208,90.942,54.443,6.103,1
3.083482,0.844,0.165,-0.227,87.097,54.992,6.347,1
3.092305,0.854,0.195,-0.223,84.411,55.786,6.103,1
3.099418,0.858,0.208,-0.234,80.932,56.091,5.92,1
3.108478,0.863,0.223,-0.242,79.467,56.945,5.554,1
3.116663,0.872,0.25,-0.248,78.369,57.128,4.76,1
3.123916,0.874,0.273,-0.249,78.857,58.166,3.784,1
3.132672,0.922,0.296,-0.258,80.2,58.532,3.295,1
3.140352,0.944,0.322,-0.252,83.435,58.654,2.197,1
3.148079,0.963,0.333,-0.254,86.303,58.776,1.281,1
3.156175,0.984,0.35,-0.269,88.5,58.105,0.549,1
3.16487,0.994,0.366,-0.26,92.346,57.678,-0.183,1
3.17107,0.984,0.387,-0.274,98.205,57.434,-0.732,1
3.180609,0.966,0.39,-0.288,106.079,56.701,-1.464,1
3.189097,0.937,0.382,-0.315,113.098,56.396,-2.319,1
3.196644,0.922,0.386,-0.327,120.056,56.518,-2.868,1
3.203857,0.897,0.373,-0.359,122.497,56.457,-3.54,1
3.211653,0.878,0.38,-0.386,122.436,57.922,-4.15,1
3.22009,0.89,0.376,-0.415,116.76,58.654,-4.882,1
3.226435,0.89,0.38,-0.431,106.567,60.302,-5.31,1
3.235192,0.884,0.384,-0.448,97.351,61.462,-5.859,1
3.242713,0.871,0.39,-0.462,84.899,62.561,-6.591,1
3.252116,0.841,0.395,-0.458,77.27,62.011,-7.019,1
3.259853,0.851,0.395,-0.477,74.279,62.316,-8.056,1
3.267284,0.827,0.427,-0.451,82.763,62.133,-8.666,1
3.276184,0.833,0.418,-0.436,100.219,60.363,-9.582,1
3.283862,0.803,0.414,-0.413,128.906,58.654,-10.253,1
3.292199,0.774,0.419,-0.419,161.193,57.617,-10.009,1
3.299983,0.763,0.385,-0.38,187.133,55.236,-9.948,1
3.307369,0.744,0.357,-0.397,206.542,56.274,-8.544,1
3.316088,0.719,0.335,-0.381,213.195,56.152,-6.958,1
3.3232,0.691,0.32,-0.386,206.481,59.02,-5.065,1
3.331591,0.659,0.312,-0.384,188.171,60.363,-3.417,1
3.339044,0.634,0.305,-0.389,160.156,65.368,-2.319,1
3.347692,0.638,0.308,-0.391,132.08,67.199,-1.586,1
3.355778,0.648,0.315,-0.378,108.886,70.983,-1.403,1
3.364466,0.663,0.33,-0.354,92.102,71.838,-1.525,1
3.373006,0.677,0.336,-0.354,91.064,72.998,-1.464,1
3.382225,0.682,0.361,-0.328,102.905,71.716,-1.342,1
3.390997,0.693,0.364,-0.333,124.45,70.373,-1.159,1
3.397943,0.687,0.374,-0.324,150.512,69.091,0.061,1
3.407039,0.693,0.37,-0.338,170.227,68.176,1.281,1
3.415137,0.684,0.372,-0.353,182.739,68.847,3.234,1
3.422274,0.672,0.373,-0.376,180.297,69.946,4.882,1
3.429277,0.676,0.374,-0.382,166.87,72.265,6.286,1
3.436662,0.687,0.387,-0.397,148.742,75.622,7.812,1
3.447204,0.713,0.402,-0.41,127.38,79.345,9.094,1
3.456235,0.713,0.443,-0.417,107.849,83.312,9.826,1
3.463276,0.665,0.459,-0.413,91.308,87.158,9.46,1
3.470597,0.607,0.482,-0.392,86.547,89.843,9.826,1
3.478418,0.613,0.502,-0.396,88.928,90.515,10.009,1
3.485937,0.636,0.527,-0.401,96.923,91.857,10.62,1
3.493975,0.649,0.541,-0.427,101.013,92.163,11.413,1
3.501348,0.641,0.553,-0.457,99.243,93.811,11.474,1
3.509475,0.618,0.576,-0.476,93.2,95.336,11.413,1
3.516385,0.624,0.579,-0.523,83.007,96.862,11.352,1
3.526129,0.605,0.602,-0.525,69.152,98.876,10.131,1
3.534197,0.607,0.616,-0.553,60.363,100.036,9.033,1
3.542597,0.591,0.622,-0.544,58.41,100.585,7.934,1
3.550366,0.578,0.627,-0.555,61.645,100.402,6.713,1
3.558157,0.568,0.63,-0.566,67.199,100.097,5.92,1
3.566551,0.567,0.639,-0.586,69.274,99.182,4.76,1
3.574499,0.565,0.645,-0.607,69.335,98.571,3.906,1
3.582135,0.554,0.653,-0.635,68.298,97.778,2.685,1
3.589082,0.554,0.664,-0.66,66.589,97.045,2.075,1
3.597971,0.557,0.674,-0.681,65.49,95.703,0.976,1
3.606167,0.549,0.687,-0.719,64.331,94.604,-0.061,1
3.613113,0.541,0.693,-0.755,63.415,92.468,-1.342,1
3.622233,0.562,0.705,-0.792,64.453,90.148,-2.197,1
3.629931,0.599,0.711,-0.824,66.894,88.5,-3.173,1
3.63898,0.605,0.727,-0.865,70.922,85.021,-4.211,1
3.646411,0.632,0.724,-0.899,75.744,82.153,-5.187,1
3.654077,0.629,0.735,-0.904,81.298,78.796,-5.92,1
3.663187,0.641,0.734,-0.935,87.158,76.049,-6.774,1
3.670259,0.61,0.734,-0.923,93.933,72.204,-8.056,1
3.678966,0.608,0.716,-0.956,97.534,69.702,-8.544,1
3.687972,0.579,0.715,-0.954,95.52,66.772,-9.46,1
3.696671,0.563,0.705,-0.965,90.026,63.842,-10.498,1
3.704939,0.559,0.695,-0.959,85.388,61.95,-11.23,1
3.713549,0.568,0.693,-0.953,83.801,59.875,-12.145,1
3.719776,0.595,0.682,-0.964,84.106,56.64,-12.756,1
3.727326,0.592,0.675,-0.966,81.176,54.382,-13.305,1
3.735332,0.602,0.67,-0.968,74.462,52.49,-14.221,1
3.74443,0.593,0.673,-0.975,66.772,50.72,-15.197,1
3.75191,0.597,0.687,-0.977,59.997,48.461,-16.296,1
3.760158,0.597,0.693,-0.968,54.321,45.532,-18.249,1
3.768166,0.588,0.691,-0.952,52.978,43.029,-19.47,1
3.775559,0.599,0.688,-0.939,53.649,40.649,-20.568,1
3.784293,0.604,0.68,-0.92,57.922,37.17,-21.606,1
3.791821,0.596,0.663,-0.904,62.805,34.057,-22.399,1
3.80084,0.619,0.66,-0.887,69.519,31.066,-22.949,1
3.807048,0.636,0.657,-0.88,73.242,28.808,-23.01,1
3.816203,0.645,0.653,-0.874,73.303,26.794,-23.193,1
3.823693,0.665,0.658,-0.865,69.335,25.39,-23.681,1
3.830796,0.677,0.691,-0.875,61.523,24.414,-24.047,1
3.839455,0.693,0.719,-0.87,53.344,23.376,-24.902,1
3.849363,0.718,0.731,-0.875,46.02,21.972,-26.062,1
3.856973,0.748,0.764,-0.869,42.175,19.714,-27.099,1
3.864497,0.76,0.785,-0.857,42.785,17.639,-28.381,1
3.872416,0.748,0.791,-0.849,45.471,15.258,-29.541,1
3.881643,0.746,0.788,-0.839,48.583,13.427,-30.456,1
3.888365,0.735,0.776,-0.819,51.574,10.986,-31.921,1
3.897509,0.718,0.769,-0.796,53.894,9.277,-33.081,1
3.905131,0.691,0.752,-0.772,55.419,7.507,-34.24,1
3.912827,0.676,0.743,-0.75,55.48,6.713,-35.522,1
3.920561,0.656,0.735,-0.729,53.833,5.859,-36.499,1
3.928958,0.645,0.728,-0.71,50.598,5.432,-37.536,1
3.935607,0.636,0.719,-0.7,45.532,5.249,-38.513,1
3.943613,0.625,0.71,-0.689,39.367,5.371,-39.855,1
3.953205,0.613,0.695,-0.684,32.165,5.249,-41.32,1
3.960717,0.613,0.68,-0.668,24.902,5.249,-42.541,1
3.967956,0.621,0.668,-0.663,19.714,5.371,-43.823,1
3.976138,0.654,0.65,-0.657,14.465,5.432,-45.043,1
3.983657,0.689,0.63,-0.656,6.652,5.737,-45.898,1
3.991324,0.695,0.614,-0.641,0.427,5.981,-46.874,1
4.000136,0.736,0.604,-0.621,-2.502,6.042,-47.607,1
4.008424,0.699,0.58,-0.623,-7.385,6.53,-47.912,1
4.017336,0.699,0.565,-0.61,-11.84,7.08,-47.912,1
4.026732,0.678,0.562,-0.59,-13.916,7.141,-48.278,1
4.034067,0.644,0.552,-0.581,-10.986,6.713,-48.461,1
4.041828,0.664,0.524,-0.553,-11.169,7.263,-48.706,1
4.05066,0.641,0.484,-0.541,-9.216,6.774,-48.522,1
4.058039,0.69,0.422,-0.508,-2.075,7.446,-48.95,1
4.066652,0.773,0.414,-0.47,12.756,7.873,-48.767,1
4.073606,0.737,0.415,-0.479,25.817,7.69,-47.546,1
4.082987,0.687,0.396,-0.489,32.531,7.568,-45.043,1
4.090005,0.623,0.415,-0.504,39.428,7.324,-42.968,1
4.09829,0.588,0.426,-0.486,46.813,6.591,-41.259,1
4.10599,0.657,0.439,-0.441,62.194,7.08,-40.344,1
4.114969,0.625,0.416,-0.405,71.411,7.934,-39.855,1
4.122747,0.568,0.399,-0.392,75.195,8.666,-39.611,1
4.129749,0.529,0.406,-0.392,72.143,9.765,-38.146,1
4.137966,0.505,0.411,-0.416,68.237,10.009,-36.01,1
4.146324,0.497,0.411,-0.445,61.34,10.131,-32.165,1
4.154677,0.561,0.407,-0.502,47.729,9.765,-28.137,1
4.162525,0.709,0.399,-0.528,27.343,9.521,-23.681,1
4.169953,0.77,0.4,-0.516,12.634,9.887,-21.423,1
4.178785,0.78,0.433,-0.496,7.019,8.789,-19.714,1
4.185093,0.754,0.459,-0.526,13.244,7.751,-18.249,1
4.192667,0.77,0.518,-0.526,31.982,4.272,-16.296,1
4.20047,0.793,0.543,-0.551,60.058,0.976,-14.587,1
4.208673,0.79,0.569,-0.576,81.237,-2.38,-14.587,1
4.217795,0.785,0.608,-0.593,93.2,-4.577,-14.648,1
4.224981,0.749,0.676,-0.61,99.67,-7.568,-16.174,1
4.233734,0.704,0.741,-0.611,104.614,-9.399,-18.005,1
4.24257,0.696,0.766,-0.563,103.454,-9.582,-20.019,1
4.249816,0.794,0.755,-0.548,83.068,-7.812,-22.094,1
4.257828,0.922,0.779,-0.567,48.828,-6.164,-23.986,1
4.264987,0.973,0.841,-0.578,26.0,-5.371,-26.245,1
4.273815,0.992,0.899,-0.578,17.944,-5.615,-28.564,1
4.281591,1.009,0.942,-0.573,23.864,-6.958,-31.982,1
4.290471,0.998,0.95,-0.573,33.447,-8.483,-35.217,1
4.298138,0.974,0.933,-0.574,39.855,-9.521,-38.696,1
4.305794,0.975,0.905,-0.55,35.522,-9.948,-41.564,1
4.315006,0.961,0.893,-0.531,30.212,-8.361,-44.433,1
4.32339,0.945,0.898,-0.521,23.986,-8.361,-48.156,1
4.331995,0.939,0.895,-0.513,19.287,-7.568,-51.513,1
4.339911,0.922,0.904,-0.496,15.93,-8.117,-55.419,1
4.347417,0.908,0.911,-0.486,19.653,-8.728,-59.265,1
4.357073,0.875,0.892,-0.484,25.329,-9.948,-63.72,1
4.363996,0.863,0.856,-0.478,22.033,-10.131,-68.42,1
4.373984,0.869,0.824,-0.48,11.169,-9.582,-72.265,1
4.381636,0.849,0.829,-0.489,-7.019,-10.192,-76.599,1
4.389395,0.864,0.839,-0.471,-27.099,-9.521,-81.115,1
4.397441,0.908,0.846,-0.479,-50.964,-9.277,-85.632,1
4.405869,0.963,0.852,-0.486,-80.627,-9.094,-90.637,1
4.414482,1.03,0.793,-0.496,-128.295,-9.521,-96.496,1
4.4209,1.028,0.757,-0.521,-166.137,-9.704,-99.853,1
4.42916,0.888,0.712,-0.505,-193.847,-12.329,-101.196,1
4.436161,0.763,0.661,-0.495,-214.416,-13.305,-99.975,1
4.444159,0.666,0.672,-0.498,-223.144,-17.517,-99.426,1
4.451763,0.678,0.647,-0.482,-210.632,-23.132,-97.961,1
4.459889,0.708,0.64,-0.458,-190.063,-27.77,-96.496,1
4.468145,0.676,0.648,-0.453,-150.878,-33.447,-95.52,1
4.475104,0.704,0.691,-0.424,-86.547,-41.076,-96.496,1
4.483259,0.731,0.698,-0.386,-19.348,-47.546,-98.815,1
4.49015,0.747,0.68,-0.357,46.508,-53.039,-101.745,1
4.49833,0.747,0.665,-0.324,101.074,-56.396,-105.529,1
4.506009,0.709,0.565,-0.299,125.244,-56.945,-107.299,1
4.514038,0.698,0.508,-0.279,121.459,-54.626,-108.642,1
4.522692,0.742,0.459,-0.234,94.116,-49.621,-109.985,1
4.52935,0.777,0.438,-0.195,65.734,-44.799,-110.656,1
4.537413,0.838,0.453,-0.16,44.128,-40.1,-111.206,1
4.546016,0.891,0.476,-0.132,33.935,-37.109,-111.755,1
4.552959,0.925,0.516,-0.114,38.757,-35.156,-112.792,1
4.560582,0.919,0.512,-0.097,57.983,-35.888,-114.624,1
4.568827,0.876,0.489,-0.086,81.115,-36.254,-115.539,1
4.577024,0.844,0.458,-0.059,103.149,-36.193,-116.088,1
4.583538,0.878,0.409,-0.047,120.422,-35.339,-116.638,1
4.591618,0.809,0.403,-0.023,126.464,-32.287,-116.577,1
4.599721,0.776,0.369,-0.035,128.967,-30.334,-117.004,1
4.607875,0.725,0.335,-0.012,126.586,-25.756,-117.492,1
4.614836,0.71,0.3,0.001,117.126,-21.179,-117.187,1
4.622427,0.621,0.31,0.01,101.135,-15.258,-117.675,1
4.629226,0.505,0.362,0.023,79.528,-8.911,-118.53,1
4.637226,0.456,0.416,0.032,62.377,-3.173,-119.995,1
4.643867,0.433,0.477,0.035,54.016,1.647,-121.765,1
4.651863,0.469,0.532,0.045,57.373,5.065,-124.023,1
4.659791,0.479,0.614,0.048,78.247,7.263,-127.929,1
4.666528,0.49,0.627,0.032,103.21,8.483,-131.042,1
4.674848,0.56,0.601,0.025,120.117,10.314,-133.667,1
4.682593,0.598,0.501,0.009,123.413,13.427,-134.704,1
4.68919,0.625,0.51,0.038,127.807,18.859,-139.099,1
4.697387,0.503,0.519,0.046,134.704,22.399,-142.089,1
4.704083,0.483,0.48,0.06,141.967,27.465,-144.592,1
4.712388,0.465,0.325,0.025,135.192,32.165,-144.897,1
4.719146,0.487,0.298,0.072,129.516,38.879,-147.033,1
4.727967,0.426,0.258,0.057,131.164,45.532,-149.902,1
4.734663,0.347,0.193,0.083,133.972,52.185,-152.038,1
4.741662,0.326,0.083,0.068,128.54,59.448,-153.503,1
4.750336,0.26,-0.004,0.077,116.149,66.894,-153.625,1
4.756918,0.24,-0.104,0.067,98.937,75.439,-153.076,1
4.765523,0.207,-0.197,0.074,78.613,83.801,-152.221,1
4.772523,0.146,-0.273,0.061,58.471,92.407,-150.756,1
4.779806,0.035,-0.375,0.069,39.306,99.426,-148.742,1
4.788932,0.01,-0.452,0.062,23.132,107.177,-145.751,1
4.796624,-0.057,-0.549,0.071,10.131,113.159,-142.639,1
4.804956,-0.133,-0.625,0.062,2.99,121.337,-137.451,1
4.811932,-0.233,-0.666,0.068,13.61,126.403,-131.652,1
4.820173,-0.323,-0.773,0.045,33.264,131.225,-124.511,1
4.828289,-0.431,-0.858,0.02,53.039,135.681,-115.417,1
4.83589,-0.506,-0.94,-0.006,76.66,141.54,-102.966,1
4.844248,-0.609,-1.008,-0.036,92.895,146.728,-91.308,1
4.853491,-0.686,-1.099,-0.096,104.492,154.785,-75.439,1
4.860614,-0.82,-1.235,-0.131,102.966,160.339,-62.255,1
4.868082,-0.906,-1.332,-0.172,92.041,170.776,-43.884,1
4.876503,-1.042,-1.41,-0.206,71.838,177.368,-27.954,1
4.885397,-1.226,-1.409,-0.206,52.185,186.462,-11.474,1
4.892327,-1.324,-1.449,-0.25,37.658,194.824,8.972,1
4.899887,-1.342,-1.475,-0.27,38.574,201.171,28.137,1
4.907687,-1.33,-1.498,-0.325,52.307,203.552,48.522,1
4.915337,-1.399,-1.527,-0.376,73.364,205.078,71.105,1
4.923392,-1.538,-1.533,-0.458,102.783,204.406,94.604,1
4.932772,-1.727,-1.508,-0.541,144.592,202.209,124.023,1
4.941316,-1.957,-1.477,-0.616,180.236,196.289,154.602,1
4.950407,-2.194,-1.433,-0.729,204.04,191.162,186.706,1
4.958316,-2.322,-1.437,-0.822,209.777,187.316,215.881,1
4.96649,-2.345,-1.411,-0.858,199.157,178.039,249.145,1
4.975006,-2.637,-1.319,-0.882,178.405,170.288,283.142,1
4.982313,-3.046,-1.189,-0.867,164.428,160.095,313.964,1
4.991144,-3.122,-1.054,-0.906,179.565,147.766,343.872,1
4.998977,-3.3,-0.957,-1.002,218.811,128.295,378.662,1
5.008043,-3.596,-0.932,-1.134,243.713,105.834,415.832,1
5.015846,-3.913,-0.949,-1.212,241.333,82.397,454.589,1
5.0247,-4.231,-0.925,-1.279,220.092,62.377,488.647,1
5.031927,-4.54,-0.926,-1.284,180.236,41.137,522.338,1
5.040381,-5.082,-0.85,-1.327,137.268,16.54,560.18,1
5.048028,-5.552,-0.735,-1.312,112.121,-6.103,595.153,1
5.056966,-6.082,-0.465,-1.369,148.254,-35.705,625.488,1
5.064385,-6.669,-0.317,-1.344,224.487,-76.721,654.846,1
5.071978,-7.366,-0.198,-1.297,319.091,-132.812,687.744,1
5.08089,-8.374,0.017,-1.232,403.564,-190.856,713.867,1
5.089274,-9.282,0.229,-1.214,518.005,-269.226,737.609,1
5.097728,-10.224,0.305,-1.186,580.871,-345.397,749.755,1
5.105379,-11.06,0.342,-1.156,560.485,-427.185,755.248,1
5.112747,-11.983,0.518,-1.103,495.3,-491.699,754.699,1
5.121979,-12.737,0.75,-0.991,438.72,-557.006,750.183,1
5.132793,-13.67,1.001,-0.868,416.32,-623.84,740.661,1
5.140496,-14.557,1.184,-0.731,425.537,-693.298,725.707,1
5.148583,-15.765,1.42,-0.509,454.956,-764.587,704.65,1
5.157481,-15.997,1.666,-0.222,516.723,-839.965,672.79,1
5.166854,-15.999,1.783,0.06,584.594,-904.663,633.605,1
5.172421,-15.999,1.816,0.34,664.855,-976.501,570.495,1
5.182018,-15.999,1.787,0.553,738.22,-1032.287,501.403,1
5.189978,-15.999,1.757,0.79,813.232,-1080.81,415.588,1
5.198652,-15.999,1.995,1.153,912.048,-1122.924,291.748,1
5.206238,-15.999,2.041,1.524,979.797,-1146.606,150.939,1
5.214548,-15.999,1.972,1.851,994.628,-1138.366,4.943,1
5.223931,-15.999,1.728,2.035,949.829,-1107.605,-118.957,1
5.231533,-15.999,1.575,2.082,861.999,-1059.082,-231.201,1
5.240508,-15.999,1.547,2.082,780.029,-987.67,-340.637,1
5.249124,-15.999,1.581,1.994,712.036,-908.874,-428.283,1
5.257974,-15.701,1.537,1.982,626.953,-825.622,-497.68,1
5.266843,-14.513,1.41,1.787,564.025,-757.812,-540.832,1
5.274479,-13.186,1.145,1.576,534.423,-684.753,-585.449,1
5.28335,-12.153,0.919,1.39,505.798,-621.337,-620.422,1
5.290594,-11.391,0.76,1.252,478.393,-565.002,-641.54,1
5.298073,-10.754,0.619,1.125,434.936,-504.455,-658.813,1
5.307291,-10.445,0.555,1.03,389.526,-454.162,-666.809,1
5.312958,-10.122,0.518,1.04,351.318,-408.447,-669.982,1
5.322092,-9.61,0.392,1.05,322.204,-362.976,-670.776,1
5.328487,-9.142,0.244,1.041,290.771,-321.594,-669.799,1
5.337713,-8.73,0.121,1.015,260.07,-283.691,-665.344,1
5.34818,-8.22,0.012,0.956,235.473,-246.826,-656.921,1
5.357026,-7.914,-0.066,0.925,234.985,-209.472,-643.615,1
5.365321,-7.559,-0.206,0.883,256.408,-180.419,-633.361,1
5.373072,-7.132,-0.5,0.823,272.766,-150.085,-622.131,1
5.381841,-6.682,-0.864,0.745,251.098,-121.887,-609.497,1
5.390455,-6.231,-1.084,0.707,189.392,-90.759,-590.087,1
5.398911,-5.447,-1.334,0.654,143.554,-66.589,-568.786,1
5.405923,-5.107,-1.45,0.668,112.976,-51.086,-547.851,1
5.415437,-4.608,-1.64,0.646,94.482,-39.794,-525.817,1
5.423276,-4.155,-1.906,0.656,84.533,-29.785,-496.826,1
5.431842,-3.581,-2.196,0.626,85.144,-13.854,-465.27,1
5.440532,-3.145,-2.572,0.669,52.062,-10.375,-431.64,1
5.449313,-2.834,-2.748,0.659,26.428,1.159,-395.446,1
5.456637,-2.616,-2.793,0.712,12.878,4.211,-364.685,1
5.464992,-2.346,-2.79,0.744,18.371,9.582,-333.374,1
5.472883,-2.037,-2.73,0.753,34.057,9.948,-297.607,1
5.48186,-1.747,-2.642,0.723,48.645,12.756,-267.639,1
5.490082,-1.536,-2.519,0.718,59.631,13.977,-234.313,1
5.498416,-1.395,-2.375,0.673,67.016,15.808,-207.153,1
5.50619,-1.222,-2.237,0.646,75.256,16.418,-177.917,1
5.513399,-1.1,-2.151,0.618,78.552,17.944,-154.174,1
5.521109,-1.053,-2.031,0.627,79.04,19.531,-131.713,1
5.529709,-1.043,-1.881,0.623,79.833,22.094,-110.9,1
5.537455,-0.991,-1.757,0.638,78.918,24.963,-88.195,1
5.544146,-0.935,-1.63,0.625,74.768,27.648,-70.495,1
5.55203,-0.851,-1.504,0.615,71.35,29.541,-53.833,1
5.559072,-0.713,-1.416,0.598,63.415,31.86,-38.391,1
5.56799,-0.599,-1.314,0.59,51.208,32.958,-23.864,1
5.576187,-0.471,-1.222,0.59,36.56,34.484,-10.925,1
5.585032,-0.312,-1.111,0.62,23.986,35.4,2.014,1
5.592867,-0.243,-1.025,0.659,29.724,34.179,11.596,1
5.600294,-0.108,-0.961,0.713,48.706,32.531,21.606,1
5.608703,-0.049,-0.901,0.753,67.321,30.517,29.418,1
5.617362,-0.09,-0.85,0.788,86.12,29.235,37.597,1
5.624852,-0.1,-0.837,0.811,87.219,29.235,44.494,1
5.632444,-0.064,-0.818,0.84,73.791,30.822,51.147,1
5.640056,-0.028,-0.781,0.855,49.316,32.409,58.532,1
5.647404,0.025,-0.717,0.906,39.245,33.996,64.575,1
5.656248,0.043,-0.642,0.933,44.006,32.287,69.763,1
5.66312,0.087,-0.633,0.989,50.964,32.043,74.707,1
5.672461,0.084,-0.709,0.969,37.719,32.958,78.674,1
5.678453,0.142,-0.664,1.017,23.498,34.729,81.237,1
5.687715,0.211,-0.588,1.054,21.667,36.01,84.533,1
5.694601,0.118,-0.499,1.095,37.902,34.667,86.608,1
5.702635,0.16,-0.498,1.122,52.551,33.996,89.233,1
5.710297,0.201,-0.511,1.139,60.913,34.545,91.796,1
5.718036,0.286,-0.521,1.158,61.95,34.423,93.933,1
5.725491,0.312,-0.487,1.187,63.964,35.278,96.496,1
5.733389,0.34,-0.468,1.188,65.002,34.729,98.999,1
5.742305,0.378,-0.458,1.232,64.575,36.804,101.684,1
5.751073,0.388,-0.429,1.244,62.561,38.269,104.675,1
5.757168,0.383,-0.394,1.283,64.208,40.344,107.543,1
5.766225,0.377,-0.369,1.288,64.208,42.175,109.13,1
5.773911,0.37,-0.348,1.265,63.72,44.372,110.595,1
5.781759,0.401,-0.326,1.265,62.133,47.241,111.755,1
5.789973,0.444,-0.296,1.257,61.096,48.95,113.22,1
5.797077,0.441,-0.27,1.243,63.11,50.903,114.501,1
5.805852,0.483,-0.261,1.242,64.575,52.001,115.478,1
5.812936,0.507,-0.234,1.257,67.443,53.527,116.271,1
5.822035,0.48,-0.208,1.267,71.838,55.297,116.577,1
5.829295,0.454,-0.197,1.262,74.89,57.861,117.126,1
5.838041,0.441,-0.191,1.253,73.303,60.363,117.248,1
5.846175,0.456,-0.182,1.242,68.786,63.598,117.675,1
5.854487,0.464,-0.162,1.227,65.002,67.077,117.98,1
5.863294,0.474,-0.142,1.212,63.598,70.556,119.018,1
5.87067,0.497,-0.123,1.195,63.171,73.425,119.812,1
5.879641,0.524,-0.106,1.173,62.255,76.66,120.849,1
5.88725,0.552,-0.08,1.153,63.354,78.613,121.582,1
5.895835,0.578,-0.055,1.136,70.251,80.505,122.497,1
5.903383,0.638,-0.036,1.123,81.848,80.627,123.718,1
5.91286,0.729,-0.04,1.113,86.853,81.604,124.877,1
5.920142,0.77,-0.033,1.098,86.853,82.946,126.281,1
5.929115,0.769,-0.011,1.089,85.51,84.716,127.441,1
5.936411,0.751,0.008,1.073,86.181,85.998,127.502,1
5.943787,0.724,0.031,1.054,87.463,87.219,127.136,1
5.951811,0.702,0.061,1.018,89.66,88.439,126.525,1
5.960368,0.664,0.09,0.984,94.36,88.623,125.122,1
5.968232,0.632,0.118,0.956,98.693,89.05,123.901,1
5.976301,0.605,0.145,0.912,103.088,90.026,121.643,1
5.982613,0.589,0.182,0.871,109.924,90.759,119.201,1
5.990757,0.559,0.201,0.851,115.295,91.247,116.821,1
5.997108,0.561,0.222,0.838,119.14,91.491,113.83,1
6.005918,0.613,0.23,0.817,121.276,91.979,110.961,1
6.012712,0.627,0.245,0.816,120.361,93.2,107.849,1
6.019725,0.639,0.274,0.807,116.149,94.604,105.346,1
6.026971,0.644,0.298,0.817,110.412,96.252,102.294,1
6.036068,0.645,0.328,0.799,106.14,98.571,99.426,1
6.044569,0.655,0.365,0.792,104.553,101.684,96.008,1
6.05156,0.639,0.388,0.767,102.905,104.675,93.383,1
6.058981,0.646,0.417,0.729,100.585,107.36,90.454,1
6.066962,0.674,0.44,0.692,97.9,110.046,87.097,1
6.075265,0.703,0.466,0.664,94.604,112.426,83.923,1
6.08262,0.71,0.495,0.634,92.468,114.562,80.566,1
6.091901,0.724,0.521,0.601,93.139,116.882,76.171,1
6.098997,0.703,0.541,0.565,98.266,119.079,71.899,1
6.10811,0.704,0.544,0.537,100.952,121.032,69.03,1
6.11547,0.731,0.534,0.495,97.534,123.779,66.223,1
6.123849,0.744,0.532,0.456,88.806,126.403,63.964,1
6.130433,0.744,0.536,0.413,78.43,128.906,62.133,1
6.138858,0.734,0.543,0.371,68.42,131.164,60.119,1
6.145625,0.734,0.56,0.333,62.866,132.995,57.983,1
6.155135,0.732,0.573,0.292,61.523,133.972,55.358,1
6.16297,0.729,0.579,0.261,60.729,135.07,52.917,1
6.170206,0.722,0.587,0.226,60.241,136.291,49.56,1
6.177449,0.704,0.597,0.196,61.157,136.962,47.119,1
6.18473,0.708,0.577,0.16,62.072,137.939,45.532,1
6.193788,0.723,0.542,0.127,59.387,138.732,44.433,1
6.201136,0.745,0.52,0.104,58.471,140.319,43.151,1
6.208653,0.743,0.526,0.08,61.218,140.502,41.625,1
6.218346,0.712,0.542,0.057,67.81,140.319,40.161,1
6.226278,0.668,0.557,0.025,79.711,138.854,37.719,1
6.233134,0.637,0.567,-0.028,88.623,138.122,35.339,1
6.240901,0.634,0.562,-0.068,89.721,137.573,33.325,1
6.24956,0.62,0.578,-0.108,85.205,137.39,31.372,1
6.256903,0.628,0.614,-0.148,79.528,137.268,28.808,1
6.264226,0.633,0.641,-0.191,74.401,137.023,25.695,1
6.271966,0.655,0.668,-0.224,71.594,136.169,23.254,1
6.280195,0.65,0.707,-0.274,69.702,134.704,19.958,1
6.289115,0.65,0.732,-0.325,68.908,132.812,16.418,1
6.297234,0.649,0.763,-0.38,70.129,131.103,13.183,1
6.304394,0.655,0.789,-0.426,73.974,128.173,9.033,1
6.313183,0.642,0.823,-0.467,78.918,125.427,4.943,1
6.321887,0.646,0.84,-0.507,84.533,122.253,0.915,1
6.328953,0.663,0.863,-0.533,93.872,118.896,-3.662,1
6.337946,0.643,0.874,-0.565,104.614,115.966,-8.422,1
6.345257,0.64,0.865,-0.58,114.257,113.403,-12.329,1
6.353218,0.656,0.863,-0.607,123.779,109.863,-15.808,1
6.361047,0.623,0.875,-0.62,136.169,106.323,-19.042,1
6.369752,0.537,0.927,-0.65,160.278,103.576,-22.155,1
6.37773,0.663,0.893,-0.645,191.894,95.153,-25.329,1
6.385565,0.675,0.838,-0.674,203.063,92.102,-26.367,1
6.394193,0.71,0.8,-0.69,199.401,87.585,-27.893,1
6.400533,0.75,0.785,-0.68,196.35,86.181,-28.991,1
6.408421,0.783,0.779,-0.666,195.495,83.129,-30.273,1
6.416229,0.8,0.759,-0.638,200.317,81.726,-31.677,1
6.425107,0.816,0.74,-0.625,204.895,79.528,-32.653,1
6.433286,0.811,0.725,-0.604,208.618,79.04,-33.691,1
6.439985,0.823,0.708,-0.607,210.144,77.27,-34.484,1
6.448417,0.827,0.675,-0.596,208.801,77.392,-35.461,1
6.455937,0.849,0.646,-0.603,203.491,76.232,-36.315,1
6.463981,0.854,0.618,-0.576,193.054,75.805,-36.926,1
6.473407,0.874,0.59,-0.585,183.41,74.768,-37.963,1
6.480409,0.881,0.561,-0.565,176.818,74.218,-38.024,1
6.489427,0.897,0.528,-0.575,171.997,73.364,-38.391,1
6.496402,0.902,0.515,-0.565,167.236,73.059,-39.062,1
6.504375,0.913,0.508,-0.564,166.137,72.753,-39.367,1
6.512162,0.922,0.504,-0.558,168.823,72.326,-39.428,1
6.520794,0.928,0.515,-0.555,174.926,71.411,-39.855,1
6.528562,0.913,0.503,-0.554,179.87,71.289,-39.672,1
6.536682,0.884,0.519,-0.572,184.814,70.495,-39.367,1
6.54549,0.866,0.508,-0.587,186.462,70.373,-39.428,1
6.55272,0.86,0.5,-0.603,182.006,70.739,-39.611,1
6.560793,0.855,0.502,-0.613,174.987,71.044,-39.794,1
6.567643,0.861,0.497,-0.62,167.968,71.411,-39.489,1
6.576775,0.85,0.497,-0.629,160.217,71.166,-39.55,1
6.584166,0.838,0.5,-0.626,152.282,71.228,-39.55,1
6.591639,0.819,0.508,-0.626,143.31,70.617,-39.428,1
6.60064,0.804,0.516,-0.626,137.39,69.885,-39.367,1
6.609645,0.787,0.534,-0.625,135.009,69.03,-39.489,1
6.617132,0.776,0.56,-0.629,137.329,67.321,-39.794,1
6.625751,0.765,0.594,-0.637,144.104,65.49,-39.794,1
6.633791,0.762,0.616,-0.647,154.357,62.622,-40.1,1
6.642902,0.758,0.636,-0.659,166.625,60.302,-40.344,1
6.650472,0.749,0.642,-0.674,171.997,58.593,-40.588,1
6.659471,0.739,0.636,-0.692,168.945,57.617,-41.076,1
6.667718,0.73,0.634,-0.699,158.386,57.189,-41.87,1
6.674638,0.732,0.634,-0.697,143.676,56.823,-42.968,1
6.684439,0.73,0.632,-0.689,134.46,56.152,-43.64,1
6.693622,0.738,0.626,-0.682,128.112,55.175,-44.616,1
6.702262,0.761,0.625,-0.665,125.183,54.321,-45.471,1
6.709353,0.738,0.617,-0.646,126.831,53.649,-46.447,1
6.717025,0.768,0.608,-0.651,124.816,52.795,-46.936,1
6.725699,0.748,0.594,-0.614,120.971,52.856,-47.546,1
6.733472,0.78,0.594,-0.619,115.173,52.734,-48.4,1
6.740901,0.769,0.588,-0.602,108.825,52.673,-49.255,1
6.750139,0.793,0.592,-0.625,100.708,52.795,-50.109,1
6.759101,0.792,0.586,-0.628,93.566,52.673,-51.574,1
6.765122,0.805,0.57,-0.647,88.684,51.757,-53.1,1
6.773656,0.802,0.563,-0.64,87.646,51.147,-54.382,1
6.781091,0.809,0.542,-0.651,87.28,49.987,-55.236,1
6.790153,0.793,0.518,-0.645,88.989,49.255,-55.908,1
6.79868,0.785,0.489,-0.645,90.454,47.424,-56.213,1
6.806612,0.776,0.474,-0.636,92.529,46.447,-56.884,1
6.815129,0.765,0.45,-0.636,92.651,45.471,-56.945,1
6.822414,0.763,0.431,-0.649,87.341,45.288,-57.067,1
6.829902,0.764,0.409,-0.649,78.308,45.349,-57.006,1
6.838587,0.754,0.388,-0.657,66.528,45.227,-57.495,1
6.846022,0.748,0.362,-0.656,50.781,46.02,-57.617,1
6.854976,0.74,0.368,-0.666,36.682,46.508,-58.044,1
6.863345,0.75,0.342,-0.667,20.263,46.264,-58.471,1
6.870508,0.761,0.34,-0.666,4.516,47.424,-58.349,1
6.878623,0.738,0.354,-0.662,-5.126,45.837,-58.41,1
6.888039,0.77,0.373,-0.651,-0.61,45.471,-58.105,1
6.896172,0.769,0.369,-0.653,9.704,42.053,-58.044,1
6.903593,0.768,0.351,-0.654,19.287,40.954,-57.617,1
6.911856,0.768,0.334,-0.656,25.024,38.024,-57.8,1
6.921102,0.771,0.322,-0.656,29.724,36.376,-57.189,1
6.928813,0.761,0.316,-0.647,33.874,33.63,-57.006,1
6.936759,0.76,0.313,-0.652,41.992,32.165,-56.396,1
6.945387,0.769,0.31,-0.649,53.649,28.625,-55.969,1
6.953331,0.769,0.312,-0.656,64.697,26.428,-55.358,1
6.961729,0.766,0.305,-0.661,71.044,23.559,-54.748,1
6.970785,0.755,0.305,-0.672,73.913,21.606,-54.199,1
6.977799,0.752,0.308,-0.671,76.416,19.348,-53.771,1
6.986137,0.741,0.299,-0.677,77.209,17.333,-53.405,1
6.993306,0.74,0.297,-0.672,78.002,15.441,-53.1,1
7.002027,0.739,0.289,-0.674,77.392,13.793,-52.734,1
7.010687,0.751,0.284,-0.671,76.354,11.962,-52.246,1
7.019467,0.752,0.284,-0.673,74.035,10.192,-51.635,1
7.026275,0.761,0.278,-0.67,70.617,8.666,-51.391,1
7.033749,0.763,0.276,-0.668,66.772,7.019,-50.781,1
7.042132,0.763,0.276,-0.668,63.415,5.615,-50.354,1
7.050799,0.771,0.278,-0.666,60.363,4.15,-49.621,1
7.058723,0.776,0.281,-0.665,58.288,2.685,-48.95,1
7.065217,0.783,0.275,-0.661,58.532,0.854,-48.583,1
7.073801,0.786,0.279,-0.657,59.814,-0.061,-48.095,1
7.0811,0.792,0.277,-0.653,62.072,-1.586,-47.79,1
7.090592,0.792,0.274,-0.645,65.124,-3.356,-47.485,1
7.098041,0.826,0.257,-0.647,67.443,-4.516,-46.997,1
7.107692,0.788,0.256,-0.628,67.81,-5.065,-46.569,1
7.115119,0.784,0.247,-0.639,66.833,-6.53,-45.898,1
7.122316,0.78,0.239,-0.615,65.002,-5.92,-45.349,1
7.130501,0.78,0.227,-0.622,60.791,-6.958,-44.86,1
7.138186,0.779,0.223,-0.616,56.152,-6.652,-44.25,1
7.146362,0.781,0.215,-0.623,49.621,-7.446,-43.884,1
7.154383,0.77,0.211,-0.617,42.602,-7.263,-43.395,1
7.163062,0.79,0.203,-0.626,34.973,-7.446,-43.09,1
7.170075,0.779,0.196,-0.6,26.489,-7.019,-42.541,1
7.180814,0.804,0.194,-0.617,21.728,-8.422,-42.541,1
7.188224,0.807,0.197,-0.587,21.301,-7.69,-41.992,1
7.197252,0.819,0.191,-0.573,22.033,-9.338,-41.503,1
7.204956,0.821,0.185,-0.56,23.132,-9.46,-41.32,1
7.213451,0.844,0.18,-0.553,24.23,-10.925,-40.71,1
7.221734,0.85,0.173,-0.542,24.108,-10.803,-40.344,1
7.228932,0.861,0.166,-0.544,22.155,-11.474,-40.1,1
7.237991,0.87,0.155,-0.541,17.7,-11.474,-39.001,1
7.247281,0.879,0.153,-0.545,10.131,-11.413,-38.513,1
7.255212,0.898,0.153,-0.549,3.356,-11.352,-37.902,1
7.263168,0.902,0.154,-0.548,-3.906,-11.474,-37.17,1
7.270383,0.916,0.157,-0.556,-6.774,-12.207,-36.499,1
7.280161,0.931,0.162,-0.558,-6.774,-12.756,-36.01,1
7.289602,0.938,0.163,-0.558,-4.089,-13.305,-35.522,1
7.297006,0.942,0.164,-0.551,0.305,-14.343,-35.461,1
7.306251,0.95,0.166,-0.555,3.906,-15.258,-35.461,1
7.313497,0.951,0.162,-0.552,5.065,-15.563,-35.339,1
7.322536,0.952,0.168,-0.549,5.432,-16.052,-35.583,1
7.330826,0.959,0.179,-0.541,6.042,-16.662,-35.827,1
7.336653,0.969,0.181,-0.535,5.371,-17.211,-36.376,1
7.345726,0.961,0.184,-0.52,3.051,-17.639,-37.17,1
7.353276,0.975,0.191,-0.516,0.061,-17.639,-37.536,1
7.363704,0.993,0.195,-0.504,-3.723,-18.188,-38.208,1
7.371455,1.013,0.199,-0.502,-6.713,-18.798,-38.696,1
7.3788,1.015,0.21,-0.493,-8.239,-19.165,-39.428,1
7.387441,1.005,0.216,-0.488,-9.216,-19.836,-40.344,1
7.395791,1.0,0.229,-0.482,-10.314,-20.263,-40.954,1
7.404324,0.992,0.233,-0.471,-14.16,-20.385,-42.236,1
7.413596,1.003,0.232,-0.458,-21.301,-20.385,-43.029,1
7.42026,1.022,0.241,-0.433,-31.249,-20.202,-43.64,1
7.429536,1.032,0.25,-0.421,-40.71,-19.714,-44.982,1
7.436298,1.053,0.235,-0.413,-53.405,-19.165,-45.776,1
7.445701,1.083,0.238,-0.387,-73.73,-16.601,-46.203,1
7.452709,1.052,0.275,-0.383,-98.449,-15.197,-46.508,1
7.461898,1.004,0.32,-0.372,-120.3,-12.451,-47.241,1
7.469247,0.867,0.395,-0.374,-140.014,-11.779,-49.987,1
7.477117,0.784,0.46,-0.393,-149.169,-10.07,-52.734,1
7.486019,0.784,0.513,-0.379,-147.338,-11.779,-57.312,1
7.493291,0.81,0.552,-0.373,-128.295,-13.183,-63.842,1
7.501679,0.813,0.571,-0.343,-99.609,-16.784,-70.251,1
7.510313,0.783,0.556,-0.331,-65.917,-19.104,-77.209,1
7.519051,0.724,0.562,-0.299,-37.292,-20.812,-83.435,1
7.525881,0.723,0.563,-0.302,3.051,-23.376,-92.163,1
7.535004,0.799,0.436,-0.285,21.118,-23.986,-97.167,1
7.54246,0.809,0.362,-0.322,15.747,-22.705,-101.623,1
7.551867,0.764,0.298,-0.325,1.403,-22.644,-104.736,1
7.558958,0.763,0.233,-0.323,-16.174,-20.324,-107.543,1
7.566888,0.818,0.167,-0.337,-32.409,-19.897,-109.802,1
7.575656,0.875,0.105,-0.342,-39.306,-19.653,-110.29,1
7.585531,0.899,0.054,-0.337,-37.536,-20.751,-110.656,1
7.592597,0.883,0.016,-0.317,-24.597,-21.911,-111.083,1
7.600433,0.859,-0.02,-0.298,-6.103,-23.559,-111.389,1
7.608397,0.84,-0.072,-0.271,9.826,-24.536,-111.511,1
7.617433,0.837,-0.135,-0.255,20.202,-24.841,-111.022,1
7.625784,0.846,-0.198,-0.236,22.277,-24.291,-110.534,1
7.634133,0.832,-0.262,-0.219,20.446,-23.01,-109.252,1
7.642122,0.82,-0.3,-0.205,15.136,-21.179,-107.604,1
7.651507,0.813,-0.328,-0.187,11.108,-20.446,-106.079,1
7.658437,0.797,-0.354,-0.162,9.765,-18.92,-104.797,1
7.667539,0.767,-0.371,-0.119,8.789,-18.31,-103.393,1
7.675996,0.758,-0.394,-0.095,11.23,-15.808,-101.867,1
7.684461,0.728,-0.429,-0.068,18.188,-16.235,-100.28,1
7.692221,0.74,-0.468,-0.025,25.512,-14.404,-99.609,1
7.701624,0.722,-0.501,-0.009,34.973,-13.854,-99.365,1
7.708776,0.692,-0.534,0.044,43.64,-10.62,-98.815,1
7.71611,0.687,-0.579,0.061,46.081,-8.972,-98.022,1
7.724376,0.68,-0.63,0.095,44.738,-4.699,-97.473,1
7.732333,0.654,-0.687,0.12,34.667,0.0,-96.13,1
7.741122,0.626,-0.719,0.153,22.766,6.103,-94.909,1
7.749125,0.599,-0.758,0.179,7.202,11.352,-93.566,1
7.756738,0.544,-0.776,0.208,-6.347,17.822,-92.468,1
7.765677,0.512,-0.809,0.245,-16.723,24.353,-90.332,1
7.774059,0.454,-0.824,0.274,-14.465,29.541,-87.707,1
7.780514,0.348,-0.856,0.315,2.258,34.484,-84.716,1
7.789443,0.277,-0.909,0.35,23.681,39.794,-81.237,1
7.797916,0.214,-0.942,0.363,42.48,45.043,-77.27,1
7.805348,0.135,-1.043,0.356,54.199,52.368,-72.998,1
7.814517,0.0,-1.141,0.34,43.945,61.157,-64.697,1
7.822251,-0.054,-1.219,0.332,26.367,71.289,-57.495,1
7.831422,-0.142,-1.258,0.324,8.972,78.857,-48.217,1
7.838806,-0.226,-1.229,0.33,5.981,87.036,-40.1,1
7.847927,-0.295,-1.242,0.328,11.413,94.36,-30.334,1
7.85694,-0.345,-1.399,0.289,21.362,103.027,-16.296,1
7.863974,-0.408,-1.429,0.286,28.869,108.52,-2.929,1
7.872642,-0.503,-1.439,0.25,33.386,115.783,8.911,1
7.881212,-0.611,-1.407,0.208,43.029,122.985,24.108,1
7.889776,-0.723,-1.396,0.18,59.631,130.798,40.039,1
7.898799,-0.849,-1.403,0.132,75.317,134.948,55.053,1
7.908915,-1.057,-1.399,0.075,94.116,142.211,73.791,1
7.916929,-1.223,-1.362,0.02,108.703,148.254,92.651,1
7.924689,-1.372,-1.34,-0.013,114.379,155.029,112.915,1
7.934341,-1.592,-1.338,-0.101,116.943,161.621,133.178,1
7.942104,-1.785,-1.283,-0.113,101.745,166.87,151.672,1
7.949702,-2.039,-1.228,-0.22,103.82,175.109,176.269,1
7.95917,-2.225,-1.081,-0.172,113.525,178.71,194.091,1
7.966442,-2.458,-1.06,-0.316,126.831,183.288,214.599,1
7.976102,-2.732,-1.087,-0.31,134.216,185.424,241.516,1
7.9827,-2.955,-0.999,-0.376,144.287,185.852,263.549,1
7.989871,-3.311,-0.897,-0.435,157.592,186.218,288.269,1
7.99894,-3.613,-0.872,-0.505,170.654,185.913,314.758,1
8.007064,-4.054,-0.858,-0.572,177.795,184.02,348.693,1
8.014844,-4.454,-0.875,-0.666,177.856,181.945,385.559,1
8.024292,-4.92,-0.896,-0.76,173.156,179.077,420.288,1
8.032085,-5.505,-0.894,-0.871,166.992,174.621,464.965,1
8.040497,-6.123,-0.917,-0.998,176.94,166.931,513.671,1
8.047956,-6.661,-0.942,-1.103,201.293,155.395,559.448,1
8.05546,-7.535,-0.981,-1.233,235.351,138.427,611.022,1
8.064464,-8.376,-1.088,-1.448,262.084,115.722,666.442,1
8.072816,-9.402,-1.098,-1.557,259.338,79.895,732.299,1
8.081045,-10.557,-1.108,-1.592,206.848,48.522,787.597,1
8.087951,-11.786,-0.805,-1.612,188.903,16.479,842.04,1
8.096579,-12.903,-0.58,-1.401,200.5,-28.93,904.418,1
8.105111,-14.249,-0.244,-1.412,259.033,-78.247,955.322,1
8.112211,-15.939,0.264,-1.114,317.382,-141.174,1007.751,1
8.121578,-15.997,0.614,-1.244,375.244,-214.843,1049.926,1
8.129908,-15.999,1.223,-0.901,417.175,-297.058,1090.21,1
8.138047,-15.999,1.759,-0.91,466.43,-402.77,1111.938,1
8.145458,-15.999,2.163,-0.53,511.596,-488.586,1119.201,1
8.154359,-15.999,2.308,-0.41,515.075,-587.158,1114.685,1
8.1617,-15.999,2.603,0.099,531.372,-692.077,1098.999,1
8.170452,-15.999,2.874,0.412,587.219,-791.87,1071.96,1
8.178437,-15.999,3.281,1.14,708.496,-894.958,1026.001,1
8.185181,-15.999,3.468,1.821,892.15,-1027.465,939.392,1
8.19342,-15.999,3.676,2.558,1096.923,-1141.54,827.575,1
8.202148,-15.999,3.725,3.128,1330.383,-1252.136,659.362,1
8.209186,-15.999,3.434,2.824,1520.568,-1346.13,405.029,1
8.216838,-15.999,3.128,2.93,1547.668,-1387.695,163.879,1
8.226462,-15.999,2.712,2.769,1463.989,-1341.125,-71.594,1
8.233617,-15.999,2.261,2.448,1226.44,-1250.366,-297.18,1
8.241892,-15.999,1.973,2.354,984.252,-1115.6,-436.157,1
8.250526,-15.999,1.925,2.137,786.804,-1007.995,-536.438,1
8.257954,-15.999,1.793,2.095,669.006,-876.892,-616.272,1
8.26529,-15.999,1.497,1.71,595.52,-789.733,-668.579,1
8.272994,-15.86,1.227,1.457,531.005,-699.951,-706.054,1
8.28264,-15.08,1.18,1.353,437.622,-618.469,-736.144,1
8.288866,-14.385,1.123,1.412,364.379,-546.508,-750.854,1
8.297407,-13.808,1.077,1.274,287.475,-491.882,-759.277,1
8.304945,-13.291,1.083,1.459,239.746,-439.88,-761.291,1
8.313943,-12.43,1.054,1.527,247.131,-394.226,-758.972,1
8.321392,-11.51,0.847,1.6,316.162,-343.994,-753.112,1
8.331218,-10.913,0.601,1.511,363.281,-301.574,-744.018,1
8.339219,-10.281,0.284,1.458,386.413,-242.492,-727.661,1
8.346495,-9.642,-0.006,1.362,360.229,-195.861,-711.975,1
8.354116,-9.081,-0.334,1.347,283.691,-141.174,-688.842,1
8.3636,-8.37,-0.547,1.275,207.336,-104.064,-665.893,1
8.371681,-7.519,-0.8,1.271,132.141,-67.016,-637.084,1
8.380697,-6.829,-1.004,1.192,78.247,-44.25,-612.121,1
8.387752,-6.27,-1.163,1.173,41.87,-24.597,-587.097,1
8.39656,-5.877,-1.213,1.171,22.094,-8.3,-557.067,1
8.404117,-5.121,-1.459,1.009,31.433,3.662,-534.668,1
8.411712,-4.578,-1.661,0.953,20.812,17.028,-508.911,1
8.420242,-4.245,-1.732,0.905,19.104,27.77,-479.309,1
8.429049,-3.718,-1.753,0.874,41.87,33.691,-452.697,1
8.43895,-3.385,-1.77,0.849,83.374,40.649,-416.87,1
8.446199,-3.019,-1.803,0.806,110.29,45.776,-384.765,1
8.454615,-2.706,-1.805,0.795,125.122,52.612,-356.689,1
8.461958,-2.442,-1.793,0.736,126.953,58.105,-328.918,1
8.470479,-2.245,-1.74,0.711,112.915,65.673,-297.302,1
8.479399,-1.997,-1.709,0.636,103.027,68.786,-272.094,1
8.488068,-1.84,-1.768,0.614,76.049,75.988,-239.135,1
8.495845,-1.72,-1.717,0.656,43.273,80.383,-216.247,1
8.503451,-1.565,-1.645,0.649,25.207,83.74,-195.007,1
8.512316,-1.43,-1.583,0.669,20.385,85.51,-171.691,1
8.519461,-1.26,-1.55,0.631,18.92,86.059,-152.832,1
8.528386,-1.094,-1.509,0.62,19.409,86.975,-134.765,1
8.536311,-0.961,-1.47,0.585,15.258,86.73,-115.173,1
8.543461,-0.846,-1.418,0.568,12.268,87.097,-98.999,1
8.551437,-0.743,-1.352,0.544,11.352,86.059,-84.289,1
8.560389,-0.675,-1.281,0.532,11.901,84.716,-68.542,1
8.567714,-0.624,-1.217,0.51,10.192,84.167,-56.762,1
8.575536,-0.566,-1.158,0.504,6.042,82.336,-45.471,1
8.583291,-0.545,-1.112,0.497,0.549,81.42,-33.935,1
8.592635,-0.493,-1.062,0.491,-7.568,79.895,-25.146,1
8.601548,-0.453,-1.0,0.481,-15.991,78.857,-15.991,1
8.608362,-0.426,-0.929,0.489,-16.906,76.171,-8.422,1
8.616605,-0.374,-0.891,0.482,-12.145,73.669,-3.234,1
8.626482,-0.316,-0.867,0.495,-3.906,70.19,1.281,1
8.633657,-0.188,-0.842,0.507,10.437,66.223,6.103,1
8.641118,-0.118,-0.833,0.522,25.268,62.622,10.07,1
8.649555,-0.03,-0.827,0.537,35.522,59.631,13.854,1
8.656208,0.028,-0.809,0.57,49.377,56.884,17.211,1
8.664929,0.067,-0.801,0.591,71.655,54.016,21.179,1
8.672928,0.087,-0.806,0.611,85.51,52.001,24.719,1
8.680387,0.166,-0.83,0.653,91.491,50.659,29.479,1
8.689761,0.185,-0.836,0.684,90.637,50.415,33.752,1
8.696711,0.194,-0.838,0.706,88.5,50.72,37.658,1
8.704415,0.306,-0.854,0.73,88.623,52.551,42.297,1
8.71353,0.325,-0.903,0.75,79.04,52.917,45.776,1
8.72074,0.319,-0.935,0.762,61.218,55.603,49.987,1
8.729431,0.321,-0.935,0.773,40.222,57.189,54.748,1
8.73902,0.381,-0.932,0.769,29.846,59.204,58.959,1
8.745404,0.45,-0.969,0.727,28.991,58.41,63.72,1
8.753862,0.444,-0.977,0.76,18.554,60.729,69.152,1
8.762592,0.486,-0.961,0.737,15.502,59.143,73.364,1
8.770752,0.493,-0.954,0.782,24.78,61.34,77.758,1
8.777665,0.53,-0.955,0.76,30.273,60.363,81.176,1
8.785335,0.526,-0.947,0.784,35.827,62.866,84.655,1
8.794101,0.516,-0.94,0.759,33.935,64.331,88.195,1
8.802215,0.471,-0.92,0.779,30.761,68.42,91.064,1
8.809442,0.467,-0.91,0.749,23.132,71.044,93.383,1
8.817548,0.429,-0.879,0.758,15.747,75.378,95.764,1
8.824801,0.463,-0.858,0.743,7.995,78.979,98.388,1
8.832083,0.461,-0.825,0.76,3.723,83.435,100.83,1
8.840884,0.449,-0.785,0.744,2.319,86.486,102.966,1
8.847448,0.394,-0.732,0.755,4.272,90.087,105.346,1
8.85656,0.395,-0.703,0.745,6.042,92.651,107.482,1
8.865387,0.385,-0.661,0.744,9.582,96.984,110.229,1
8.873069,0.377,-0.631,0.729,11.169,99.792,112.426,1
8.882036,0.372,-0.603,0.719,9.338,104.675,114.868,1
8.888782,0.358,-0.576,0.701,4.028,108.093,116.699,1
8.897975,0.351,-0.547,0.691,-4.333,113.281,118.347,1
8.906974,0.359,-0.525,0.66,-11.657,117.98,120.117,1
8.914613,0.386,-0.494,0.642,-16.235,121.398,121.337,1
8.923626,0.442,-0.471,0.61,-19.287,125.427,122.802,1
8.930955,0.484,-0.447,0.58,-23.864,128.967,124.572,1
8.939895,0.529,-0.412,0.54,-26.062,132.263,126.77,1
8.947026,0.539,-0.376,0.513,-24.108,133.911,128.784,1
8.955508,0.541,-0.338,0.481,-16.723,135.314,130.737,1
8.963256,0.532,-0.307,0.457,-7.324,135.437,132.812,1
8.971469,0.514,-0.273,0.426,4.394,135.742,135.498,1
8.979073,0.492,-0.25,0.398,14.099,135.925,137.084,1
8.986343,0.494,-0.224,0.36,22.399,136.169,138.916,1
8.994996,0.489,-0.213,0.337,29.663,136.718,141.235,1
9.002642,0.475,-0.194,0.306,33.63,137.329,143.066,1
9.010623,0.454,-0.171,0.272,36.926,138.0,144.836,1
9.019828,0.437,-0.147,0.239,44.738,138.488,146.606,1
9.028676,0.432,-0.134,0.204,50.048,139.587,148.803,1
9.036127,0.422,-0.125,0.163,52.856,140.319,150.878,1
9.042953,0.419,-0.113,0.135,57.8,140.686,153.381,1
9.050735,0.437,-0.108,0.106,59.082,141.357,155.944,1
9.05957,0.444,-0.103,0.082,57.983,141.54,158.691,1
9.067367,0.439,-0.092,0.055,55.297,141.967,161.132,1
9.075039,0.418,-0.079,0.034,50.109,142.639,163.94,1
9.082562,0.41,-0.066,0.014,45.959,143.188,166.442,1
9.091553,0.4,-0.057,0.0,41.564,143.31,168.701,1
9.099073,0.4,-0.047,-0.021,36.315,144.409,171.447,1
9.106708,0.397,-0.032,-0.023,31.677,144.958,173.889,1
9.114886,0.407,-0.033,-0.045,27.343,146.545,177.185,1
9.123448,0.43,-0.045,-0.056,20.141,147.827,181.457,1
9.130736,0.417,-0.046,-0.066,12.512,149.597,185.424,1
9.139465,0.401,-0.042,-0.076,4.638,151.428,189.147,1
9.14689,0.374,-0.025,-0.104,-2.868,152.404,192.382,1
9.154768,0.333,-0.006,-0.111,-9.216,154.174,195.678,1
9.163959,0.291,0.009,-0.127,-12.512,154.663,198.608,1
9.172275,0.216,0.031,-0.128,-11.901,155.639,201.782,1
9.181624,0.173,0.058,-0.146,-7.629,155.456,204.162,1
9.190313,0.102,0.098,-0.153,3.234,154.724,208.435,1
9.198702,0.048,0.15,-0.182,14.77,153.259,211.608,1
9.205793,-0.009,0.192,-0.196,28.259,151.794,215.332,1
9.213184,-0.067,0.235,-0.226,40.405,149.353,218.933,1
9.221813,-0.133,0.289,-0.25,53.833,146.423,222.534,1
9.230853,-0.225,0.378,-0.296,64.27,141.723,224.914,1
9.2399,-0.322,0.489,-0.335,74.523,136.413,226.257,1
9.246649,-0.395,0.587,-0.383,83.251,131.652,227.233,1
9.25517,-0.481,0.705,-0.432,91.735,126.403,227.478,1
9.262533,-0.555,0.832,-0.463,104.37,119.812,226.562,1
9.271868,-0.606,0.919,-0.498,114.318,113.769,225.952,1
9.27965,-0.632,1.0,-0.535,120.483,108.581,224.548,1
9.286734,-0.647,1.082,-0.573,115.295,101.989,222.961,1
9.296213,-0.625,1.151,-0.597,104.797,97.595,220.886,1
9.304289,-0.635,1.26,-0.618,90.087,92.468,216.979,1
9.311442,-0.625,1.335,-0.632,77.514,89.05,212.646,1
9.319104,-0.591,1.387,-0.639,69.213,85.449,208.129,1
9.326599,-0.562,1.424,-0.641,64.392,83.129,203.308,1
9.334327,-0.523,1.457,-0.637,58.959,80.688,198.486,1
9.34252,-0.484,1.489,-0.654,52.795,78.491,193.481,1
9.35017,-0.478,1.509,-0.653,45.227,75.927,188.354,1
9.359566,-0.446,1.513,-0.645,38.33,73.974,183.227,1
9.366885,-0.427,1.516,-0.636,33.447,71.899,177.856,1
9.37488,-0.413,1.513,-0.643,28.076,69.458,173.583,1
9.382518,-0.382,1.485,-0.625,20.507,66.772,169.372,1
9.391599,-0.356,1.47,-0.598,18.798,64.27,165.588,1
9.400441,-0.35,1.447,-0.57,24.23,61.401,162.719,1
9.408084,-0.349,1.442,-0.575,25.878,59.143,160.095,1
9.416078,-0.343,1.421,-0.567,18.554,56.762,157.592,1
9.424869,-0.34,1.42,-0.566,8.666,55.48,155.273,1
9.43239,-0.341,1.428,-0.557,-2.014,54.382,152.404,1
9.4415,-0.32,1.417,-0.547,-5.432,52.124,149.536,1
9.449422,-0.345,1.398,-0.525,-4.028,50.537,147.277,1
9.458213,-0.332,1.357,-0.5,1.831,48.095,145.69,1
9.466273,-0.322,1.304,-0.462,14.343,44.799,144.47,1
9.473791,-0.33,1.279,-0.457,23.437,42.846,143.676,1
9.481037,-0.352,1.262,-0.446,26.916,40.832,143.493,1
9.488398,-0.378,1.247,-0.449,23.376,39.672,142.761,1
9.497909,-0.349,0.952,-0.517,-15.38,40.527,148.559,1
9.50488,-0.159,1.074,-0.433,-42.175,42.724,146.484,1
9.51403,-0.368,1.123,-0.39,-54.382,43.457,145.812,1
9.52249,-0.474,1.216,-0.435,-45.043,43.945,143.554,1
9.530686,-0.513,1.283,-0.359,-18.737,43.273,140.808,1
9.54,-0.489,1.268,-0.418,9.765,39.611,138.488,1
9.548059,-0.525,1.235,-0.373,32.165,37.231,137.207,1
9.556115,-0.47,1.234,-0.388,47.485,32.47,135.742,1
9.563337,-0.466,1.265,-0.358,69.946,29.663,134.216,1
9.572663,-0.471,1.295,-0.396,85.205,25.085,132.385,1
9.579405,-0.462,1.307,-0.362,98.876,22.46,130.249,1
9.587065,-0.487,1.307,-0.373,107.971,18.554,127.258,1
9.594543,-0.548,1.303,-0.331,113.281,16.418,125.183,1
9.604042,-0.507,1.287,-0.33,116.394,13.488,123.046,1
9.613256,-0.614,1.255,-0.29,114.99,11.657,121.582,1
9.620253,-0.488,0.924,-0.307,90.026,10.07,126.037,1
9.629788,-0.348,1.047,-0.231,72.692,12.39,124.694,1
9.638342,-0.589,1.077,-0.22,57.067,12.084,124.755,1
9.645548,-0.701,1.131,-0.267,39.611,16.662,123.718,1
9.653838,-0.704,1.154,-0.24,21.606,15.93,121.948,1
9.661312,-0.701,1.162,-0.232,13.122,19.592,120.361,1
9.669775,-0.754,1.15,-0.208,7.446,18.493,117.736,1
9.676265,-0.706,1.115,-0.22,0.549,21.301,115.661,1
9.684479,-0.811,1.121,-0.178,-5.554,21.057,113.83,1
9.691589,-0.821,1.095,-0.179,-1.586,23.315,112.915,1
9.699995,-0.827,1.067,-0.151,6.958,22.888,111.633,1
9.706955,-0.831,1.029,-0.144,17.517,24.658,111.45,1
9.717598,-0.921,1.044,-0.128,26.428,24.841,111.267,1
9.72494,-0.939,1.096,-0.111,35.949,26.916,109.68,1
9.734033,-0.927,1.079,-0.118,41.564,27.404,107.849,1
9.741541,-0.872,0.911,-0.127,42.602,28.015,108.337,1
9.750863,-0.835,0.995,-0.076,31.372,29.663,106.994,1
9.757297,-0.768,0.88,-0.082,14.953,29.846,105.773,1
9.765886,-0.774,0.865,-0.083,1.647,33.935,104.492,1
9.774682,-0.829,0.851,-0.043,-20.324,35.461,103.149,1
9.782695,-0.916,0.852,-0.071,-35.583,40.283,101.928,1
9.789719,-0.834,0.864,-0.02,-47.607,43.212,99.243,1
9.797331,-0.898,0.832,-0.041,-57.983,47.546,98.51,1
9.806551,-0.963,0.811,-0.04,-70.312,50.72,97.473,1
9.813727,-0.978,0.753,-0.041,-81.115,55.236,96.618,1
9.821159,-0.99,0.727,-0.032,-88.439,58.227,95.642,1
9.830055,-1.007,0.718,-0.041,-91.796,61.889,94.299,1
9.838116,-1.019,0.725,-0.021,-90.576,64.147,92.346,1
9.846261,-1.036,0.718,-0.037,-84.228,67.504,90.27,1
9.853268,-1.086,0.715,-0.009,-73.425,68.725,88.378,1
9.862113,-1.1,0.735,-0.023,-54.199,71.838,85.754,1
9.87047,-1.053,0.729,-0.017,-37.597,71.838,83.679,1
9.876742,-0.969,0.671,-0.031,-18.798,71.166,82.031,1
9.88588,-1.033,0.694,-0.035,1.281,72.692,80.261,1
9.89468,-1.043,0.706,-0.008,11.901,72.937,77.392,1
9.903097,-0.979,0.658,-0.053,18.676,72.814,74.646,1
9.91036,-1.135,0.683,-0.043,23.986,74.279,72.692,1
9.917949,-1.06,0.651,-0.051,22.766,73.913,69.519,1
9.926707,-1.191,0.703,-0.052,25.512,76.782,67.199,1
9.933626,-1.199,0.724,-0.065,26.55,76.538,63.964,1
9.941752,-1.171,0.723,-0.047,26.0,78.491,59.448,1
9.95091,-1.112,0.693,-0.065,17.761,79.467,55.419,1
9.958391,-1.093,0.659,-0.06,5.92,82.031,52.307,1
9.966183,-1.076,0.65,-0.061,-7.263,83.312,48.889,1
9.974719,-1.151,0.659,-0.064,-20.629,86.181,45.471,1
9.983144,-1.193,0.68,-0.08,-33.935,87.524,41.564,1
9.990711,-1.206,0.674,-0.084,-48.278,89.538,38.085,1
9.998377,-1.168,0.671,-0.105,-69.152,90.698,33.386,1
