timestamp_s,ax,ay,az,gx,gy,gz,label
0.006573,-0.257,1.361,-0.349,-11.779,-1.525,-19.653,1
0.014567,-0.257,1.381,-0.359,-12.695,-2.136,-21.911,1
0.022424,-0.246,1.394,-0.37,-16.967,-2.136,-24.353,1
0.030246,-0.256,1.36,-0.39,-29.296,-1.953,-26.794,1
0.03846,-0.233,1.459,-0.353,-58.715,4.15,-27.038,1
0.046887,-0.265,1.426,-0.451,-58.715,-2.868,-30.578,1
0.0549,-0.291,1.452,-0.353,-39.062,-0.122,-33.996,1
0.062912,-0.209,1.436,-0.459,-32.409,-3.173,-36.437,1
0.070101,-0.271,1.439,-0.421,-26.855,-5.187,-38.94,1
0.078021,-0.258,1.445,-0.46,-24.23,-4.089,-41.198,1
0.085549,-0.261,1.453,-0.48,-26.428,-6.408,-43.884,1
0.093568,-0.271,1.456,-0.469,-28.93,-5.371,-45.837,1
0.101736,-0.252,1.455,-0.5,-32.47,-6.469,-48.522,1
0.110548,-0.276,1.459,-0.507,-39.672,-7.019,-51.086,1
0.119351,-0.268,1.471,-0.522,-47.363,-7.324,-53.71,1
0.126595,-0.268,1.48,-0.52,-55.053,-7.995,-56.335,1
0.134803,-0.263,1.49,-0.533,-62.805,-8.239,-59.204,1
0.14192,-0.277,1.508,-0.554,-69.091,-9.582,-61.523,1
0.150766,-0.305,1.54,-0.556,-71.594,-10.742,-64.025,1
0.159483,-0.273,1.536,-0.56,-71.044,-13.0,-67.016,1
0.166652,-0.277,1.526,-0.557,-67.077,-14.099,-69.885,1
0.174966,-0.268,1.501,-0.557,-63.964,-15.991,-72.509,1
0.18189,-0.31,1.488,-0.549,-60.424,-15.747,-75.012,1
0.190596,-0.305,1.443,-0.573,-64.636,-17.272,-77.148,1
0.197564,-0.308,1.385,-0.543,-73.364,-16.235,-79.04,1
0.205557,-0.287,1.355,-0.563,-84.838,-15.441,-80.81,1
0.214051,-0.294,1.331,-0.555,-94.787,-15.93,-82.519,1
0.220497,-0.289,1.313,-0.554,-101.44,-15.441,-83.374,1
0.228589,-0.257,1.296,-0.575,-105.163,-16.479,-84.655,1
0.236489,-0.249,1.281,-0.577,-107.666,-16.601,-85.449,1
0.243647,-0.233,1.265,-0.609,-108.398,-17.7,-86.181,1
0.251687,-0.233,1.254,-0.629,-108.154,-18.92,-86.853,1
0.259613,-0.224,1.232,-0.658,-109.497,-19.836,-87.707,1
0.26854,-0.22,1.196,-0.699,-115.112,-20.507,-88.317,1
0.275442,-0.208,1.167,-0.731,-122.497,-20.935,-89.294,1
0.283574,-0.185,1.158,-0.761,-129.516,-22.094,-90.148,1
0.291354,-0.207,1.123,-0.786,-133.239,-23.254,-90.393,1
0.299934,-0.194,1.111,-0.814,-133.85,-26.672,-91.308,1
0.306869,-0.196,1.08,-0.817,-130.92,-28.808,-91.735,1
0.315228,-0.192,1.044,-0.842,-127.746,-32.836,-92.346,1
0.322186,-0.212,1.019,-0.845,-123.718,-35.888,-92.224,1
0.330923,-0.189,0.973,-0.847,-121.52,-39.855,-92.102,1
0.339387,-0.166,0.93,-0.865,-118.408,-43.701,-91.552,1
0.346571,-0.192,0.912,-0.882,-111.572,-47.668,-90.515,1
0.354223,-0.191,0.892,-0.877,-101.562,-51.94,-89.111,1
0.362526,-0.176,0.875,-0.904,-89.843,-55.358,-87.341,1
0.369245,-0.188,0.84,-0.925,-82.946,-59.265,-86.486,1
0.377664,-0.209,0.787,-0.923,-82.885,-61.279,-84.777,1
0.384741,-0.183,0.772,-0.926,-83.984,-63.964,-83.129,1
0.393041,-0.149,0.728,-0.895,-89.843,-66.406,-81.787,1
0.400546,-0.126,0.7,-0.864,-94.787,-67.443,-79.406,1
0.409257,-0.107,0.68,-0.842,-94.055,-70.739,-76.904,1
0.41671,-0.095,0.662,-0.798,-87.646,-72.814,-73.791,1
0.425459,-0.103,0.639,-0.787,-80.383,-75.5,-70.739,1
0.43231,-0.106,0.607,-0.746,-74.707,-77.27,-68.237,1
0.44101,-0.117,0.582,-0.71,-70.739,-77.88,-65.551,1
0.449409,-0.055,0.548,-0.683,-70.068,-78.125,-62.316,1
0.456089,-0.06,0.543,-0.652,-70.922,-78.369,-59.326,1
0.464369,0.03,0.533,-0.628,-72.326,-78.063,-56.579,1
0.471104,0.019,0.537,-0.612,-74.707,-78.369,-53.71,1
0.479077,-0.001,0.539,-0.585,-76.721,-77.941,-51.757,1
0.487846,-0.014,0.546,-0.576,-79.223,-78.247,-49.926,1
0.494699,-0.009,0.551,-0.553,-80.444,-77.453,-48.095,1
0.503443,0.011,0.546,-0.538,-80.505,-76.782,-46.813,1
0.510181,0.037,0.556,-0.532,-76.477,-75.256,-45.532,1
0.517234,0.056,0.576,-0.562,-70.8,-74.401,-43.64,1
0.524599,0.01,0.625,-0.563,-65.734,-73.608,-42.358,1
0.532694,0.028,0.672,-0.588,-59.936,-72.937,-41.259,1
0.540759,0.008,0.751,-0.571,-55.175,-72.875,-40.527,1
0.547442,0.031,0.79,-0.608,-59.692,-72.753,-40.283,1
0.555279,-0.062,0.848,-0.601,-75.744,-72.265,-39.855,1
0.563029,-0.008,0.895,-0.622,-97.778,-70.922,-39.367,1
0.570128,-0.011,0.954,-0.586,-119.445,-73.608,-39.367,1
0.578244,0.075,0.988,-0.541,-134.277,-71.044,-39.306,1
0.586117,0.135,1.044,-0.571,-150.024,-72.509,-39.855,1
0.592496,0.141,1.098,-0.572,-163.024,-71.411,-40.649,1
0.601286,0.131,1.162,-0.604,-172.424,-71.472,-41.931,1
0.607665,0.129,1.22,-0.612,-173.706,-72.021,-44.189,1
0.615761,0.145,1.247,-0.62,-167.297,-72.021,-46.386,1
0.622423,0.18,1.244,-0.636,-160.278,-72.692,-49.438,1
0.631246,0.198,1.219,-0.639,-157.226,-72.082,-52.856,1
0.638132,0.211,1.174,-0.657,-160.156,-72.143,-55.908,1
0.645035,0.225,1.129,-0.651,-167.175,-71.96,-58.715,1
0.652961,0.263,1.106,-0.642,-175.598,-71.716,-60.974,1
0.660893,0.284,1.101,-0.639,-181.579,-72.448,-63.171,1
0.668122,0.297,1.075,-0.632,-186.95,-73.364,-64.88,1
0.676441,0.304,1.045,-0.643,-197.204,-73.181,-66.772,1
0.682924,0.316,1.032,-0.66,-211.303,-73.913,-69.091,1
0.690977,0.33,1.031,-0.666,-213.806,-75.012,-70.678,1
0.698011,0.316,1.017,-0.678,-208.374,-76.843,-72.57,1
0.705637,0.32,0.985,-0.69,-200.134,-78.918,-74.34,1
0.713532,0.332,0.941,-0.703,-191.162,-80.871,-76.721,1
0.721261,0.336,0.892,-0.708,-187.072,-83.068,-79.772,1
0.729539,0.329,0.844,-0.699,-188.72,-84.594,-81.909,1
0.736505,0.337,0.786,-0.687,-194.03,-85.815,-84.045,1
0.745106,0.359,0.747,-0.683,-200.439,-86.853,-85.632,1
0.75203,0.354,0.737,-0.706,-209.289,-88.5,-86.242,1
0.760015,0.325,0.743,-0.733,-218.017,-91.308,-87.158,1
0.767823,0.277,0.729,-0.735,-223.815,-94.482,-88.195,1
0.774567,0.259,0.694,-0.73,-227.294,-98.327,-89.355,1
0.783435,0.225,0.658,-0.716,-226.013,-102.172,-90.026,1
0.79003,0.176,0.594,-0.701,-223.083,-106.018,-90.759,1
0.798722,0.168,0.534,-0.679,-215.942,-110.168,-90.759,1
0.805314,0.146,0.458,-0.675,-206.726,-113.342,-90.515,1
0.813819,0.082,0.398,-0.705,-200.866,-117.553,-90.759,1
0.821776,0.004,0.288,-0.728,-203.735,-121.887,-90.881,1
0.82889,-0.041,0.193,-0.721,-213.806,-126.953,-89.721,1
0.836736,-0.096,0.102,-0.693,-222.29,-130.981,-88.684,1
0.843667,-0.234,0.031,-0.69,-238.647,-135.131,-86.181,1
0.851982,-0.314,-0.04,-0.679,-257.446,-140.502,-83.618,1
0.860489,-0.437,-0.077,-0.634,-264.77,-145.751,-80.749,1
0.870002,-0.554,-0.14,-0.583,-253.723,-154.235,-77.575,1
0.876562,-0.746,-0.233,-0.556,-237.426,-160.888,-74.462,1
0.885315,-0.832,-0.347,-0.532,-223.815,-169.921,-70.617,1
0.893127,-0.914,-0.433,-0.494,-210.266,-178.283,-66.467,1
0.900297,-1.061,-0.545,-0.432,-189.147,-186.401,-61.096,1
0.908731,-1.156,-0.549,-0.371,-155.456,-195.861,-57.128,1
0.915518,-1.332,-0.708,-0.318,-119.75,-205.139,-53.527,1
0.923774,-1.45,-0.869,-0.261,-111.572,-213.745,-47.668,1
0.931505,-1.634,-1.054,-0.183,-109.68,-219.665,-41.32,1
0.939761,-1.645,-1.209,-0.095,-118.164,-224.487,-32.958,1
0.946786,-1.617,-1.392,0.0,-125.488,-227.6,-21.667,1
0.955427,-1.604,-1.529,0.071,-119.201,-232.055,-8.544,1
0.962462,-1.534,-1.702,0.234,-101.074,-236.511,7.263,1
0.969524,-1.538,-1.946,0.292,-93.994,-238.952,25.085,1
0.977963,-1.559,-2.073,0.41,-105.224,-238.586,45.227,1
0.985161,-1.628,-2.223,0.462,-110.717,-238.769,67.26,1
0.993581,-1.73,-2.287,0.583,-100.708,-240.112,90.27,1
1.00027,-1.826,-2.424,0.661,-81.054,-244.14,114.624,1
1.008191,-1.972,-2.539,0.69,-62.377,-246.337,140.441,1
1.015183,-2.164,-2.659,0.709,-40.1,-252.38,165.649,1
1.023643,-2.302,-2.807,0.766,-46.02,-256.652,192.565,1
1.030654,-2.657,-2.827,0.795,-45.043,-257.751,222.167,1
1.03769,-3.022,-2.814,0.906,-38.085,-264.282,250.61,1
1.045532,-3.431,-2.903,1.007,-46.02,-263.61,281.86,1
1.052623,-3.987,-2.837,1.096,-59.814,-261.535,312.744,1
1.060795,-4.459,-2.865,1.233,-83.007,-256.225,345.581,1
1.068784,-4.926,-2.835,1.354,-97.839,-247.07,380.615,1
1.076579,-5.515,-2.832,1.515,-99.304,-239.074,416.137,1
1.084965,-6.134,-2.872,1.625,-123.962,-221.069,460.449,1
1.091779,-6.833,-2.796,1.72,-151.916,-203.369,500.427,1
1.100065,-7.634,-2.69,1.852,-173.889,-182.067,541.32,1
1.107812,-8.469,-2.533,1.988,-181.518,-157.897,582.824,1
1.114833,-9.415,-2.372,2.119,-189.392,-130.798,625.976,1
1.122401,-10.389,-2.178,2.253,-199.035,-100.646,668.823,1
1.129348,-11.286,-1.98,2.388,-209.96,-71.594,705.2,1
1.137913,-12.235,-1.734,2.523,-227.844,-31.372,749.267,1
1.146413,-13.221,-1.477,2.63,-252.075,23.132,800.17,1
1.153039,-14.255,-1.199,2.729,-274.658,77.331,842.773,1
1.161619,-15.404,-0.873,2.762,-302.185,139.221,883.727,1
1.16895,-15.999,-0.429,2.732,-335.144,208.435,920.654,1
1.177641,-15.999,0.106,2.604,-365.722,284.729,951.66,1
1.184652,-15.999,0.823,2.305,-382.507,375.793,977.722,1
1.191769,-15.999,1.439,1.955,-374.633,449.279,990.905,1
1.198389,-15.999,2.03,1.693,-355.529,504.15,995.666,1
1.206218,-15.999,2.465,1.519,-330.932,572.814,996.887,1
1.214489,-15.999,2.826,1.257,-338.989,639.587,990.783,1
1.221364,-15.999,3.104,0.866,-379.882,715.209,978.454,1
1.229761,-15.999,3.435,0.589,-448.059,788.269,954.284,1
1.236321,-15.999,3.656,0.347,-495.605,875.732,921.874,1
1.244949,-15.999,4.002,0.005,-528.259,953.613,875.854,1
1.251558,-15.999,4.18,-0.391,-542.175,1030.273,825.683,1
1.25948,-15.999,4.336,-0.868,-608.459,1091.308,760.436,1
1.267822,-15.999,4.154,-1.425,-730.712,1162.475,671.936,1
1.274322,-15.999,3.897,-2.491,-904.785,1237.548,549.316,1
1.281766,-15.999,3.969,-3.775,-1079.345,1280.578,385.62,1
1.290266,-15.999,3.781,-4.489,-1239.135,1300.109,188.72,1
1.296876,-15.999,2.786,-5.097,-1406.31,1280.273,-26.428,1
1.305078,-15.999,1.958,-5.03,-1499.023,1220.886,-240.6,1
1.313102,-15.999,1.553,-4.444,-1431.335,1111.755,-430.969,1
1.321043,-15.999,0.93,-3.852,-1234.436,985.046,-574.646,1
1.328993,-15.999,-0.201,-3.316,-1010.009,846.679,-666.32,1
1.33703,-15.999,-0.969,-3.146,-817.199,708.129,-721.984,1
1.3442,-15.999,-1.567,-3.116,-686.279,588.928,-742.431,1
1.353245,-14.72,-2.187,-2.826,-550.659,487.976,-743.225,1
1.361916,-13.132,-2.787,-2.808,-412.78,387.451,-723.754,1
1.370426,-11.048,-3.347,-2.581,-335.754,310.791,-689.941,1
1.376682,-9.689,-3.789,-2.577,-336.242,261.291,-653.015,1
1.38435,-8.096,-3.891,-2.389,-346.496,207.336,-614.074,1
1.393254,-7.112,-3.729,-2.048,-301.757,165.893,-573.608,1
1.401011,-5.834,-3.591,-1.973,-235.9,115.356,-523.986,1
1.409209,-5.032,-3.405,-1.786,-191.467,82.763,-481.506,1
1.416597,-4.189,-3.039,-1.658,-166.503,55.358,-441.711,1
1.424553,-3.682,-2.694,-1.475,-151.855,26.55,-400.268,1
1.43271,-3.197,-2.394,-1.324,-152.893,7.995,-368.041,1
1.439158,-2.821,-2.129,-1.202,-165.527,-10.375,-338.317,1
1.447519,-2.564,-1.846,-1.022,-173.034,-26.916,-310.241,1
1.45503,-2.379,-1.604,-0.873,-166.687,-42.358,-284.667,1
1.463542,-2.252,-1.4,-0.708,-145.812,-56.396,-260.62,1
1.471539,-2.177,-1.214,-0.588,-107.849,-67.871,-238.83,1
1.47965,-2.108,-1.027,-0.493,-59.57,-79.04,-219.787,1
1.487701,-2.028,-0.908,-0.415,-5.92,-88.012,-201.354,1
1.495755,-1.927,-0.839,-0.372,28.93,-92.773,-186.462,1
1.504047,-1.794,-0.778,-0.331,44.067,-93.627,-175.659,1
1.510668,-1.673,-0.753,-0.32,46.386,-93.139,-165.832,1
1.518499,-1.508,-0.724,-0.304,36.743,-91.979,-157.104,1
1.528076,-1.361,-0.689,-0.28,21.484,-89.416,-148.681,1
1.535509,-1.234,-0.639,-0.261,3.845,-86.914,-139.282,1
1.543462,-1.11,-0.582,-0.24,-5.798,-84.655,-131.958,1
1.55015,-0.981,-0.523,-0.228,-10.62,-82.397,-124.755,1
1.559178,-0.874,-0.466,-0.216,-5.859,-80.932,-116.455,1
1.565835,-0.771,-0.432,-0.204,5.676,-79.711,-109.558,1
1.574272,-0.658,-0.408,-0.195,18.249,-78.002,-102.722,1
1.582249,-0.538,-0.384,-0.193,30.151,-76.782,-96.374,1
1.588672,-0.467,-0.36,-0.186,37.902,-74.523,-90.454,1
1.596814,-0.382,-0.352,-0.198,40.161,-72.021,-84.533,1
1.604847,-0.325,-0.337,-0.189,37.414,-69.396,-79.467,1
1.613329,-0.257,-0.33,-0.192,30.944,-66.101,-74.462,1
1.620318,-0.21,-0.331,-0.19,16.906,-62.255,-68.542,1
1.628645,-0.168,-0.331,-0.189,-0.61,-58.105,-64.147,1
1.636255,-0.124,-0.318,-0.202,-21.545,-53.833,-59.57,1
1.645977,-0.077,-0.299,-0.208,-42.419,-50.354,-55.664,1
1.654431,-0.056,-0.276,-0.215,-62.622,-45.715,-50.231,1
1.661033,0.014,-0.255,-0.223,-70.8,-43.457,-46.081,1
1.669111,0.057,-0.243,-0.221,-72.937,-41.564,-42.541,1
1.6776,0.076,-0.221,-0.233,-68.054,-40.039,-38.94,1
1.685934,0.128,-0.212,-0.227,-53.771,-39.855,-35.278,1
1.693767,0.171,-0.226,-0.224,-38.574,-39.55,-31.921,1
1.701413,0.232,-0.261,-0.22,-24.414,-38.452,-27.587,1
1.708432,0.291,-0.288,-0.218,-17.211,-37.109,-24.169,1
1.716618,0.344,-0.278,-0.193,-2.136,-35.339,-20.507,1
1.724613,0.454,-0.305,-0.212,8.483,-34.24,-16.723,1
1.732505,0.455,-0.339,-0.202,11.047,-32.47,-12.939,1
1.740888,0.488,-0.313,-0.207,2.136,-29.113,-9.826,1
1.748445,0.619,-0.302,-0.207,-4.577,-27.77,-6.835,1
1.756923,0.695,-0.337,-0.216,-14.099,-24.414,-3.417,1
1.764696,0.73,-0.335,-0.21,-25.512,-21.728,-0.244,1
1.771652,0.776,-0.336,-0.213,-35.522,-18.676,4.028,1
1.780114,0.793,-0.305,-0.216,-41.32,-15.747,7.019,1
1.786742,0.819,-0.284,-0.224,-45.776,-13.244,9.277,1
1.795184,0.828,-0.274,-0.232,-50.292,-11.047,12.268,1
1.802866,0.84,-0.264,-0.248,-54.321,-8.361,14.831,1
1.811716,0.841,-0.259,-0.254,-57.678,-6.591,17.761,1
1.819456,0.878,-0.24,-0.25,-58.227,-4.211,20.141,1
1.828003,0.896,-0.265,-0.278,-55.725,-2.075,22.644,1
1.834472,0.911,-0.261,-0.269,-56.579,-0.061,26.306,1
1.842827,0.919,-0.251,-0.292,-57.8,2.746,29.174,1
1.849978,0.926,-0.243,-0.29,-60.729,4.272,32.165,1
1.858301,0.932,-0.24,-0.301,-64.147,7.568,35.095,1
1.865028,0.95,-0.229,-0.312,-68.359,9.643,38.696,1
1.8721,0.966,-0.218,-0.324,-69.885,11.962,41.198,1
1.880742,0.985,-0.215,-0.345,-72.143,13.488,43.884,1
1.888794,0.984,-0.205,-0.365,-73.913,15.991,47.485,1
1.895484,0.959,-0.196,-0.382,-76.232,17.517,49.865,1
1.903734,0.921,-0.183,-0.388,-77.148,19.104,52.429,1
1.91118,0.894,-0.168,-0.392,-75.927,19.714,54.199,1
1.91901,0.882,-0.149,-0.392,-71.044,20.69,55.847,1
1.927603,0.878,-0.142,-0.393,-62.438,21.667,57.922,1
1.93569,0.892,-0.127,-0.4,-53.283,23.01,60.424,1
1.942617,0.899,-0.104,-0.409,-44.128,23.986,62.377,1
1.950644,0.885,-0.073,-0.421,-34.912,24.536,64.331,1
1.957487,0.855,-0.043,-0.446,-25.817,24.841,66.223,1
1.96591,0.818,-0.021,-0.472,-20.324,23.864,67.443,1
1.972865,0.789,-0.004,-0.489,-17.15,23.01,69.152,1
1.979447,0.767,0.01,-0.502,-17.578,22.521,70.068,1
1.987947,0.754,0.018,-0.525,-20.141,22.033,71.655,1
1.994562,0.76,0.026,-0.532,-27.038,22.705,72.814,1
2.001421,0.787,0.042,-0.553,-33.325,23.376,74.218,1
2.008417,0.786,0.066,-0.571,-39.367,23.742,75.5,1
2.016798,0.775,0.103,-0.593,-41.259,24.414,77.209,1
2.023868,0.763,0.145,-0.634,-40.1,24.047,78.613,1
2.031936,0.671,0.198,-0.662,-38.818,22.766,79.467,1
2.038647,0.668,0.224,-0.69,-36.621,21.667,80.017,1
2.045588,0.65,0.236,-0.721,-37.841,19.714,80.261,1
2.05271,0.641,0.229,-0.74,-41.931,18.31,81.176,1
2.061474,0.649,0.232,-0.745,-48.767,17.028,81.97,1
2.068405,0.674,0.245,-0.749,-53.771,15.258,83.129,1
2.074991,0.707,0.256,-0.763,-54.992,13.854,84.472,1
2.083387,0.714,0.274,-0.761,-51.879,11.596,85.632,1
2.089797,0.749,0.291,-0.773,-47.546,10.62,86.669,1
2.096726,0.733,0.318,-0.796,-42.724,8.728,87.951,1
2.104657,0.7,0.368,-0.823,-40.039,7.202,89.111,1
2.111931,0.692,0.413,-0.87,-38.818,5.126,89.965,1
2.121589,0.683,0.454,-0.892,-39.611,2.746,90.087,1
2.128196,0.672,0.489,-0.908,-42.236,0.61,89.599,1
2.136159,0.611,0.523,-0.916,-44.25,-2.99,89.111,1
2.144464,0.624,0.543,-0.898,-44.006,-6.286,88.195,1
2.150868,0.588,0.551,-0.879,-39.978,-9.765,87.158,1
2.158719,0.559,0.551,-0.854,-32.775,-13.244,86.303,1
2.165781,0.561,0.553,-0.822,-25.695,-15.686,85.571,1
2.174079,0.581,0.563,-0.825,-17.883,-17.822,85.205,1
2.180545,0.609,0.585,-0.839,-13.854,-20.446,84.899,1
2.188737,0.623,0.623,-0.824,-12.573,-23.254,84.411,1
2.195869,0.687,0.661,-0.838,-11.84,-25.207,84.167,1
2.203866,0.707,0.708,-0.835,-12.451,-28.442,83.374,1
2.210736,0.743,0.734,-0.83,-14.953,-30.7,82.702,1
2.218977,0.791,0.796,-0.832,-19.47,-32.836,81.42,1
2.225919,0.832,0.824,-0.827,-22.521,-35.827,80.078,1
2.233548,0.88,0.872,-0.831,-22.705,-37.414,78.613,1
2.241961,0.926,0.904,-0.836,-21.118,-41.015,77.148,1
2.250342,0.945,0.927,-0.833,-21.789,-42.602,75.927,1
2.257406,0.954,0.925,-0.844,-30.944,-44.433,74.401,1
2.26385,0.979,0.997,-0.834,-41.992,-44.067,72.082,1
2.272158,0.955,1.031,-0.853,-52.795,-45.227,69.458,1
2.279721,0.879,1.064,-0.844,-64.453,-44.372,66.406,1
2.286637,0.849,1.093,-0.843,-85.571,-43.762,64.025,1
2.295219,0.812,1.133,-0.831,-103.21,-42.785,60.18,1
2.301911,0.82,1.214,-0.795,-112.731,-42.053,55.114,1
2.310314,0.778,1.28,-0.772,-118.103,-42.236,50.415,1
2.317217,0.776,1.279,-0.754,-116.333,-44.189,44.738,1
2.324523,0.745,1.29,-0.708,-112.976,-44.372,39.428,1
2.33247,0.78,1.293,-0.706,-111.816,-46.325,34.057,1
2.340359,0.788,1.287,-0.676,-114.562,-47.485,28.625,1
2.348805,0.787,1.279,-0.66,-125.976,-47.424,23.986,1
2.355412,0.783,1.288,-0.652,-142.395,-48.4,18.981,1
2.363278,0.808,1.289,-0.6,-152.709,-49.621,13.61,1
2.371635,0.701,1.188,-0.613,-158.935,-51.452,9.948,1
2.379761,0.778,1.326,-0.534,-156.127,-51.818,6.469,1
2.386646,0.805,1.22,-0.55,-139.465,-57.739,2.258,1
2.394559,0.752,1.147,-0.483,-121.093,-58.654,-1.22,1
2.402876,0.783,1.051,-0.498,-108.886,-61.767,-4.272,1
2.409412,0.764,0.962,-0.442,-100.036,-64.086,-7.69,1
2.417739,0.767,0.85,-0.408,-95.031,-63.903,-10.009,1
2.424317,0.771,0.756,-0.374,-92.407,-65.246,-12.145,1
2.432525,0.76,0.659,-0.317,-90.759,-64.819,-13.549,1
2.441422,0.766,0.573,-0.273,-87.89,-64.575,-14.221,1
2.448426,0.745,0.477,-0.203,-83.007,-64.453,-14.77,1
2.457103,0.742,0.376,-0.154,-77.392,-63.11,-14.77,1
2.463758,0.755,0.277,-0.107,-77.148,-60.974,-14.099,1
2.472093,0.768,0.183,-0.062,-83.435,-57.556,-13.305,1
2.480431,0.794,0.06,-0.045,-99.487,-53.649,-11.962,1
2.488825,0.798,0.013,0.006,-114.685,-49.804,-9.094,1
2.495805,0.791,-0.007,-0.004,-127.807,-46.997,-6.835,1
2.504676,0.775,-0.057,0.042,-136.108,-44.738,-3.784,1
2.511647,0.668,-0.042,0.025,-141.174,-41.442,-0.488,1
2.520425,0.803,-0.063,0.059,-142.517,-42.297,2.319,1
2.527529,0.045,-0.01,0.009,-141.113,-39.184,4.089,1
2.535606,0.083,-0.018,0.057,-144.592,-44.189,4.76,1
2.542252,0.123,-0.022,0.034,-140.563,-38.024,6.408,1
2.550139,0.257,-0.044,0.048,-142.883,-41.442,8.789,1
2.558528,0.405,-0.06,0.067,-134.582,-32.47,14.404,1
2.566452,0.554,-0.076,0.065,-130.981,-33.874,19.897,1
2.574473,0.725,-0.089,0.07,-114.929,-22.766,27.282,1
2.582332,0.773,-0.073,0.054,-105.773,-21.545,31.738,1
2.588825,0.958,-0.073,0.067,-91.552,-12.939,34.423,1
2.5972,1.09,-0.071,0.034,-81.176,-16.235,40.161,1
2.605515,1.142,-0.055,0.089,-60.546,-11.779,48.217,1
2.612144,1.23,-0.061,0.023,-48.828,-15.075,51.818,1
2.620273,1.356,-0.084,0.023,-32.104,-11.108,56.945,1
2.628115,1.631,-0.123,-0.145,-31.188,-16.601,57.922,1
2.63656,1.652,-0.09,-0.141,-33.996,-18.31,56.579,1
2.64327,1.486,-0.039,-0.302,-40.771,-24.902,54.138,1
2.653045,1.003,0.017,-0.229,-40.161,-23.742,53.527,1
2.660039,0.699,0.043,-0.336,-27.343,-23.193,53.771,1
2.666417,0.691,0.057,-0.332,1.647,-19.897,53.771,1
2.674821,0.893,0.026,-0.407,26.062,-19.531,53.039,1
2.681614,0.995,0.012,-0.385,43.273,-17.333,52.429,1
2.689649,0.986,0.006,-0.402,49.56,-15.441,52.856,1
2.696321,0.937,0.016,-0.367,52.246,-14.892,53.894,1
2.704208,0.946,0.01,-0.362,54.565,-13.61,55.541,1
2.71127,0.947,0.017,-0.316,49.987,-13.854,57.434,1
2.719046,0.959,0.026,-0.304,44.921,-13.488,59.631,1
2.725962,0.936,0.075,-0.252,41.259,-14.465,61.95,1
2.734422,0.867,0.09,-0.241,38.269,-12.939,64.331,1
2.741609,0.965,0.12,-0.276,28.32,-14.038,67.443,1
2.748084,1.022,0.18,-0.286,19.836,-12.207,69.702,1
2.7571,1.016,0.228,-0.354,7.08,-13.244,71.655,1
2.763178,1.0,0.284,-0.411,-10.192,-12.634,73.181,1
2.771962,0.605,0.391,-0.467,-30.517,-13.793,74.829,1
2.780535,0.298,0.472,-0.506,-37.902,-13.61,74.035,1
2.786724,0.014,0.574,-0.587,-42.785,-16.967,73.425,1
2.793581,0.052,0.653,-0.564,-38.269,-19.836,72.937,1
2.801536,0.375,0.76,-0.686,-34.118,-18.066,72.387,1
2.808577,0.737,0.831,-0.836,-41.809,-23.01,67.81,1
2.817024,0.792,0.84,-0.849,-56.64,-23.62,62.011,1
2.823858,0.747,0.838,-0.9,-79.589,-22.949,57.678,1
2.832211,0.773,0.902,-0.98,-101.684,-21.24,53.649,1
2.839959,0.866,1.035,-1.053,-109.497,-23.986,49.438,1
2.847064,0.927,1.191,-1.056,-90.515,-29.052,45.898,1
2.853956,0.951,1.315,-1.119,-46.752,-37.109,41.503,1
2.862328,0.966,1.358,-1.168,2.929,-47.18,36.437,1
2.869288,1.007,1.334,-1.211,37.963,-55.175,30.639,1
2.877638,1.02,1.299,-1.254,44.25,-61.157,24.658,1
2.884819,1.029,1.272,-1.263,30.09,-64.697,19.836,1
2.891108,1.033,1.251,-1.248,0.915,-67.26,14.221,1
2.899576,1.023,1.256,-1.211,-25.573,-69.641,8.85,1
2.906298,0.999,1.264,-1.152,-37.475,-72.875,3.967,1
2.914168,0.976,1.244,-1.094,-34.057,-77.27,-1.281,1
2.921894,0.943,1.192,-1.02,-21.972,-82.214,-6.408,1
2.930254,0.917,1.098,-0.919,-6.53,-86.486,-11.596,1
2.936926,0.907,1.008,-0.831,1.525,-89.233,-15.197,1
2.944705,0.892,0.916,-0.757,2.99,-91.186,-17.944,1
2.952716,0.87,0.831,-0.669,-1.037,-92.163,-20.263,1
2.961044,0.798,0.739,-0.59,-16.845,-90.27,-22.521,1
2.967532,0.696,0.657,-0.564,-41.87,-91.186,-23.071,1
2.974636,0.722,0.578,-0.448,-69.885,-90.026,-24.963,1
2.982603,0.687,0.484,-0.34,-95.275,-86.791,-25.939,1
2.990412,0.595,0.412,-0.251,-130.432,-85.083,-25.329,1
2.997424,0.593,0.349,-0.137,-145.935,-83.251,-23.864,1
3.005643,0.564,0.297,-0.043,-154.907,-83.618,-21.972,1
3.013529,0.527,0.271,0.098,-151.062,-82.641,-19.897,1
3.01996,0.534,0.253,0.182,-133.056,-82.458,-17.7,1
3.028328,0.507,0.216,0.319,-103.088,-81.115,-15.38,1
3.036967,0.487,0.142,0.406,-74.829,-80.139,-12.207,1
3.044032,0.482,0.071,0.507,-49.255,-77.026,-8.666,1
3.050596,0.599,0.029,0.554,-26.855,-73.303,-4.089,1
3.059373,0.631,0.03,0.645,-6.652,-69.641,1.22,1
3.066473,0.642,0.013,0.685,31.494,-67.199,5.859,1
3.074475,0.53,-0.205,0.813,56.823,-68.847,9.399,1
3.082657,0.486,-0.322,0.727,64.147,-56.091,17.517,1
3.090168,0.635,-0.351,0.768,36.682,-51.696,23.132,1
3.097328,0.735,-0.365,0.749,9.155,-39.55,28.381,1
3.104186,0.582,-0.33,0.804,-17.7,-36.071,33.386,1
3.113854,0.591,-0.299,0.787,-36.865,-22.155,40.771,1
3.12053,0.686,-0.263,0.77,-52.917,-16.418,46.874,1
3.128503,0.679,-0.233,0.711,-56.457,-5.493,53.466,1
3.13522,0.631,-0.165,0.626,-53.161,-0.854,60.546,1
3.142958,0.683,-0.084,0.563,-37.353,6.652,65.185,1
3.151479,0.736,-0.033,0.479,-13.061,7.385,69.58,1
3.158597,0.753,-0.002,0.409,14.404,11.779,73.242,1
3.165437,0.8,0.017,0.288,34.667,11.596,75.866,1
3.172378,0.875,0.024,0.232,44.982,13.427,79.04,1
3.179419,0.975,0.045,0.134,33.386,15.869,82.275,1
3.186458,0.972,0.113,0.074,-4.089,19.653,84.716,1
3.195237,0.977,0.272,-0.034,-56.152,24.597,87.036,1
3.202306,0.97,0.531,-0.121,-96.069,26.55,87.28,1
3.211011,0.904,0.773,-0.236,-107.299,26.245,85.083,1
3.21777,0.744,1.018,-0.41,-100.402,23.681,81.481,1
3.226683,0.704,1.294,-0.675,-84.411,18.005,75.927,1
3.233698,0.785,1.471,-0.881,-61.889,10.07,67.749,1
3.240547,0.877,1.615,-1.11,-50.537,2.258,59.265,1
3.249119,0.937,1.77,-1.291,-49.133,-6.164,50.659,1
3.255463,0.976,1.938,-1.474,-53.649,-12.817,42.175,1
3.267006,1.003,2.105,-1.643,-62.255,-22.766,31.066,1
3.273152,1.042,2.251,-1.819,-77.575,-36.376,14.77,1
3.279926,1.02,2.334,-1.93,-97.656,-47.119,2.014,1
3.288265,1.098,2.38,-2.042,-115.783,-59.143,-11.352,1
3.294926,1.072,2.41,-2.093,-124.084,-70.068,-22.338,1
3.302948,1.053,2.4,-2.114,-125.122,-84.716,-35.278,1
3.310196,1.024,2.355,-2.14,-117.065,-100.585,-47.363,1
3.318544,0.961,2.254,-2.148,-104.431,-117.736,-59.326,1
3.32568,0.898,2.164,-2.141,-89.355,-134.277,-71.228,1
3.333474,0.812,2.043,-2.113,-78.918,-151.184,-82.092,1
3.341364,0.666,1.908,-2.031,-73.181,-166.87,-92.346,1
3.34942,0.534,1.793,-1.932,-69.885,-184.204,-103.759,1
3.357798,0.333,1.645,-1.781,-72.143,-197.814,-112.609,1
3.36526,0.115,1.509,-1.645,-78.247,-212.341,-122.314,1
3.373562,-0.085,1.376,-1.5,-81.054,-224.121,-129.76,1
3.381702,-0.273,1.211,-1.339,-75.744,-237.365,-137.39,1
3.388528,-0.458,1.058,-1.196,-71.166,-248.352,-143.005,1
3.396308,-0.633,0.895,-1.068,-72.326,-257.873,-148.071,1
3.404784,-0.795,0.73,-0.938,-76.477,-267.15,-152.221,1
3.411586,-1.037,0.586,-0.811,-80.2,-275.207,-155.212,1
3.420196,-1.2,0.439,-0.689,-82.885,-284.606,-157.531,1
3.429822,-1.39,0.26,-0.545,-80.566,-292.602,-158.264,1
3.436427,-1.569,0.087,-0.416,-74.707,-303.039,-158.142,1
3.444283,-1.706,-0.031,-0.317,-68.603,-311.035,-156.433,1
3.453983,-1.828,-0.149,-0.241,-63.11,-320.129,-153.442,1
3.462521,-2.009,-0.256,-0.165,-53.771,-329.589,-149.292,1
3.472096,-2.189,-0.364,-0.103,-38.452,-340.515,-144.47,1
3.480461,-2.341,-0.482,-0.05,-27.893,-351.074,-138.427,1
3.48894,-2.521,-0.625,0.006,-26.916,-361.267,-129.943,1
3.495557,-2.705,-0.703,0.083,-29.296,-368.774,-120.849,1
3.503434,-2.907,-0.75,0.151,-21.545,-376.831,-111.145,1
3.511355,-3.112,-0.814,0.194,-18.127,-384.643,-99.609,1
3.520218,-3.192,-0.88,0.242,-17.944,-391.601,-87.768,1
3.527263,-3.576,-0.936,0.28,-36.987,-401.672,-74.279,1
3.535583,-3.898,-0.979,0.372,-49.072,-407.958,-60.363,1
3.543411,-4.158,-0.959,0.426,-51.757,-417.114,-47.119,1
3.550259,-4.413,-0.978,0.528,-41.076,-424.194,-31.127,1
3.558097,-4.656,-1.057,0.58,-22.949,-437.377,-13.0,1
3.566031,-4.966,-1.244,0.707,-23.498,-440.673,5.798,1
3.574294,-5.28,-1.452,0.77,-65.307,-442.321,28.015,1
3.58264,-5.556,-1.68,0.966,-144.287,-436.401,57.8,1
3.591418,-5.764,-1.793,1.173,-230.468,-428.161,100.708,1
3.598485,-5.917,-1.882,1.474,-268.676,-420.043,143.127,1
3.606761,-5.954,-2.211,1.738,-291.198,-406.921,191.223,1
3.613528,-5.873,-2.545,2.058,-361.816,-377.807,257.446,1
3.621774,-6.007,-2.68,2.304,-439.331,-343.627,319.58,1
3.628608,-6.211,-2.698,2.701,-496.826,-300.964,386.779,1
3.63683,-6.549,-2.645,2.987,-511.108,-252.075,453.674,1
3.64542,-6.997,-2.607,3.311,-500.549,-196.594,520.019,1
3.652393,-7.518,-2.593,3.533,-482.604,-135.742,584.228,1
3.660644,-8.216,-2.491,3.708,-471.984,-67.26,644.287,1
3.667536,-9.33,-2.221,3.736,-456.97,5.371,700.744,1
3.676221,-10.474,-1.933,3.598,-434.753,78.979,752.807,1
3.682904,-11.677,-1.552,3.341,-429.138,166.259,807.678,1
3.690829,-12.867,-1.09,3.058,-438.476,242.797,846.801,1
3.698642,-14.179,-0.501,2.749,-445.068,320.983,877.441,1
3.705488,-15.355,0.101,2.444,-432.556,393.615,897.521,1
3.712405,-15.999,0.557,2.232,-402.16,448.791,907.775,1
3.720648,-15.999,1.043,1.997,-344.726,505.981,913.391,1
3.727207,-15.999,1.315,1.734,-289.367,553.588,914.977,1
3.735491,-15.999,1.62,1.575,-253.601,594.116,914.977,1
3.742222,-15.999,1.913,1.456,-240.966,626.342,912.048,1
3.750855,-15.999,2.165,1.428,-259.948,663.94,903.564,1
3.759445,-15.999,2.412,1.35,-303.039,709.838,887.634,1
3.766464,-15.999,2.475,1.027,-394.592,770.873,860.107,1
3.774885,-15.999,2.722,0.836,-460.144,828.063,827.697,1
3.781667,-15.999,2.854,0.603,-477.844,882.873,790.771,1
3.789541,-15.999,2.797,0.11,-505.737,937.561,751.403,1
3.796439,-15.999,2.89,-0.317,-555.175,978.149,700.134,1
3.80493,-15.999,3.404,-0.575,-597.534,1017.394,625.427,1
3.811547,-15.999,4.266,-1.065,-597.412,1047.546,531.433,1
3.819707,-15.999,4.651,-1.597,-522.644,1042.724,438.537,1
3.827489,-15.999,4.654,-2.104,-508.178,1051.574,350.646,1
3.834347,-15.999,4.341,-2.83,-626.647,1052.734,255.065,1
3.842657,-15.999,3.756,-3.435,-823.669,1064.148,142.822,1
3.849444,-15.999,3.246,-4.0,-1018.432,1057.739,11.779,1
3.857749,-14.725,2.882,-3.978,-1060.73,1010.314,-127.746,1
3.86593,-13.264,2.296,-3.844,-899.658,922.912,-264.648,1
3.874342,-11.963,1.686,-3.907,-647.46,829.04,-345.581,1
3.881021,-10.863,0.912,-4.21,-392.761,734.68,-387.634,1
3.889257,-9.731,0.145,-4.476,-209.35,657.836,-400.39,1
3.896001,-8.787,-0.537,-4.679,-155.944,597.595,-398.62,1
3.904824,-7.841,-1.096,-4.687,-227.844,554.26,-395.141,1
3.912307,-7.161,-1.363,-4.614,-301.391,509.643,-394.897,1
3.919295,-6.31,-1.625,-4.536,-324.401,458.862,-396.423,1
3.927671,-5.437,-1.921,-4.421,-301.757,394.958,-393.249,1
3.936435,-4.629,-2.228,-4.317,-287.719,343.811,-384.46,1
3.943438,-3.983,-2.439,-4.133,-284.973,298.278,-372.253,1
3.950417,-3.367,-2.624,-3.997,-281.677,254.516,-356.75,1
3.959028,-2.886,-2.734,-3.836,-268.554,208.984,-339.538,1
3.965884,-2.449,-2.823,-3.607,-224.548,168.029,-320.251,1
3.973911,-2.142,-2.914,-3.431,-177.917,126.708,-299.682,1
3.982269,-1.866,-2.973,-3.222,-136.901,94.238,-275.756,1
3.989313,-1.625,-2.969,-3.066,-111.45,59.57,-247.619,1
3.997664,-1.426,-2.895,-2.833,-95.214,34.667,-223.083,1
4.004617,-1.193,-2.807,-2.644,-84.411,12.634,-199.645,1
4.012862,-1.067,-2.667,-2.425,-83.557,-5.31,-176.391,1
4.021284,-0.979,-2.436,-2.194,-84.289,-20.69,-154.968,1
4.02807,-0.948,-2.241,-2.001,-78.186,-35.095,-135.009,1
4.035954,-0.916,-2.068,-1.846,-68.176,-49.377,-113.281,1
4.044414,-0.894,-1.89,-1.686,-62.561,-59.631,-96.74,1
4.051084,-0.852,-1.714,-1.55,-58.166,-67.687,-80.993,1
4.059813,-0.804,-1.538,-1.429,-58.227,-74.34,-67.016,1
4.066701,-0.753,-1.368,-1.308,-59.326,-79.101,-53.833,1
4.075153,-0.72,-1.218,-1.221,-57.983,-83.618,-41.931,1
4.081942,-0.663,-1.091,-1.136,-51.33,-88.195,-30.883,1
4.089899,-0.611,-1.002,-1.065,-40.466,-92.59,-20.69,1
4.09816,-0.58,-0.935,-1.009,-31.433,-96.252,-11.23,1
4.106478,-0.507,-0.867,-0.942,-30.883,-98.388,-1.22,1
4.115019,-0.46,-0.791,-0.895,-32.836,-99.487,6.591,1
4.123267,-0.406,-0.737,-0.843,-44.433,-98.754,15.808,1
4.129936,-0.324,-0.675,-0.824,-54.992,-97.534,23.315,1
4.137912,-0.271,-0.6,-0.784,-65.429,-95.703,30.517,1
4.146294,-0.232,-0.555,-0.774,-76.354,-93.444,38.269,1
4.154238,-0.184,-0.48,-0.746,-88.195,-91.308,46.386,1
4.162639,-0.145,-0.406,-0.718,-90.942,-88.867,52.856,1
4.169656,-0.108,-0.359,-0.702,-91.735,-87.402,59.143,1
4.177985,-0.069,-0.311,-0.689,-95.825,-84.838,66.345,1
4.186679,-0.036,-0.266,-0.687,-101.379,-82.885,71.96,1
4.193298,0.001,-0.202,-0.67,-105.102,-80.749,77.27,1
4.200234,0.053,-0.119,-0.652,-105.407,-78.613,82.031,1
4.208341,0.101,-0.051,-0.637,-102.172,-76.11,85.327,1
4.215421,0.138,0.005,-0.628,-99.975,-74.035,88.134,1
4.223756,0.166,0.059,-0.605,-98.083,-71.472,90.393,1
4.231956,0.206,0.122,-0.589,-94.665,-69.03,92.224,1
4.240813,0.284,0.188,-0.582,-87.097,-66.833,93.994,1
4.247563,0.352,0.277,-0.59,-74.035,-65.185,94.848,1
4.254806,0.375,0.377,-0.61,-60.241,-64.208,94.909,1
4.264643,0.414,0.476,-0.632,-45.104,-64.88,93.383,1
4.27075,0.52,0.553,-0.666,-28.381,-65.551,90.209,1
4.278542,0.615,0.579,-0.687,-21.118,-66.65,86.914,1
4.286844,0.693,0.582,-0.693,-23.559,-64.941,83.679,1
4.294933,0.797,0.579,-0.702,-36.193,-63.11,80.993,1
4.303476,0.868,0.614,-0.713,-54.626,-60.058,78.491,1
4.311041,0.917,0.66,-0.736,-75.195,-57.373,76.171,1
4.319189,0.977,0.705,-0.73,-96.13,-54.443,72.814,1
4.327713,1.037,0.728,-0.728,-108.764,-52.978,69.824,1
4.334494,1.101,0.749,-0.713,-120.666,-50.659,66.711,1
4.341598,1.133,0.754,-0.705,-130.92,-49.072,64.025,1
4.349928,1.129,0.754,-0.683,-141.174,-47.546,61.279,1
4.356914,1.186,0.764,-0.655,-149.414,-45.41,58.898,1
4.364908,1.184,0.753,-0.636,-159.851,-43.273,56.396,1
4.373027,1.166,0.75,-0.621,-174.865,-39.978,54.443,1
4.379472,1.134,0.749,-0.61,-192.626,-37.841,52.001,1
4.387243,1.145,0.739,-0.584,-205.078,-35.766,49.56,1
4.394312,1.176,0.72,-0.557,-208.129,-34.973,47.363,1
4.402052,1.214,0.689,-0.504,-203.247,-34.973,45.776,1
4.410322,1.25,0.649,-0.46,-193.603,-35.583,43.762,1
4.417586,1.264,0.608,-0.419,-179.443,-36.437,41.992,1
4.425392,1.245,0.544,-0.378,-166.381,-36.987,40.222,1
4.433699,1.215,0.453,-0.327,-158.142,-36.926,38.391,1
4.441498,1.205,0.387,-0.281,-154.235,-36.437,37.048,1
4.448347,1.183,0.337,-0.228,-150.817,-35.461,35.949,1
4.456594,1.143,0.28,-0.187,-146.301,-34.179,35.4,1
4.465437,1.025,0.227,-0.138,-138.549,-32.897,35.278,1
4.471753,1.068,0.162,-0.115,-131.958,-31.066,34.912,1
4.480043,1.119,0.133,-0.094,-123.596,-29.724,35.522,1
4.488911,1.07,0.105,-0.064,-119.628,-26.733,35.583,1
4.495908,0.982,0.071,-0.085,-120.666,-24.719,34.79,1
4.504707,0.973,0.047,-0.067,-124.938,-22.766,33.874,1
4.511756,0.988,0.025,-0.071,-129.699,-20.69,33.752,1
4.520136,1.027,0.005,-0.063,-132.568,-18.859,33.752,1
4.52747,1.019,-0.016,-0.069,-133.605,-17.517,33.874,1
4.534117,1.028,-0.018,-0.048,-131.408,-15.502,33.752,1
4.542302,1.021,-0.024,-0.045,-124.328,-13.977,33.752,1
4.550934,0.994,-0.033,-0.046,-115.722,-12.451,33.691,1
4.55775,1.007,-0.048,-0.067,-107.971,-10.07,35.156,1
4.567797,1.01,-0.069,-0.086,-107.604,-8.728,36.193,1
4.574389,1.004,-0.079,-0.11,-112.487,-6.225,37.902,1
4.582736,0.961,-0.072,-0.128,-119.689,-4.333,39.428,1
4.591031,0.923,-0.054,-0.135,-123.291,-2.685,39.855,1
4.597644,0.903,-0.037,-0.144,-123.779,-1.525,39.733,1
4.605361,0.891,-0.025,-0.147,-121.459,-0.915,39.245,1
4.61375,0.879,-0.016,-0.148,-117.614,-0.854,38.391,1
4.620664,0.861,-0.019,-0.147,-113.159,-1.342,37.719,1
4.629449,0.885,-0.026,-0.153,-108.703,-2.197,37.048,1
4.638201,0.878,-0.027,-0.167,-102.661,-2.868,36.254,1
4.646081,0.843,-0.028,-0.172,-95.214,-3.295,35.705,1
4.652561,0.807,-0.033,-0.183,-87.463,-3.479,35.461,1
4.661702,0.783,-0.046,-0.193,-82.824,-2.868,35.522,1
4.669589,0.77,-0.067,-0.211,-84.655,-1.464,35.461,1
4.677777,0.779,-0.095,-0.23,-94.055,-0.061,35.4,1
4.685346,0.781,-0.098,-0.252,-102.416,1.22,35.034,1
4.693403,0.777,-0.091,-0.267,-107.666,1.586,34.545,1
4.70205,0.781,-0.089,-0.276,-108.093,1.647,34.545,1
4.710343,0.766,-0.075,-0.276,-101.623,0.854,34.729,1
4.718014,0.848,-0.094,-0.285,-96.252,-0.366,35.217,1
4.725605,0.825,-0.083,-0.284,-91.552,-1.037,35.095,1
4.733132,0.798,-0.072,-0.282,-81.054,-2.746,34.851,1
4.740103,0.769,-0.048,-0.258,-62.683,-4.455,34.729,1
4.748119,0.789,-0.016,-0.266,-34.851,-7.324,35.095,1
4.755188,0.812,0.002,-0.27,0.305,-10.375,36.132,1
4.762933,0.857,-0.005,-0.307,30.273,-13.732,36.865,1
4.771279,0.858,-0.021,-0.333,50.537,-14.953,37.109,1
4.779607,0.899,-0.046,-0.379,59.082,-17.028,37.048,1
4.786749,0.917,-0.045,-0.407,60.791,-17.517,37.109,1
4.794502,1.02,-0.061,-0.464,53.527,-19.592,37.414,1
4.801396,1.025,-0.055,-0.473,43.884,-19.47,38.635,1
4.810108,1.044,-0.061,-0.505,32.714,-21.484,39.978,1
4.817066,1.062,-0.053,-0.504,16.052,-22.338,42.053,1
4.824132,1.029,-0.041,-0.542,-2.319,-24.719,43.579,1
4.832442,1.017,-0.047,-0.54,-24.902,-26.0,44.982,1
4.84035,1.007,-0.043,-0.563,-50.781,-26.916,45.837,1
4.847197,0.967,-0.027,-0.544,-73.547,-27.709,46.264,1
4.855458,0.931,-0.013,-0.539,-90.087,-28.503,45.776,1
4.864146,0.914,0.013,-0.503,-96.679,-29.541,44.677,1
4.871085,0.948,0.02,-0.498,-89.965,-31.188,43.518,1
4.880527,0.998,0.025,-0.484,-78.125,-34.179,42.236,1
4.886682,1.038,0.019,-0.472,-63.598,-37.658,40.893,1
4.894512,1.038,0.019,-0.451,-54.016,-40.222,40.1,1
4.903295,1.008,0.024,-0.433,-46.936,-41.687,39.306,1
4.911407,0.999,0.033,-0.418,-39.916,-43.701,38.452,1
4.918206,1.032,0.046,-0.404,-26.794,-46.508,37.17,1
4.926135,1.06,0.051,-0.379,-14.343,-49.316,36.376,1
4.934919,1.061,0.045,-0.363,-5.004,-51.208,35.4,1
4.941515,1.025,0.038,-0.336,-3.417,-52.246,34.79,1
4.948352,0.968,0.027,-0.315,-10.803,-51.391,34.24,1
4.956737,0.942,0.016,-0.297,-28.259,-49.56,34.545,1
4.963808,0.964,0.016,-0.267,-45.654,-47.424,34.545,1
4.970688,0.971,0.02,-0.248,-63.659,-45.104,34.118,1
4.979359,1.019,0.041,-0.217,-73.547,-43.334,33.264,1
4.987816,0.987,0.065,-0.189,-72.448,-43.579,31.86,1
4.994764,0.956,0.074,-0.17,-63.903,-43.762,31.311,1
5.003817,0.94,0.071,-0.159,-53.222,-45.349,30.395,1
5.010435,0.965,0.077,-0.14,-37.719,-46.997,29.846,1
5.017372,1.016,0.074,-0.124,-20.141,-49.316,28.991,1
5.026181,0.988,0.077,-0.103,0.305,-50.964,28.503,1
5.032533,0.921,0.079,-0.069,23.132,-51.33,28.381,1
5.039377,0.936,0.083,-0.046,50.292,-50.72,28.381,1
5.047933,0.963,0.08,-0.025,78.735,-49.926,28.503,1
5.054891,0.993,0.077,-0.029,100.219,-48.645,28.442,1
5.06349,1.016,0.056,-0.047,112.243,-47.851,27.832,1
5.0715,0.981,0.041,-0.068,113.952,-46.874,27.465,1
5.078174,0.902,0.028,-0.075,108.703,-47.668,27.16,1
5.08599,0.686,0.018,-0.112,95.275,-45.837,29.296,1
5.093993,0.975,0.0,-0.091,73.73,-48.278,31.555,1
5.102244,1.096,-0.021,-0.093,58.959,-45.349,31.982,1
5.108996,1.121,-0.049,-0.065,44.433,-45.043,31.555,1
5.117683,1.062,-0.072,-0.06,39.794,-42.663,32.348,1
5.124294,0.985,-0.084,-0.039,35.4,-43.09,34.301,1
5.132134,0.962,-0.096,-0.033,35.888,-41.076,37.109,1
5.139169,0.909,-0.11,-0.042,35.339,-41.931,39.916,1
5.147364,0.949,-0.132,-0.029,33.935,-40.466,43.029,1
5.15444,0.948,-0.145,-0.045,28.564,-41.198,45.593,1
5.161262,0.933,-0.148,-0.023,23.315,-39.855,48.583,1
5.169628,0.941,-0.143,-0.043,15.075,-39.978,51.269,1
5.176826,0.947,-0.133,-0.025,7.324,-38.085,53.161,1
5.185246,0.948,-0.128,-0.036,-3.295,-37.536,54.565,1
5.192451,0.933,-0.118,-0.015,-14.038,-35.827,56.579,1
5.199509,0.938,-0.11,-0.025,-26.184,-34.484,58.837,1
5.207364,0.935,-0.088,0.002,-36.254,-31.982,60.974,1
5.215506,0.93,-0.077,-0.008,-44.25,-30.029,63.171,1
5.223691,0.886,-0.066,0.014,-50.964,-28.076,64.88,1
5.230742,0.855,-0.062,0.009,-59.204,-24.658,67.321,1
5.23906,0.828,-0.065,0.033,-69.091,-21.484,69.824,1
5.248026,0.815,-0.062,0.024,-82.58,-16.845,72.998,1
5.2559,0.781,-0.005,0.032,-90.759,-12.573,75.744,1
5.262523,0.85,0.031,0.024,-86.914,-11.596,76.66,1
5.271287,0.803,0.059,0.029,-78.43,-11.352,76.599,1
5.27785,0.771,0.072,0.027,-68.725,-11.169,78.186,1
5.284534,0.847,0.092,0.041,-56.64,-10.559,79.711,1
5.291613,0.923,0.104,0.026,-42.785,-11.169,80.81,1
5.300129,0.886,0.118,0.047,-34.851,-11.169,82.275,1
5.306812,0.753,0.146,0.038,-36.56,-9.582,84.472,1
5.313981,0.745,0.194,0.041,-40.649,-9.033,85.327,1
5.322409,0.758,0.226,0.052,-43.395,-7.141,85.876,1
5.329126,0.722,0.268,0.042,-47.668,-5.615,86.425,1
5.337319,0.679,0.308,0.037,-53.527,-3.967,86.303,1
5.344,0.656,0.344,0.03,-59.02,-2.258,86.181,1
5.352722,0.659,0.375,0.026,-63.72,-0.488,85.876,1
5.359091,0.67,0.406,0.021,-63.781,0.488,85.815,1
5.365612,0.679,0.443,0.02,-58.776,1.22,85.51,1
5.37353,0.679,0.475,0.027,-48.706,0.793,85.144,1
5.381458,0.677,0.5,0.029,-37.963,1.22,84.716,1
5.38861,0.682,0.515,0.021,-34.545,2.014,83.923,1
5.396443,0.671,0.523,0.011,-42.907,4.028,82.641,1
5.4033,0.676,0.547,-0.007,-56.03,6.652,81.542,1
5.410618,0.676,0.591,-0.015,-64.025,7.934,80.139,1
5.41861,0.687,0.624,-0.021,-65.979,8.605,78.918,1
5.425765,0.708,0.651,-0.031,-61.828,8.483,77.331,1
5.43355,0.719,0.66,-0.047,-58.349,8.483,76.904,1
5.440603,0.72,0.645,-0.062,-64.453,9.338,76.354,1
5.448674,0.791,0.678,-0.068,-75.012,10.681,75.5,1
5.455635,0.783,0.679,-0.084,-84.533,11.718,72.814,1
5.462604,0.757,0.72,-0.09,-92.407,13.366,71.96,1
5.470948,0.805,0.741,-0.117,-93.505,13.366,70.007,1
5.477686,0.821,0.782,-0.112,-87.463,13.671,68.481,1
5.48606,0.849,0.826,-0.144,-73.12,12.145,65.795,1
5.493993,0.833,0.849,-0.149,-55.603,9.826,63.903,1
5.501079,0.87,0.874,-0.184,-38.879,7.141,62.438,1
5.50794,0.867,0.889,-0.183,-23.254,3.662,60.424,1
5.515708,0.937,0.896,-0.185,-9.948,1.464,58.898,1
5.522893,0.947,0.901,-0.193,-5.981,-0.488,56.884,1
5.530867,0.969,0.906,-0.202,-7.873,-1.342,54.992,1
5.537613,0.972,0.913,-0.217,-15.747,-2.319,53.222,1
5.544808,1.0,0.919,-0.22,-30.395,-2.197,52.185,1
5.552563,1.064,0.972,-0.226,-32.836,-2.685,48.828,1
5.560855,0.984,1.016,-0.223,-25.573,-4.76,45.776,1
5.56941,1.011,1.042,-0.246,-16.235,-6.713,42.907,1
5.576482,1.021,1.063,-0.238,-5.92,-8.666,40.1,1
5.584242,1.051,1.084,-0.25,5.737,-10.986,37.17,1
5.590865,1.077,1.095,-0.247,14.282,-13.183,33.691,1
5.598997,1.104,1.094,-0.247,19.042,-14.038,29.663,1
5.605587,1.037,1.089,-0.25,13.549,-13.854,26.062,1
5.613742,1.008,1.109,-0.267,-0.061,-13.305,23.071,1
5.619963,1.025,1.152,-0.267,-12.39,-12.451,18.432,1
5.629557,0.991,1.187,-0.279,-19.958,-12.023,13.977,1
5.636132,1.008,1.211,-0.291,-21.972,-12.756,9.033,1
5.642738,0.998,1.228,-0.3,-18.249,-13.854,3.967,1
5.652994,1.016,1.219,-0.303,-13.854,-15.686,-0.366,1
5.660028,1.036,1.183,-0.315,-16.296,-16.723,-5.371,1
5.668801,0.997,1.186,-0.312,-23.254,-16.784,-9.216,1
5.676926,1.016,1.179,-0.328,-31.188,-17.028,-13.122,1
5.683492,1.035,1.173,-0.324,-41.259,-17.333,-17.7,1
5.691392,1.018,1.168,-0.338,-49.743,-17.15,-21.362,1
5.698573,1.004,1.181,-0.342,-53.894,-18.066,-24.536,1
5.706437,1.002,1.202,-0.337,-47.607,-19.165,-27.404,1
5.714663,0.99,1.216,-0.322,-30.212,-21.545,-30.578,1
5.722946,0.996,1.208,-0.314,-5.493,-24.23,-34.179,1
5.729795,1.012,1.161,-0.293,20.141,-27.404,-38.024,1
5.736688,1.038,1.112,-0.276,28.442,-27.77,-40.283,1
5.744944,1.062,1.033,-0.258,20.507,-27.648,-43.151,1
5.751954,1.129,0.95,-0.228,-7.446,-25.268,-45.654,1
5.759031,1.178,0.905,-0.205,-44.616,-23.437,-47.424,1
5.767808,1.149,0.895,-0.142,-74.707,-22.033,-48.217,1
5.77479,1.134,0.885,-0.091,-85.083,-21.972,-48.522,1
5.781695,1.135,0.839,-0.034,-81.726,-22.033,-47.729,1
5.790121,1.146,0.768,0.019,-73.181,-22.949,-46.386,1
5.797012,1.14,0.712,0.066,-62.194,-23.071,-44.067,1
5.805352,0.863,0.347,0.019,-80.139,-20.874,-34.484,1
5.811917,1.222,0.522,0.028,-109.191,-12.268,-32.287,1
5.82036,1.104,0.424,0.045,-135.864,-16.174,-30.822,1
5.828376,0.869,0.406,0.096,-144.592,-4.76,-25.207,1
5.835474,0.838,0.421,0.038,-160.644,-8.85,-22.705,1
5.843636,0.76,0.39,0.101,-163.94,1.403,-20.324,1
5.850643,0.736,0.387,0.046,-169.799,0.854,-19.897,1
5.858921,0.691,0.407,0.088,-161.254,9.582,-20.751,1
5.865914,0.653,0.43,0.023,-148.559,9.338,-23.132,1
5.874667,0.611,0.475,0.061,-116.455,14.16,-25.451,1
5.881544,0.554,0.566,0.012,-61.523,11.84,-28.625,1
5.889818,0.428,0.653,0.026,13.061,12.084,-30.334,1
5.896917,0.619,0.625,-0.079,77.88,7.385,-33.63,1
5.905018,0.65,0.574,-0.13,110.29,8.056,-36.865,1
5.913486,0.576,0.52,-0.218,105.712,8.178,-39.367,1
5.92059,0.519,0.474,-0.265,80.444,14.953,-40.283,1
5.927136,0.706,0.443,-0.362,29.968,18.31,-42.175,1
5.935196,0.776,0.467,-0.382,-29.541,24.353,-43.884,1
5.942223,0.746,0.536,-0.462,-88.439,28.381,-45.471,1
5.950197,0.763,0.634,-0.504,-128.417,31.005,-47.729,1
5.957335,0.791,0.731,-0.554,-140.625,29.602,-50.964,1
5.965751,0.852,0.811,-0.603,-126.586,26.794,-53.833,1
5.972311,0.922,0.868,-0.745,-102.355,21.789,-56.701,1
5.981453,0.919,0.928,-0.871,-73.12,16.357,-60.791,1
5.988133,0.925,0.94,-1.02,-61.035,13.244,-64.88,1
5.995079,0.734,0.989,-1.178,-71.716,9.643,-68.237,1
6.003345,0.604,1.081,-1.297,-109.374,4.577,-73.059,1
6.010149,0.598,1.118,-1.409,-144.592,1.464,-77.209,1
6.019234,0.58,1.155,-1.503,-193.176,-6.164,-83.129,1
6.025904,0.55,1.237,-1.532,-211.669,-16.601,-88.256,1
6.032879,0.5,1.274,-1.53,-207.519,-29.174,-92.529,1
6.040542,0.427,1.255,-1.532,-187.683,-44.25,-95.52,1
6.048917,0.484,1.173,-1.605,-171.997,-57.373,-97.717,1
6.05689,0.502,1.054,-1.666,-181.213,-70.434,-100.952,1
6.06475,0.755,0.844,-1.784,-231.506,-78.674,-103.454,1
6.071554,0.45,0.916,-1.78,-277.587,-88.134,-105.468,1
6.079573,0.308,0.942,-1.708,-279.479,-100.585,-106.018,1
6.087859,0.332,0.886,-1.662,-257.263,-116.882,-107.055,1
6.09503,0.162,0.718,-1.624,-232.666,-132.812,-107.788,1
6.103047,0.102,0.61,-1.559,-229.248,-147.155,-107.543,1
6.111374,-0.02,0.491,-1.437,-230.651,-158.63,-106.262,1
6.118445,-0.113,0.372,-1.348,-239.501,-170.288,-103.576,1
6.125969,-0.228,0.264,-1.244,-246.459,-181.396,-99.609,1
6.13437,-0.32,0.188,-1.137,-242.187,-193.42,-94.787,1
6.14082,-0.434,0.125,-1.017,-219.665,-206.603,-89.721,1
6.149529,-0.55,0.04,-0.912,-186.218,-219.055,-84.045,1
6.157391,-0.627,-0.033,-0.826,-154.724,-232.055,-79.101,1
6.164425,-0.745,-0.121,-0.739,-122.558,-243.53,-74.768,1
6.172507,-0.915,-0.239,-0.622,-97.839,-254.882,-70.556,1
6.180793,-1.015,-0.326,-0.525,-87.951,-263.244,-66.65,1
6.188271,-1.069,-0.345,-0.405,-78.491,-273.315,-62.683,1
6.196827,-1.268,-0.296,-0.291,-47.912,-280.395,-61.035,1
6.204583,-1.361,-0.353,-0.284,-23.254,-291.32,-60.485,1
6.212852,-1.492,-0.391,-0.252,-17.883,-297.424,-59.692,1
6.221599,-1.678,-0.426,-0.25,-21.484,-303.894,-57.922,1
6.230077,-1.804,-0.446,-0.219,-38.574,-310.302,-54.504,1
6.237662,-1.953,-0.447,-0.165,-44.921,-317.016,-48.95,1
6.244477,-2.143,-0.451,-0.143,-42.297,-323.547,-43.762,1
6.252292,-2.234,-0.46,-0.11,-32.348,-331.237,-38.574,1
6.260745,-2.361,-0.473,-0.081,-20.996,-340.576,-33.813,1
6.268743,-2.574,-0.47,-0.066,-11.047,-350.219,-29.785,1
6.275425,-2.827,-0.487,-0.074,-5.004,-361.877,-26.367,1
6.283412,-3.025,-0.546,-0.097,-0.305,-374.389,-22.155,1
6.29144,-3.274,-0.579,-0.15,12.207,-390.502,-16.784,1
6.298341,-3.757,-0.598,-0.208,25.512,-405.822,-13.488,1
6.30667,-4.209,-0.616,-0.24,39.489,-422.668,-10.498,1
6.313611,-4.636,-0.687,-0.249,50.231,-439.514,-8.422,1
6.321574,-5.112,-0.81,-0.229,38.085,-452.026,-3.54,1
6.329897,-5.434,-1.062,-0.259,-13.244,-462.097,7.263,1
6.337596,-5.63,-1.254,-0.229,-89.904,-471.069,25.085,1
6.344458,-5.973,-1.262,-0.083,-161.376,-479.37,51.086,1
6.352711,-6.416,-1.223,0.086,-197.448,-487.548,82.763,1
6.35963,-6.667,-1.291,0.25,-229.37,-497.375,120.483,1
6.367978,-6.933,-1.347,0.511,-242.675,-501.342,164.428,1
6.376247,-7.198,-1.56,0.644,-271.667,-502.868,213.134,1
6.383069,-7.532,-1.687,0.864,-321.228,-494.445,270.019,1
6.38992,-7.916,-1.765,1.097,-381.042,-480.59,334.045,1
6.398513,-8.437,-1.888,1.338,-437.499,-456.542,403.32,1
6.405078,-9.03,-1.912,1.539,-494.384,-423.339,478.088,1
6.413374,-9.77,-1.821,1.797,-541.076,-379.516,555.969,1
6.42136,-10.66,-1.586,1.991,-571.411,-324.34,632.995,1
6.429652,-11.693,-1.252,2.148,-586.059,-261.962,705.871,1
6.438416,-12.599,-0.916,2.188,-581.604,-178.894,784.057,1
6.445117,-13.538,-0.493,2.213,-562.622,-105.957,841.857,1
6.453346,-14.653,-0.011,2.2,-535.278,-30.883,890.014,1
6.461511,-15.618,0.468,2.185,-496.643,53.71,934.936,1
6.468151,-15.997,0.942,2.172,-460.205,124.328,962.768,1
6.476132,-15.999,1.291,2.142,-444.885,194.946,982.971,1
6.483974,-15.999,1.573,2.098,-461.181,273.132,996.154,1
6.490713,-15.999,1.836,1.948,-505.432,354.431,1001.892,1
6.499043,-15.999,2.076,1.788,-543.64,424.621,1000.61,1
6.506192,-15.999,2.269,1.667,-565.368,509.338,991.76,1
6.514477,-15.999,2.376,1.396,-590.698,612.976,973.205,1
6.521581,-15.999,2.391,1.054,-663.513,707.031,947.204,1
6.528582,-15.999,2.432,0.726,-749.45,795.165,914.855,1
6.535683,-15.999,2.561,0.302,-850.28,900.207,859.069,1
6.545445,-15.999,2.627,-0.095,-939.758,1001.281,779.785,1
6.553862,-15.999,2.639,-0.653,-1018.554,1109.802,660.888,1
6.561052,-15.999,2.635,-1.038,-1069.091,1182.8,514.038,1
6.568099,-15.999,2.598,-1.247,-1089.843,1228.576,373.901,1
6.577773,-15.999,2.87,-1.514,-1032.897,1246.337,225.158,1
6.584866,-15.999,2.693,-1.93,-913.33,1222.595,85.754,1
6.591335,-15.999,2.265,-2.209,-804.443,1177.185,-49.377,1
6.599473,-15.999,1.73,-2.564,-779.907,1133.544,-132.69,1
6.606665,-15.999,1.472,-2.572,-760.009,1076.049,-226.684,1
6.613826,-15.999,1.166,-2.734,-715.881,1017.517,-307.312,1
6.623216,-15.777,0.811,-2.998,-657.592,948.669,-375.305,1
6.631768,-14.226,0.216,-3.179,-612.915,880.981,-428.771,1
6.639286,-13.087,-0.273,-3.155,-617.614,802.612,-478.759,1
6.647241,-11.815,-0.752,-3.127,-649.047,724.609,-519.958,1
6.654258,-10.817,-1.087,-3.088,-664.184,651.367,-550.842,1
6.662565,-9.773,-1.422,-3.022,-669.311,574.218,-573.547,1
6.671076,-8.809,-1.644,-2.838,-655.639,496.582,-587.585,1
6.678088,-7.894,-1.827,-2.616,-613.342,407.043,-592.468,1
6.686969,-7.157,-2.041,-2.507,-562.255,337.463,-585.083,1
6.69577,-6.341,-2.171,-2.386,-498.168,266.723,-571.044,1
6.702054,-5.717,-2.271,-2.258,-401.367,196.594,-547.912,1
6.710882,-5.079,-2.333,-2.181,-318.481,143.127,-523.925,1
6.717435,-4.482,-2.408,-2.057,-260.742,100.769,-496.52,1
6.726278,-4.06,-2.398,-1.935,-243.469,66.894,-468.505,1
6.733411,-3.572,-2.314,-1.758,-229.187,35.095,-441.345,1
6.741437,-3.237,-2.219,-1.552,-211.73,11.23,-415.039,1
6.749682,-2.924,-2.111,-1.415,-207.214,-11.718,-389.038,1
6.757669,-2.753,-1.887,-1.189,-197.021,-31.799,-360.351,1
6.764663,-2.595,-1.705,-1.059,-183.776,-49.133,-338.134,1
6.772918,-2.46,-1.531,-0.908,-163.33,-62.133,-316.528,1
6.781283,-2.326,-1.38,-0.829,-134.582,-75.805,-297.058,1
6.788424,-2.227,-1.282,-0.705,-92.346,-89.538,-276.367,1
6.797601,-2.139,-1.255,-0.647,-53.405,-98.571,-260.07,1
6.804452,-2.021,-1.257,-0.596,-18.249,-106.14,-245.117,1
6.812355,-1.93,-1.277,-0.575,8.483,-110.473,-229.003,1
6.819456,-1.822,-1.26,-0.55,16.052,-111.694,-216.186,1
6.827698,-1.756,-1.319,-0.554,7.385,-110.473,-203.552,1
6.83626,-1.667,-1.316,-0.52,-15.502,-107.421,-191.04,1
6.844944,-1.553,-1.266,-0.489,-39.245,-104.003,-176.94,1
6.853718,-1.449,-1.226,-0.429,-55.358,-100.83,-163.024,1
6.862179,-1.362,-1.186,-0.404,-63.903,-98.327,-151.733,1
6.869698,-1.3,-1.125,-0.357,-63.781,-96.74,-139.038,1
6.877692,-1.294,-0.985,-0.312,-32.104,-96.435,-129.821,1
6.884704,-1.196,-1.086,-0.319,-21.118,-97.839,-121.582,1
6.893116,-1.227,-1.134,-0.296,-25.39,-94.482,-112.548,1
6.901783,-1.205,-1.132,-0.269,-21.728,-93.749,-103.332,1
6.91033,-1.114,-1.206,-0.25,-18.432,-89.477,-95.703,1
6.918458,-1.036,-1.261,-0.256,-26.672,-85.51,-86.181,1
6.925468,-0.957,-1.287,-0.233,-32.592,-81.054,-77.758,1
6.93389,-0.883,-1.328,-0.232,-36.56,-78.002,-68.786,1
6.94277,-0.791,-1.366,-0.223,-40.893,-73.913,-58.044,1
6.949411,-0.704,-1.384,-0.215,-38.391,-71.35,-48.461,1
6.956592,-0.599,-1.394,-0.215,-27.343,-68.847,-39.245,1
6.964602,-0.545,-1.401,-0.218,-16.052,-66.955,-30.456,1
6.972922,-0.473,-1.41,-0.224,-6.896,-63.598,-20.629,1
6.981713,-0.413,-1.399,-0.224,-0.732,-60.974,-12.756,1
6.988496,-0.365,-1.39,-0.22,6.652,-58.41,-5.31,1
6.997994,-0.314,-1.378,-0.215,15.686,-55.297,3.417,1
7.00634,-0.278,-1.363,-0.217,23.742,-52.368,10.864,1
7.014473,-0.224,-1.354,-0.221,33.325,-48.828,18.92,1
7.021231,-0.186,-1.38,-0.231,33.325,-45.715,25.939,1
7.028837,-0.134,-1.386,-0.243,27.465,-41.259,33.02,1
7.037561,-0.101,-1.359,-0.255,20.629,-37.048,40.344,1
7.044055,-0.093,-1.317,-0.263,17.517,-33.264,47.546,1
7.052264,-0.116,-1.272,-0.27,16.54,-29.846,54.748,1
7.058853,-0.136,-1.23,-0.278,18.432,-26.55,61.218,1
7.067095,-0.144,-1.187,-0.29,22.277,-23.803,67.199,1
7.075484,-0.154,-1.15,-0.302,27.038,-20.935,72.937,1
7.081611,-0.161,-1.123,-0.314,30.456,-18.432,78.43,1
7.090273,-0.15,-1.068,-0.331,39.306,-15.808,84.167,1
7.096966,-0.184,-1.053,-0.355,41.992,-14.648,88.745,1
7.103955,-0.199,-1.027,-0.341,37.597,-10.009,93.688,1
7.112353,-0.217,-0.983,-0.384,29.479,-7.629,98.388,1
7.119437,-0.223,-0.932,-0.357,25.085,-3.295,102.905,1
7.127428,-0.214,-0.886,-0.4,21.484,-0.488,107.36,1
7.135688,-0.239,-0.826,-0.391,19.287,2.258,111.511,1
7.143883,-0.286,-0.719,-0.413,25.634,4.516,114.379,1
7.149767,-0.27,-0.719,-0.439,24.291,5.371,118.225,1
7.157634,-0.266,-0.69,-0.428,17.7,8.239,122.131,1
7.164486,-0.296,-0.667,-0.468,9.338,10.559,125.61,1
7.173327,-0.303,-0.636,-0.47,1.403,13.183,129.089,1
7.18007,-0.248,-0.608,-0.502,-7.507,16.235,132.568,1
7.187887,-0.266,-0.583,-0.519,-14.343,18.066,135.192,1
7.194748,-0.312,-0.567,-0.539,-20.08,20.751,137.756,1
7.203143,-0.321,-0.549,-0.542,-25.085,23.437,140.136,1
7.211377,-0.326,-0.517,-0.558,-26.611,25.329,142.272,1
7.219833,-0.359,-0.5,-0.564,-28.32,27.465,144.897,1
7.228184,-0.384,-0.494,-0.568,-31.372,29.602,147.583,1
7.23645,-0.423,-0.477,-0.545,-35.156,31.127,150.329,1
7.243149,-0.457,-0.454,-0.536,-29.541,34.484,155.212,1
7.250387,-0.408,-0.445,-0.512,-21.362,34.912,159.545,1
7.259137,-0.338,-0.467,-0.52,-12.268,37.292,165.039,1
7.267664,-0.316,-0.497,-0.544,-12.39,38.635,170.959,1
7.274259,-0.23,-0.496,-0.553,-5.676,39.794,177.062,1
7.282247,-0.204,-0.5,-0.565,8.117,39.428,182.739,1
7.289325,-0.215,-0.493,-0.569,24.597,39.794,188.659,1
7.296066,-0.262,-0.484,-0.583,38.94,39.428,194.458,1
7.304383,-0.331,-0.476,-0.596,48.889,40.039,200.622,1
7.310986,-0.385,-0.472,-0.621,49.377,39.672,206.542,1
7.319617,-0.44,-0.453,-0.628,43.334,41.503,212.646,1
7.326512,-0.515,-0.423,-0.655,35.156,42.297,218.017,1
7.334889,-0.566,-0.388,-0.67,26.672,43.945,223.999,1
7.341862,-0.629,-0.347,-0.69,22.46,44.982,230.102,1
7.348411,-0.691,-0.301,-0.693,23.132,46.813,236.267,1
7.356222,-0.757,-0.256,-0.714,26.794,48.156,241.699,1
7.365099,-0.788,-0.2,-0.718,33.02,49.499,246.948,1
7.372098,-0.81,-0.163,-0.72,40.954,49.377,252.441,1
7.378817,-0.808,-0.09,-0.708,52.917,49.133,257.629,1
7.385712,-0.83,-0.055,-0.727,69.946,48.339,262.268,1
7.393913,-0.907,-0.026,-0.697,82.946,45.715,267.639,1
7.400819,-0.861,0.048,-0.668,94.909,43.762,273.01,1
7.40905,-0.744,0.169,-0.662,110.473,39.428,277.893,1
7.416663,-0.719,0.194,-0.636,128.051,32.653,282.959,1
7.423855,-0.789,0.25,-0.537,137.817,26.55,290.161,1
7.431685,-0.879,0.307,-0.541,140.869,22.277,295.532,1
7.439733,-0.983,0.373,-0.539,140.197,17.578,300.781,1
7.447805,-1.068,0.43,-0.574,129.089,13.854,305.847,1
7.454399,-1.153,0.5,-0.579,110.9,10.681,309.143,1
7.462831,-1.207,0.571,-0.587,92.651,8.789,311.523,1
7.469807,-1.238,0.655,-0.589,79.406,6.347,313.293,1
7.478532,-1.229,0.742,-0.58,78.063,4.638,314.392,1
7.485625,-1.224,0.822,-0.573,87.707,1.22,314.88,1
7.492607,-1.223,0.889,-0.577,100.219,-1.77,315.124,1
7.500338,-1.296,0.97,-0.586,114.44,-4.455,315.673,1
7.508891,-1.254,1.03,-0.602,121.887,-8.056,315.063,1
7.515844,-1.205,1.084,-0.611,119.384,-10.742,314.758,1
7.523801,-1.198,1.131,-0.606,112.487,-11.84,314.331,1
7.530704,-1.224,1.196,-0.642,90.209,-12.207,313.354,1
7.538971,-1.187,1.282,-0.635,71.777,-11.23,311.279,1
7.54776,-1.124,1.344,-0.654,53.039,-9.643,308.105,1
7.554674,-1.135,1.411,-0.68,37.353,-8.056,305.236,1
7.561538,-1.114,1.489,-0.695,27.709,-7.263,301.696,1
7.570043,-1.067,1.569,-0.709,25.878,-6.958,297.79,1
7.578698,-1.032,1.636,-0.721,30.09,-6.713,293.579,1
7.587034,-0.983,1.693,-0.743,35.278,-6.652,288.818,1
7.593782,-0.951,1.75,-0.753,36.193,-5.737,284.606,1
7.600533,-0.913,1.807,-0.762,33.142,-4.638,279.724,1
7.608782,-0.868,1.863,-0.783,29.357,-3.295,273.864,1
7.615734,-0.846,1.916,-0.787,35.827,-3.173,267.883,1
7.623561,-0.791,1.942,-0.785,38.757,-3.54,260.498,1
7.630594,-0.728,1.974,-0.81,38.146,-4.577,253.112,1
7.638876,-0.672,1.998,-0.812,35.217,-4.394,246.398,1
7.645838,-0.605,2.014,-0.821,31.188,-4.76,238.952,1
7.654378,-0.556,2.018,-0.813,30.395,-5.187,231.445,1
7.661261,-0.496,2.036,-0.803,38.757,-5.92,222.961,1
7.669732,-0.466,2.051,-0.787,54.565,-7.385,215.759,1
7.678622,-0.434,2.04,-0.784,72.753,-9.155,208.923,1
7.685095,-0.407,2.003,-0.773,85.083,-11.047,201.965,1
7.694013,-0.379,1.962,-0.765,85.876,-11.047,195.8,1
7.700488,-0.367,1.944,-0.758,73.73,-10.192,189.208,1
7.708716,-0.349,1.942,-0.75,51.879,-7.08,182.006,1
7.717471,-0.354,1.964,-0.747,35.827,-4.76,175.598,1
7.725021,-0.376,1.97,-0.73,28.198,-2.868,168.579,1
7.73149,-0.397,1.958,-0.719,27.282,-1.77,161.437,1
7.739733,-0.408,1.916,-0.699,33.63,-1.831,154.235,1
7.74844,-0.406,1.854,-0.679,43.945,-2.441,147.521,1
7.75665,-0.384,1.757,-0.661,56.64,-3.845,140.38,1
7.763464,-0.356,1.655,-0.643,65.124,-5.493,135.07,1
7.770451,-0.33,1.561,-0.63,68.359,-6.286,130.432,1
7.778617,-0.333,1.473,-0.625,66.955,-7.08,126.525,1
7.786231,-0.331,1.401,-0.612,66.589,-7.995,123.352,1
7.792826,-0.334,1.341,-0.596,72.448,-9.765,121.215,1
7.800711,-0.347,1.288,-0.572,78.186,-11.047,119.75,1
7.807991,-0.374,1.252,-0.549,76.11,-11.047,117.736,1
7.81628,-0.382,1.228,-0.531,70.434,-10.375,116.455,1
7.824676,-0.402,1.202,-0.495,65.185,-9.216,114.501,1
7.832944,-0.432,1.192,-0.477,61.462,-7.751,112.792,1
7.839823,-0.465,1.176,-0.466,58.349,-6.591,110.778,1
7.846805,-0.483,1.165,-0.456,56.274,-5.249,109.13,1
7.854232,-0.481,1.145,-0.451,55.725,-4.638,107.727,1
7.862138,-0.481,1.12,-0.439,57.373,-4.211,105.957,1
7.869292,-0.484,1.079,-0.437,62.194,-4.211,104.492,1
7.877303,-0.49,1.032,-0.429,70.556,-5.493,103.698,1
7.885605,-0.483,0.964,-0.421,82.092,-6.469,103.332,1
7.893995,-0.485,0.914,-0.435,88.012,-7.751,103.21,1
7.90125,-0.501,0.867,-0.439,87.707,-9.155,103.576,1
7.908323,-0.496,0.831,-0.437,85.021,-9.826,103.881,1
7.914929,-0.514,0.812,-0.446,80.627,-11.291,104.675,1
7.923754,-0.543,0.812,-0.438,79.65,-12.634,105.468,1
7.930455,-0.553,0.824,-0.429,84.899,-14.648,105.895,1
7.939289,-0.566,0.819,-0.418,96.679,-17.639,106.506,1
7.945441,-0.566,0.815,-0.412,110.9,-20.935,106.811,1
7.95261,-0.572,0.8,-0.393,124.572,-24.108,106.811,1
7.960804,-0.572,0.781,-0.388,135.192,-27.465,107.238,1
7.968251,-0.577,0.753,-0.368,143.31,-30.334,106.933,1
7.976628,-0.59,0.734,-0.346,148.437,-32.958,107.299,1
7.98327,-0.612,0.72,-0.33,151.123,-35.034,107.36,1
7.992041,-0.625,0.702,-0.31,151.977,-36.865,107.727,1
7.99861,-0.636,0.695,-0.297,151.245,-37.536,107.849,1
8.006539,-0.648,0.691,-0.295,147.399,-37.475,107.971,1
8.013084,-0.676,0.694,-0.302,138.122,-37.353,108.093,1
8.021217,-0.697,0.7,-0.297,124.633,-36.56,108.032,1
8.02824,-0.718,0.721,-0.299,108.642,-35.4,107.849,1
8.034985,-0.741,0.748,-0.295,97.534,-34.24,107.666,1
8.043656,-0.764,0.771,-0.29,88.195,-33.142,107.36,1
8.050312,-0.777,0.806,-0.285,83.557,-32.348,106.567,1
8.057354,-0.779,0.835,-0.278,84.533,-32.165,105.712,1
8.066165,-0.777,0.854,-0.277,89.416,-32.348,104.431,1
8.072685,-0.785,0.865,-0.278,97.167,-33.691,103.027,1
8.079666,-0.805,0.874,-0.273,106.933,-34.729,101.623,1
8.08757,-0.715,0.892,-0.265,116.577,-35.766,99.975,1
8.094413,-0.669,0.865,-0.258,137.878,-38.146,97.534,1
8.103034,-0.796,0.863,-0.266,141.967,-39.001,96.13,1
8.109337,-0.855,0.838,-0.298,134.887,-40.344,95.031,1
8.117598,-0.863,0.849,-0.284,126.037,-39.611,93.566,1
8.125722,-0.811,0.851,-0.261,125.488,-40.954,91.979,1
8.13244,-0.862,0.857,-0.269,120.91,-40.283,90.637,1
8.139349,-0.806,0.864,-0.254,118.103,-40.893,88.806,1
8.147632,-0.748,0.859,-0.22,128.54,-40.832,87.463,1
8.154532,-0.858,0.869,-0.245,126.77,-41.137,86.242,1
8.161576,-0.847,0.876,-0.23,124.511,-41.625,84.594,1
8.169758,-0.791,0.883,-0.217,126.953,-41.625,83.679,1
8.176322,-0.747,0.875,-0.222,132.019,-42.297,81.42,1
8.184977,-0.753,0.872,-0.2,138.305,-42.785,79.711,1
8.193958,-0.742,0.867,-0.208,134.155,-42.541,77.148,1
8.200403,-0.837,0.859,-0.199,127.868,-41.564,75.378,1
8.207486,-0.789,0.848,-0.196,122.619,-41.381,73.791,1
8.217165,-0.881,0.864,-0.185,111.45,-40.1,71.96,1
8.224167,-0.797,0.87,-0.158,113.037,-40.039,70.068,1
8.232491,-0.834,0.86,-0.151,111.083,-38.33,68.725,1
8.24053,-0.762,0.841,-0.146,112.121,-38.879,67.138,1
8.248558,-0.793,0.829,-0.117,114.318,-37.353,65.917,1
8.25568,-0.721,0.805,-0.117,120.361,-37.78,64.025,1
8.262239,-0.781,0.784,-0.089,126.647,-37.292,63.415,1
8.270483,-0.754,0.765,-0.101,130.859,-37.658,62.438,1
8.277501,-0.702,0.746,-0.064,143.493,-38.452,61.645,1
8.28581,-0.634,0.713,-0.053,157.531,-38.33,61.157,1
8.293432,-0.645,0.693,-0.054,165.649,-38.452,60.424,1
8.301358,-0.664,0.68,-0.053,171.874,-38.33,59.57,1
8.308095,-0.699,0.678,-0.049,174.194,-37.475,59.082,1
8.315923,-0.75,0.666,-0.038,173.522,-37.292,58.349,1
8.322818,-0.728,0.65,-0.022,170.898,-35.705,58.288,1
8.33101,-0.732,0.649,-0.032,163.33,-34.912,57.495,1
8.339235,-0.753,0.65,-0.012,158.081,-33.63,57.128,1
8.347297,-0.736,0.629,-0.004,151.794,-32.348,57.067,1
8.355415,-0.724,0.631,0.012,146.301,-31.494,56.701,1
8.363888,-0.737,0.626,0.02,139.587,-30.09,56.457,1
8.372141,-0.72,0.624,0.023,138.122,-29.479,56.213,1
8.378691,-0.68,0.626,0.035,135.803,-27.893,55.725,1
8.386503,-0.669,0.625,0.042,135.253,-27.16,55.175,1
8.39375,-0.685,0.624,0.046,135.803,-25.939,54.504,1
8.401669,-0.701,0.65,0.052,144.653,-26.123,53.527,1
8.409665,-0.676,0.644,0.067,156.188,-25.39,52.795,1
8.416207,-0.741,0.644,0.063,159.729,-24.475,52.429,1
8.424467,-0.799,0.628,0.063,154.296,-23.437,52.185,1
8.431465,-0.832,0.62,0.055,139.282,-21.179,52.185,1
8.44012,-0.844,0.617,0.077,119.689,-19.531,51.879,1
8.447015,-0.862,0.623,0.066,97.351,-16.052,52.124,1
8.453653,-0.868,0.63,0.08,77.27,-14.099,51.513,1
8.46065,-0.83,0.645,0.085,59.936,-11.047,51.025,1
8.469126,-0.81,0.649,0.088,48.889,-9.46,50.292,1
8.475766,-0.832,0.654,0.098,43.212,-6.896,49.194,1
8.482951,-0.863,0.662,0.089,35.827,-5.126,48.217,1
8.490822,-0.885,0.665,0.097,28.32,-2.441,47.119,1
8.499196,-0.878,0.662,0.083,20.08,-0.244,45.959,1
8.505503,-0.875,0.664,0.088,7.995,2.319,44.86,1
8.513643,-0.867,0.662,0.081,0.427,4.211,43.945,1
8.521864,-0.847,0.666,0.082,-8.605,6.652,42.358,1
8.528411,-0.825,0.662,0.082,-10.009,7.812,41.076,1
8.536283,-0.842,0.678,0.09,-4.882,8.972,40.039,1
8.542883,-0.945,0.681,0.081,-1.525,9.948,39.001,1
8.550849,-1.044,0.687,0.069,-0.854,10.314,38.208,1
8.55779,-1.098,0.692,0.067,0.671,10.986,37.414,1
8.56572,-1.139,0.699,0.063,3.906,11.23,36.499,1
8.572676,-1.111,0.689,0.064,9.277,10.742,35.278,1
8.581541,-1.049,0.67,0.061,16.906,10.375,34.301,1
8.588571,-1.008,0.651,0.068,25.878,9.521,33.386,1
8.596839,-0.932,0.612,0.06,32.409,9.155,32.653,1
8.603019,-0.993,0.575,0.056,30.273,8.666,33.02,1
8.611331,-0.998,0.582,0.057,31.982,9.277,32.958,1
8.618145,-1.013,0.557,0.044,30.639,8.422,32.897,1
8.625192,-0.996,0.529,0.049,32.409,8.361,33.508,1
8.633143,-1.018,0.526,0.026,35.766,7.324,33.691,1
8.641513,-1.068,0.531,0.035,39.123,7.446,33.874,1
8.648002,-1.095,0.528,0.014,41.992,6.591,33.996,1
8.656016,-1.14,0.532,0.028,45.593,6.164,34.423,1
8.6627,-1.145,0.511,0.005,48.706,5.798,34.973,1
8.669595,-1.145,0.497,0.022,52.185,4.943,35.705,1
8.676847,-1.112,0.495,0.011,55.786,4.699,35.949,1
8.684611,-1.079,0.466,0.015,57.861,3.784,36.743,1
8.693381,-1.028,0.463,0.023,60.546,3.356,37.353,1
8.700434,-0.977,0.443,0.023,62.988,2.441,37.536,1
8.707486,-0.919,0.445,0.032,69.03,1.831,37.414,1
8.716232,-0.829,0.402,0.037,68.847,-0.122,37.353,1
8.724072,-0.781,0.367,0.033,67.26,0.061,38.208,1
8.73054,-0.76,0.366,0.05,65.063,-0.61,38.146,1
8.738833,-0.754,0.373,0.058,64.697,-0.366,38.024,1
8.747507,-0.772,0.367,0.048,64.88,-0.854,37.658,1
8.753394,-0.801,0.38,0.058,67.993,-0.915,36.804,1
8.763451,-0.827,0.372,0.065,71.716,-1.098,36.132,1
8.769885,-0.853,0.374,0.07,76.66,-0.793,35.156,1
8.777693,-0.875,0.384,0.069,83.557,-0.488,33.813,1
8.785982,-0.882,0.377,0.064,88.195,0.244,32.531,1
8.793741,-0.924,0.379,0.06,92.529,0.427,31.311,1
8.800488,-0.941,0.377,0.061,94.726,0.854,30.578,1
8.80815,-0.988,0.387,0.062,96.74,1.464,29.541,1
8.815982,-1.01,0.388,0.056,98.144,1.831,27.648,1
8.823688,-0.997,0.383,0.054,96.313,2.197,26.306,1
8.830644,-1.001,0.372,0.049,92.285,2.441,24.78,1
8.838583,-1.005,0.363,0.056,87.829,2.868,23.376,1
8.846816,-0.949,0.356,0.054,82.885,3.845,21.972,1
8.853625,-0.979,0.351,0.051,76.904,4.394,20.08,1
8.860212,-1.0,0.349,0.048,72.326,5.493,19.165,1
8.868132,-0.962,0.338,0.042,67.687,5.798,17.395,1
8.875048,-0.965,0.34,0.023,62.561,6.469,15.93,1
8.883308,-0.98,0.33,0.01,56.091,6.774,15.136,1
8.889964,-0.986,0.338,-0.007,45.288,6.774,14.221,1
8.897007,-1.017,0.339,-0.027,31.921,6.103,12.695,1
8.904896,-1.047,0.345,-0.029,20.385,6.225,11.352,1
8.911754,-1.061,0.358,-0.042,10.925,4.638,9.948,1
8.919724,-1.052,0.368,-0.04,8.544,2.258,8.361,1
8.92658,-0.974,0.341,-0.042,6.164,0.61,6.713,1
8.933646,-0.979,0.348,-0.026,4.333,-0.671,5.859,1
8.941559,-1.013,0.358,-0.027,6.591,-2.38,5.004,1
8.948785,-1.044,0.381,-0.026,12.512,-4.943,3.662,1
8.956748,-1.0,0.366,-0.027,19.775,-6.774,1.77,1
8.965205,-0.985,0.364,-0.018,28.808,-9.155,0.793,1
8.972069,-0.894,0.346,-0.024,36.987,-11.291,-0.671,1
8.98081,-0.907,0.344,-0.012,43.518,-13.0,-1.953,1
8.988864,-0.899,0.34,-0.015,53.344,-14.892,-3.234,1
8.995512,-0.828,0.309,-0.016,57.983,-16.662,-4.577,1
9.003488,-0.872,0.313,-0.005,63.354,-17.7,-5.31,1
9.010642,-0.883,0.306,-0.019,69.152,-18.981,-6.103,1
9.01879,-0.924,0.316,-0.004,75.805,-20.202,-7.202,1
9.025809,-0.893,0.296,-0.019,79.223,-21.606,-8.178,1
9.034129,-0.95,0.301,-0.007,80.017,-22.155,-8.483,1
9.041116,-0.979,0.3,-0.015,77.087,-22.949,-9.094,1
9.049542,-0.948,0.292,-0.003,70.922,-22.827,-10.07,1
9.056229,-0.908,0.275,-0.009,62.988,-23.071,-10.742,1
9.064919,-0.896,0.271,0.003,55.969,-22.888,-11.169,1
9.073477,-0.899,0.27,-0.001,49.865,-22.705,-11.413,1
9.082212,-0.915,0.277,0.002,44.128,-22.644,-12.023,1
9.089348,-0.937,0.277,0.0,39.794,-23.132,-12.512,1
9.096335,-0.952,0.282,0.0,35.827,-23.742,-12.573,1
9.10437,-0.948,0.287,-0.003,33.569,-24.597,-12.634,1
9.111875,-0.945,0.282,0.009,32.409,-25.268,-12.939,1
9.120059,-0.942,0.286,0.008,32.897,-26.367,-13.061,1
9.126915,-0.945,0.291,0.013,34.545,-27.16,-13.244,1
9.133817,-0.942,0.286,0.01,36.071,-28.503,-13.183,1
9.142329,-0.924,0.275,0.014,36.132,-29.296,-13.366,1
9.149174,-0.876,0.263,0.011,35.4,-29.846,-13.244,1
9.156172,-0.91,0.259,0.023,32.958,-30.517,-12.878,1
9.164922,-0.947,0.271,0.022,33.569,-30.822,-12.207,1
9.171825,-0.979,0.283,0.027,37.841,-31.616,-11.901,1
9.180482,-1.039,0.297,0.025,43.64,-32.409,-11.169,1
9.188549,-1.034,0.304,0.031,52.307,-33.508,-10.62,1
9.197253,-0.968,0.292,0.029,58.288,-34.423,-10.681,1
9.205513,-0.918,0.277,0.032,63.11,-34.973,-10.314,1
9.212476,-0.905,0.27,0.033,65.917,-35.522,-9.887,1
9.220671,-0.916,0.278,0.032,67.321,-35.705,-9.338,1
9.229345,-0.929,0.294,0.022,67.321,-35.949,-9.399,1
9.236449,-0.937,0.296,0.024,66.528,-36.499,-9.643,1
9.243558,-0.932,0.296,0.03,65.917,-36.804,-9.704,1
9.251528,-0.919,0.297,0.03,65.002,-36.926,-9.826,1
9.260181,-0.908,0.298,0.03,64.819,-37.292,-10.131,1
9.267182,-0.909,0.298,0.03,64.514,-37.414,-10.253,1
9.27538,-0.91,0.303,0.034,63.964,-37.78,-10.437,1
9.28345,-0.921,0.306,0.033,63.354,-38.085,-10.375,1
9.290098,-0.928,0.308,0.038,63.293,-38.146,-10.559,1
9.298072,-0.946,0.316,0.031,63.049,-38.635,-10.742,1
9.305031,-0.955,0.316,0.038,63.171,-38.574,-10.925,1
9.313314,-0.958,0.317,0.042,63.72,-38.879,-11.108,1
9.32167,-0.967,0.316,0.04,64.453,-38.757,-10.986,1
9.330509,-0.961,0.319,0.042,64.27,-38.757,-10.986,1
9.338428,-0.97,0.328,0.039,62.499,-38.269,-10.925,1
9.346656,-0.979,0.33,0.034,59.082,-38.33,-11.23,1
9.3547,-0.988,0.331,0.032,55.725,-38.33,-11.23,1
9.362919,-0.992,0.34,0.03,51.086,-38.146,-11.413,1
9.371105,-1.001,0.344,0.028,48.217,-38.146,-11.535,1
9.37824,-1.027,0.358,0.029,45.593,-38.269,-11.779,1
9.386142,-1.054,0.363,0.03,45.166,-38.208,-11.901,1
9.392752,-1.066,0.373,0.032,46.081,-38.574,-12.023,1
9.400806,-1.08,0.381,0.032,47.607,-38.879,-12.023,1
9.408705,-1.095,0.383,0.031,49.926,-39.306,-12.084,1
9.415784,-1.104,0.387,0.034,52.551,-39.611,-12.329,1
9.422785,-1.102,0.389,0.036,55.664,-40.161,-12.329,1
9.430832,-1.081,0.378,0.034,57.861,-40.344,-12.145,1
9.439367,-1.064,0.377,0.042,60.302,-40.283,-12.023,1
9.447513,-1.028,0.361,0.038,61.645,-40.71,-11.84,1
9.455516,-0.99,0.353,0.044,61.401,-40.832,-11.535,1
9.464377,-0.943,0.343,0.045,60.119,-40.832,-11.23,1
9.471301,-0.851,0.32,0.044,56.884,-40.588,-11.23,1
9.478476,-0.892,0.317,0.05,51.574,-40.405,-10.559,1
9.48663,-0.879,0.32,0.059,50.476,-39.306,-10.437,1
9.495492,-0.853,0.315,0.052,49.743,-39.245,-10.131,1
9.504304,-0.834,0.311,0.06,49.682,-38.696,-10.131,1
9.511533,-0.759,0.289,0.06,52.368,-38.269,-10.009,1
9.518043,-0.75,0.281,0.06,53.161,-37.719,-9.399,1
9.526763,-0.75,0.266,0.054,52.856,-36.743,-8.3,1
9.533509,-0.746,0.266,0.055,50.842,-36.315,-7.629,1
9.540354,-0.749,0.256,0.051,49.011,-35.4,-6.958,1
9.548417,-0.742,0.237,0.046,45.043,-34.667,-5.249,1
9.556518,-0.734,0.231,0.045,41.687,-34.057,-3.662,1
9.563953,-0.713,0.224,0.041,38.146,-33.813,-2.136,1
9.570741,-0.703,0.213,0.042,35.339,-33.142,0.427,1
9.577664,-0.722,0.203,0.034,32.104,-32.348,3.295,1
9.586196,-0.781,0.214,0.039,29.174,-30.883,5.798,1
9.593068,-0.857,0.227,0.038,27.221,-29.724,7.568,1
9.601189,-0.896,0.233,0.034,25.085,-27.893,8.972,1
9.607733,-0.964,0.25,0.021,22.949,-26.489,10.253,1
9.615581,-0.989,0.245,0.014,20.996,-25.085,11.108,1
9.624369,-0.995,0.242,0.02,18.249,-24.108,12.39,1
9.631225,-1.002,0.24,0.01,14.404,-22.399,13.916,1
9.63792,-0.984,0.232,0.01,9.704,-21.057,15.319,1
9.646027,-0.992,0.236,0.013,3.845,-19.287,16.723,1
9.653061,-1.006,0.245,0.016,-1.464,-17.517,18.188,1
9.660956,-1.044,0.252,0.021,-5.554,-15.563,20.08,1
9.667894,-1.137,0.276,0.026,-7.202,-12.878,21.667,1
9.676407,-1.217,0.323,0.024,-5.92,-10.62,22.277,1
9.684423,-1.256,0.363,0.016,-1.159,-8.422,22.155,1
9.692247,-1.229,0.387,0.011,6.164,-7.141,21.057,1
9.699104,-1.129,0.4,0.006,16.052,-5.981,19.47,1
9.70771,-1.0,0.382,-0.003,26.55,-5.615,17.517,1
9.716042,-0.914,0.361,-0.005,36.865,-5.249,15.747,1
9.724325,-0.889,0.355,-0.011,43.64,-4.76,14.465,1
9.73069,-0.908,0.344,-0.021,47.119,-4.699,13.549,1
9.738593,-0.917,0.338,-0.024,48.828,-4.211,12.145,1
9.747233,-0.923,0.335,-0.024,48.583,-3.723,11.23,1
9.755098,-0.857,0.299,-0.021,44.433,-2.746,10.986,1
9.763015,-0.727,0.246,-0.028,32.897,-2.38,10.681,1
9.769411,-0.69,0.211,-0.024,16.906,-0.305,11.23,1
9.77832,-0.628,0.185,-0.03,-3.356,1.586,12.145,1
9.786072,-0.556,0.156,-0.036,-26.123,4.333,13.0,1
9.793068,-0.572,0.152,-0.032,-44.86,6.103,14.282,1
9.801932,-0.603,0.151,-0.018,-60.363,8.728,15.624,1
9.808891,-0.648,0.147,-0.033,-73.974,10.009,17.028,1
9.817837,-0.711,0.148,-0.013,-85.021,12.878,18.371,1
9.826145,-0.764,0.151,-0.019,-96.496,14.648,19.897,1
9.833138,-0.829,0.159,-0.008,-104.309,17.639,21.484,1
9.841498,-0.883,0.165,-0.011,-109.497,19.531,22.949,1
9.848345,-0.996,0.176,-0.007,-114.929,22.155,23.925,1
9.855532,-1.041,0.187,-0.023,-121.765,23.864,24.841,1
9.86328,-1.05,0.194,-0.025,-128.662,25.634,25.085,1
9.871816,-1.048,0.192,-0.026,-133.361,26.855,25.512,1
9.878332,-1.095,0.198,-0.016,-136.535,29.174,25.939,1
9.885397,-1.146,0.21,-0.03,-138.366,30.944,26.245,1
9.893105,-1.206,0.216,-0.037,-140.502,31.616,26.184,1
9.901162,-1.278,0.243,-0.039,-140.869,32.714,26.062,1
9.907981,-1.303,0.249,-0.046,-141.235,33.142,25.451,1
9.916243,-1.275,0.244,-0.054,-141.906,33.447,24.902,1
9.923474,-1.242,0.237,-0.056,-142.456,32.958,23.925,1
9.930678,-1.253,0.238,-0.034,-139.038,32.897,23.925,1
9.938636,-1.257,0.243,-0.036,-133.361,32.714,23.803,1
9.945618,-1.221,0.251,-0.034,-124.755,31.799,23.254,1
9.955431,-1.187,0.254,-0.036,-112.915,30.7,22.521,1
9.962484,-1.118,0.25,-0.024,-99.731,29.296,21.667,1
9.970917,-1.078,0.25,-0.022,-82.946,27.954,20.69,1
9.978161,-1.015,0.243,-0.028,-68.298,26.733,19.714,1
9.986567,-0.96,0.23,-0.039,-56.64,24.841,18.92,1
9.993612,-0.866,0.189,-0.053,-49.316,23.315,18.737,1
