timestamp_s,ax,ay,az,gx,gy,gz,label
0.006285,0.142,0.971,-0.175,3.601,-13.366,2.502,1
0.011954,0.144,0.972,-0.174,4.882,-13.366,2.563,1
0.018964,0.142,0.97,-0.172,5.554,-13.427,2.441,1
0.026857,0.137,0.97,-0.17,4.882,-13.488,2.38,1
0.0353,0.134,0.966,-0.167,2.929,-13.183,2.197,1
0.042447,0.135,0.962,-0.165,1.159,-12.939,2.441,1
0.050215,0.137,0.963,-0.162,-0.061,-12.817,2.685,1
0.057118,0.141,0.959,-0.163,-0.122,-12.817,2.868,1
0.065043,0.143,0.965,-0.162,0.549,-12.817,2.868,1
0.073315,0.144,0.972,-0.158,1.831,-12.817,2.99,1
0.080272,0.149,0.979,-0.147,2.868,-12.878,3.112,1
0.088067,0.152,0.981,-0.145,3.662,-13.183,3.234,1
0.096831,0.15,0.985,-0.136,3.173,-12.817,2.929,1
0.103374,0.145,0.985,-0.136,1.464,-12.695,2.868,1
0.112407,0.143,0.988,-0.14,-0.061,-12.39,2.99,1
0.119282,0.143,0.986,-0.145,-1.586,-12.39,2.99,1
0.127876,0.146,0.985,-0.143,-1.77,-12.207,2.746,1
0.136265,0.144,0.98,-0.148,-0.61,-12.207,2.563,1
0.142884,0.146,0.975,-0.145,0.244,-12.023,2.807,1
0.151471,0.148,0.975,-0.143,1.403,-11.901,2.807,1
0.158457,0.148,0.974,-0.136,2.685,-11.779,2.685,1
0.167098,0.144,0.981,-0.132,3.845,-11.596,2.807,1
0.174495,0.145,0.981,-0.129,4.882,-11.413,2.685,1
0.183564,0.144,0.987,-0.126,5.31,-11.474,2.624,1
0.190233,0.145,0.986,-0.125,4.638,-10.864,2.441,1
0.199356,0.147,0.989,-0.122,3.112,-10.498,2.624,1
0.207795,0.143,0.987,-0.123,0.305,-10.009,2.441,1
0.216969,0.141,0.982,-0.124,-3.112,-9.521,2.319,1
0.223679,0.135,0.978,-0.125,-6.469,-9.216,2.319,1
0.231238,0.136,0.972,-0.125,-8.605,-8.544,2.502,1
0.239833,0.134,0.968,-0.129,-8.911,-8.422,2.563,1
0.247581,0.143,0.974,-0.129,-8.422,-8.178,2.563,1
0.257519,0.142,0.973,-0.13,-6.53,-8.422,2.929,1
0.265237,0.14,0.966,-0.126,-3.173,-8.483,3.051,1
0.273135,0.145,0.97,-0.127,0.061,-8.605,3.417,1
0.282112,0.142,0.968,-0.133,2.685,-8.789,3.479,1
0.288985,0.144,0.962,-0.132,4.821,-8.911,3.906,1
0.29771,0.14,0.954,-0.138,4.333,-8.483,4.028,1
0.305159,0.134,0.95,-0.138,3.479,-8.361,4.272,1
0.313431,0.127,0.946,-0.142,2.441,-7.995,4.577,1
0.319807,0.125,0.94,-0.138,1.281,-7.873,4.699,1
0.327709,0.13,0.942,-0.135,0.183,-7.69,5.126,1
0.33484,0.133,0.942,-0.131,-0.061,-7.507,5.249,1
0.34301,0.13,0.946,-0.12,0.0,-7.324,5.493,1
0.351589,0.133,0.95,-0.118,0.915,-6.896,5.737,1
0.360979,0.131,0.963,-0.119,2.136,-7.08,6.164,1
0.367766,0.127,0.968,-0.118,3.234,-6.652,6.164,1
0.375984,0.126,0.975,-0.122,3.967,-7.08,6.469,1
0.385191,0.122,0.975,-0.121,5.92,-7.08,6.408,1
0.391905,0.125,0.973,-0.125,9.216,-7.263,6.958,1
0.399419,0.13,0.973,-0.122,12.756,-7.507,7.08,1
0.407361,0.133,0.967,-0.117,15.93,-7.629,7.263,1
0.415775,0.132,0.968,-0.114,19.226,-7.446,7.202,1
0.424064,0.137,0.97,-0.108,21.057,-7.446,7.751,1
0.431502,0.131,0.975,-0.101,20.812,-7.263,7.995,1
0.440934,0.122,0.983,-0.095,18.981,-6.774,7.934,1
0.449064,0.114,0.982,-0.098,16.418,-6.53,7.568,1
0.457312,0.11,0.983,-0.095,13.488,-6.469,7.69,1
0.466541,0.116,0.985,-0.093,11.413,-6.164,7.568,1
0.472966,0.112,0.984,-0.087,10.62,-5.92,7.568,1
0.480671,0.112,0.978,-0.088,10.925,-5.92,8.117,1
0.489938,0.119,0.974,-0.084,12.268,-5.432,8.3,1
0.497094,0.123,0.978,-0.08,13.732,-5.249,8.178,1
0.505879,0.114,0.976,-0.077,13.977,-4.882,8.544,1
0.513429,0.095,0.977,-0.084,14.038,-4.821,8.361,1
0.52409,0.093,0.972,-0.084,13.916,-5.065,8.605,1
0.531309,0.089,0.97,-0.071,13.061,-4.76,8.728,1
0.538134,0.092,0.968,-0.074,12.634,-4.882,8.789,1
0.546883,0.088,0.977,-0.062,12.817,-4.821,8.85,1
0.556255,0.096,0.974,-0.063,13.671,-5.249,9.094,1
0.563611,0.093,0.963,-0.055,14.465,-5.31,9.033,1
0.572829,0.084,0.946,-0.051,14.038,-4.943,9.216,1
0.580929,0.075,0.942,-0.044,11.962,-4.516,9.582,1
0.589429,0.069,0.934,-0.042,11.352,-4.394,9.887,1
0.596841,0.069,0.927,-0.039,11.657,-4.272,10.498,1
0.604857,0.068,0.925,-0.038,14.831,-4.394,11.169,1
0.613779,0.074,0.921,-0.031,19.348,-4.394,11.596,1
0.621907,0.064,0.925,-0.026,21.972,-4.516,12.39,1
0.62919,0.055,0.936,-0.033,23.559,-4.394,12.39,1
0.636353,0.064,0.958,-0.032,25.573,-5.065,12.512,1
0.644599,0.07,0.984,-0.033,29.296,-5.371,12.756,1
0.652047,0.072,1.012,-0.033,33.264,-5.859,12.39,1
0.661067,0.076,1.041,-0.035,36.682,-6.225,11.962,1
0.667584,0.062,1.05,-0.034,36.804,-6.408,11.169,1
0.677344,0.045,1.053,-0.039,34.545,-6.53,10.559,1
0.684941,0.041,1.052,-0.047,30.273,-6.164,9.826,1
0.69377,0.05,1.049,-0.048,26.916,-5.92,9.399,1
0.700857,0.046,1.062,-0.061,24.475,-5.798,8.789,1
0.707999,0.046,1.069,-0.073,23.01,-5.92,8.239,1
0.715648,0.042,1.069,-0.103,23.315,-6.103,8.239,1
0.724023,0.022,1.08,-0.123,23.986,-7.324,7.69,1
0.731417,0.032,1.081,-0.131,25.512,-7.629,7.08,1
0.740021,0.041,1.077,-0.181,25.878,-8.972,6.896,1
0.747192,0.05,1.097,-0.179,31.066,-10.314,6.347,1
0.755366,0.021,1.101,-0.196,39.062,-12.512,5.981,1
0.763493,0.021,1.093,-0.214,41.87,-13.0,5.493,1
0.772455,0.009,1.109,-0.247,36.193,-14.892,4.821,1
0.780684,-0.011,1.15,-0.22,30.212,-15.197,4.516,1
0.788072,-0.009,1.188,-0.214,25.573,-15.93,3.356,1
0.795048,0.005,1.233,-0.219,23.742,-17.028,2.197,1
0.802784,0.02,1.274,-0.225,20.629,-17.333,0.976,1
0.811635,0.031,1.297,-0.35,0.61,-16.479,-1.037,1
0.819933,0.01,1.332,-0.339,-21.362,-17.272,-3.295,1
0.828044,0.019,1.376,-0.396,-37.536,-18.615,-6.225,1
0.836744,-0.019,1.365,-0.275,-41.503,-20.874,-8.483,1
0.843765,-0.004,1.354,-0.211,-36.499,-20.812,-10.314,1
0.852119,0.001,1.336,-0.162,-31.127,-23.498,-12.878,1
0.859921,0.027,1.291,-0.101,-24.169,-24.658,-14.404,1
0.867788,0.052,1.213,-0.028,-16.357,-25.939,-15.869,1
0.876237,0.08,1.161,-0.009,-8.789,-26.123,-16.662,1
0.885236,0.119,1.083,-0.015,-0.488,-26.367,-17.15,1
0.892294,0.179,1.067,-0.125,3.845,-25.146,-16.54,1
0.900055,0.2,1.055,-0.139,-2.746,-25.939,-16.418,1
0.908032,0.245,1.084,-0.177,-10.253,-24.597,-15.808,1
0.917157,0.25,1.104,-0.159,-18.92,-25.085,-15.869,1
0.924457,0.29,1.165,-0.176,-22.399,-23.864,-15.869,1
0.931961,0.28,1.219,-0.137,-27.893,-24.291,-16.235,1
0.93968,0.3,1.26,-0.16,-31.188,-22.399,-16.784,1
0.947343,0.269,1.315,-0.124,-38.208,-22.277,-18.249,1
0.955561,0.273,1.347,-0.124,-44.006,-20.141,-19.531,1
0.963006,0.256,1.386,-0.103,-51.574,-19.348,-21.423,1
0.971343,0.255,1.423,-0.101,-59.082,-16.662,-23.62,1
0.979659,0.236,1.471,-0.075,-70.068,-15.319,-26.55,1
0.986675,0.242,1.501,-0.068,-78.857,-12.756,-29.479,1
0.994931,0.236,1.532,-0.044,-85.449,-11.291,-32.958,1
1.003745,0.239,1.547,-0.039,-88.562,-8.728,-36.01,1
1.012442,0.253,1.562,-0.025,-88.439,-8.178,-40.1,1
1.018955,0.271,1.56,-0.018,-78.308,-6.591,-44.067,1
1.027555,0.286,1.547,-0.012,-66.101,-6.835,-47.79,1
1.034316,0.301,1.54,-0.012,-53.405,-5.981,-50.903,1
1.04217,0.295,1.526,-0.016,-45.043,-5.676,-54.565,1
1.050262,0.301,1.526,-0.017,-39.306,-4.333,-58.532,1
1.058581,0.296,1.522,-0.029,-38.391,-3.295,-62.072,1
1.066949,0.297,1.524,-0.028,-38.085,-1.525,-66.223,1
1.074914,0.298,1.518,-0.033,-37.963,-0.671,-69.885,1
1.083171,0.304,1.514,-0.046,-37.536,0.732,-73.364,1
1.091035,0.324,1.51,-0.054,-37.048,1.098,-77.575,1
1.099295,0.337,1.503,-0.061,-34.362,1.342,-81.115,1
1.105979,0.336,1.492,-0.06,-28.137,1.22,-83.984,1
1.114214,0.337,1.48,-0.063,-20.324,1.342,-87.158,1
1.121278,0.337,1.469,-0.064,-14.343,1.525,-89.904,1
1.129625,0.329,1.455,-0.064,-13.671,2.136,-92.834,1
1.1367,0.319,1.442,-0.073,-16.418,3.784,-95.581,1
1.144907,0.33,1.429,-0.078,-21.545,5.065,-98.144,1
1.152089,0.341,1.424,-0.077,-27.465,6.286,-100.28,1
1.160013,0.352,1.414,-0.072,-30.822,7.385,-102.539,1
1.166929,0.346,1.4,-0.072,-30.212,7.995,-104.797,1
1.174739,0.344,1.378,-0.078,-27.16,7.751,-107.482,1
1.183496,0.346,1.364,-0.072,-20.69,7.934,-109.924,1
1.190893,0.335,1.351,-0.079,-15.747,7.629,-112.304,1
1.197906,0.325,1.342,-0.076,-12.634,7.69,-114.44,1
1.205038,0.309,1.325,-0.081,-10.803,8.483,-116.76,1
1.213594,0.301,1.303,-0.085,-11.413,9.155,-119.018,1
1.221533,0.307,1.283,-0.093,-12.573,9.521,-121.154,1
1.229761,0.296,1.262,-0.098,-14.16,10.009,-123.779,1
1.237271,0.287,1.235,-0.103,-14.404,10.192,-125.671,1
1.24589,0.282,1.203,-0.1,-13.671,10.131,-127.868,1
1.252486,0.282,1.168,-0.103,-13.61,10.07,-129.394,1
1.260627,0.279,1.136,-0.097,-14.038,10.253,-131.042,1
1.269031,0.268,1.104,-0.101,-15.808,10.253,-132.202,1
1.277308,0.268,1.074,-0.101,-18.493,10.986,-133.422,1
1.283952,0.281,1.037,-0.106,-22.155,10.864,-134.704,1
1.29386,0.299,1.007,-0.103,-24.963,10.803,-135.559,1
1.301035,0.334,0.975,-0.097,-27.099,10.437,-135.375,1
1.307503,0.36,0.951,-0.083,-30.822,11.108,-135.498,1
1.316208,0.394,0.935,-0.07,-35.522,11.108,-135.009,1
1.324512,0.404,0.916,-0.054,-42.114,11.901,-134.582,1
1.331815,0.417,0.897,-0.042,-51.452,12.512,-133.728,1
1.339301,0.434,0.885,-0.015,-59.875,13.61,-132.69,1
1.348351,0.398,0.856,-0.018,-68.542,14.77,-131.53,1
1.35494,0.425,0.732,-0.037,-88.073,15.197,-127.258,1
1.361665,0.504,0.728,0.0,-104.431,15.258,-123.84,1
1.368922,0.487,0.731,0.019,-108.276,16.174,-122.314,1
1.379346,0.451,0.724,0.015,-105.285,15.686,-120.422,1
1.38616,0.354,0.748,0.052,-94.177,15.624,-118.896,1
1.393219,0.366,0.729,0.041,-83.068,14.465,-118.041,1
1.402639,0.354,0.712,0.064,-72.753,14.77,-117.187,1
1.409948,0.346,0.678,0.044,-66.772,13.977,-116.699,1
1.418975,0.357,0.63,0.056,-64.208,13.977,-116.333,1
1.425684,0.361,0.576,0.036,-68.237,12.268,-115.661,1
1.43433,0.373,0.588,0.068,-69.702,12.268,-115.173,1
1.441694,0.435,0.562,0.055,-67.443,9.887,-114.624,1
1.449918,0.45,0.594,0.074,-56.579,9.094,-115.966,1
1.4567,0.489,0.583,0.075,-46.63,6.469,-117.065,1
1.467231,0.45,0.581,0.084,-30.395,5.065,-119.262,1
1.475411,0.482,0.548,0.087,-16.296,2.685,-120.483,1
1.482079,0.534,0.517,0.087,1.892,0.671,-121.948,1
1.490789,0.549,0.486,0.091,13.427,-1.22,-122.68,1
1.499904,0.555,0.462,0.087,19.165,-2.563,-123.046,1
1.507163,0.445,0.459,0.091,25.939,-3.234,-121.52,1
1.513837,0.598,0.44,0.101,23.01,-4.15,-121.643,1
1.521891,0.571,0.395,0.098,20.324,-3.173,-121.52,1
1.530114,0.576,0.398,0.109,23.559,-4.15,-121.459,1
1.537946,0.573,0.371,0.118,31.677,-3.845,-121.093,1
1.547368,0.596,0.362,0.112,41.137,-4.943,-120.91,1
1.553737,0.591,0.333,0.118,51.391,-4.821,-120.605,1
1.561266,0.541,0.301,0.103,59.082,-5.31,-119.445,1
1.570244,0.544,0.291,0.11,68.42,-5.371,-118.591,1
1.577259,0.591,0.246,0.068,81.481,-5.798,-118.408,1
1.58476,0.542,0.218,0.083,78.918,-1.77,-116.516,1
1.5936,0.507,0.178,0.052,61.157,-2.38,-113.891,1
1.601425,0.507,0.186,0.097,51.574,1.098,-111.45,1
1.609566,0.5,0.2,0.066,50.231,0.732,-110.046,1
1.616583,0.546,0.306,0.039,55.603,11.352,-107.666,1
1.624668,0.685,0.308,-0.054,55.358,10.253,-111.083,1
1.632539,0.632,0.3,-0.048,59.936,20.996,-111.572,1
1.64076,0.654,0.286,-0.119,63.781,19.775,-112.915,1
1.649463,0.682,0.294,-0.097,86.364,30.639,-112.915,1
1.656047,0.757,0.278,-0.208,92.041,32.531,-114.44,1
1.663602,0.744,0.253,-0.192,89.965,43.701,-115.356,1
1.673412,0.665,0.246,-0.283,71.35,46.874,-116.455,1
1.680847,0.596,0.277,-0.225,56.274,55.236,-117.187,1
1.687581,0.592,0.295,-0.262,47.729,55.358,-118.408,1
1.696277,0.595,0.296,-0.251,45.288,59.265,-119.628,1
1.704235,0.677,0.273,-0.318,40.161,57.373,-120.971,1
1.710916,0.813,0.254,-0.311,39.55,58.654,-120.971,1
1.718995,0.934,0.229,-0.374,37.048,55.48,-120.788,1
1.7255,1.048,0.217,-0.378,40.771,55.48,-119.75,1
1.733451,1.083,0.196,-0.407,45.837,52.856,-117.614,1
1.742224,1.129,0.173,-0.437,50.231,54.321,-114.685,1
1.749456,1.142,0.16,-0.458,46.386,52.551,-111.694,1
1.757802,1.148,0.149,-0.465,38.208,55.419,-108.581,1
1.765613,1.12,0.158,-0.49,27.526,55.664,-106.018,1
1.774042,1.061,0.188,-0.496,25.268,56.823,-104.248,1
1.782043,0.964,0.242,-0.491,29.968,56.396,-103.271,1
1.791185,0.893,0.257,-0.494,37.841,56.701,-102.783,1
1.799437,0.714,0.265,-0.469,45.349,56.396,-102.905,1
1.805641,0.72,0.228,-0.452,60.852,56.091,-102.661,1
1.81333,0.716,0.188,-0.459,71.655,56.03,-101.867,1
1.821945,0.753,0.147,-0.467,74.279,57.067,-100.524,1
1.829515,0.759,0.118,-0.49,66.284,58.166,-98.937,1
1.836425,0.695,0.128,-0.497,53.894,60.424,-96.74,1
1.845804,0.673,0.173,-0.501,43.273,62.072,-94.787,1
1.852564,0.645,0.254,-0.508,38.513,63.903,-93.017,1
1.860139,0.579,0.344,-0.522,39.672,65.002,-92.285,1
1.869378,0.512,0.429,-0.53,46.02,65.368,-92.59,1
1.876209,0.47,0.482,-0.539,56.701,64.88,-93.872,1
1.885183,0.432,0.52,-0.548,71.655,64.147,-95.764,1
1.892727,0.404,0.521,-0.542,93.322,62.438,-97.656,1
1.900122,0.372,0.503,-0.549,112.609,61.34,-98.999,1
1.90888,0.341,0.464,-0.536,125.915,61.523,-99.243,1
1.916354,0.356,0.438,-0.55,123.657,64.514,-98.937,1
1.92622,0.298,0.438,-0.567,99.975,69.213,-98.937,1
1.932336,0.233,0.457,-0.575,62.133,75.134,-98.999,1
1.940724,0.186,0.475,-0.562,32.165,79.345,-100.219,1
1.947917,0.121,0.485,-0.539,11.657,82.641,-101.928,1
1.956059,0.091,0.469,-0.51,3.234,84.472,-103.332,1
1.963206,0.066,0.437,-0.483,6.286,85.083,-104.736,1
1.97094,0.02,0.374,-0.44,17.333,85.754,-105.651,1
1.978983,-0.095,0.29,-0.388,31.372,85.815,-105.59,1
1.987334,-0.222,0.202,-0.312,39.733,86.73,-105.102,1
1.995403,-0.174,0.122,-0.296,55.725,89.05,-103.027,1
2.003968,-0.144,0.048,-0.225,68.42,93.566,-101.135,1
2.011757,-0.147,-0.013,-0.288,67.749,98.937,-98.266,1
2.019843,-0.24,-0.08,-0.283,48.889,106.994,-96.984,1
2.028994,-0.416,-0.081,-0.279,22.521,114.746,-94.36,1
2.037412,-0.518,-0.066,-0.282,14.892,120.3,-92.529,1
2.046347,-0.633,-0.095,-0.275,19.897,125.976,-90.515,1
2.052948,-0.639,-0.178,-0.333,27.282,128.967,-88.5,1
2.062091,-0.67,-0.258,-0.339,38.635,133.117,-85.51,1
2.06965,-0.611,-0.366,-0.395,56.701,135.559,-79.65,1
2.077464,-0.583,-0.482,-0.406,71.228,139.221,-73.608,1
2.086321,-0.605,-0.615,-0.475,70.983,142.15,-65.795,1
2.093453,-0.634,-0.727,-0.49,59.936,147.705,-55.358,1
2.10279,-0.661,-0.826,-0.534,44.372,151.611,-45.837,1
2.110049,-0.658,-0.91,-0.581,22.949,156.738,-33.63,1
2.118734,-0.663,-0.92,-0.63,9.277,159.423,-23.254,1
2.126122,-0.769,-0.864,-0.656,8.3,161.193,-11.413,1
2.134013,-1.032,-0.818,-0.676,22.46,161.743,-0.915,1
2.142594,-1.084,-0.887,-0.712,30.517,162.902,11.047,1
2.150258,-1.004,-0.991,-0.784,13.977,164.733,25.512,1
2.159323,-1.087,-1.008,-0.783,-3.662,167.297,38.818,1
2.16836,-1.199,-1.012,-0.798,-14.282,170.715,54.748,1
2.175699,-1.321,-1.012,-0.817,-11.413,172.18,70.373,1
2.184206,-1.456,-1.006,-0.855,2.99,171.752,84.533,1
2.191675,-1.602,-1.01,-0.882,22.338,170.837,99.182,1
2.2011,-1.768,-1.023,-0.942,42.785,168.701,118.713,1
2.207101,-1.929,-1.046,-0.989,54.931,167.419,136.657,1
2.216287,-2.06,-1.051,-1.037,66.101,164.978,156.311,1
2.223202,-2.259,-1.063,-1.065,86.853,161.132,181.335,1
2.232693,-2.43,-1.098,-1.138,101.989,156.616,204.833,1
2.241017,-2.718,-1.138,-1.204,111.816,151.123,233.459,1
2.249258,-3.033,-1.139,-1.264,118.469,144.653,263.305,1
2.256004,-3.314,-1.166,-1.335,117.309,138.977,289.733,1
2.264929,-3.564,-1.193,-1.407,109.802,133.178,317.26,1
2.273944,-3.9,-1.203,-1.495,98.388,125.61,350.707,1
2.281276,-4.306,-1.244,-1.595,84.594,119.201,380.92,1
2.29187,-4.59,-1.27,-1.748,65.979,110.046,417.846,1
2.299606,-5.017,-1.27,-1.895,57.434,98.815,457.336,1
2.308226,-5.547,-1.308,-2.123,58.349,83.19,498.596,1
2.315871,-6.033,-1.337,-2.342,66.04,63.964,542.785,1
2.324332,-6.517,-1.389,-2.592,76.782,41.259,581.909,1
2.332393,-7.193,-1.406,-2.835,98.205,10.009,629.272,1
2.341113,-7.738,-1.387,-3.056,114.99,-19.531,663.635,1
2.349414,-8.498,-1.295,-3.214,153.869,-67.504,710.388,1
2.357589,-9.626,-1.154,-3.366,213.439,-131.042,754.15,1
2.364774,-10.534,-0.995,-3.411,291.748,-206.665,794.372,1
2.374345,-11.542,-0.798,-3.399,364.135,-285.888,823.12,1
2.383731,-12.88,-0.519,-3.243,442.26,-389.465,847.717,1
2.390424,-14.377,-0.22,-2.946,509.216,-505.432,858.215,1
2.399792,-15.727,0.038,-2.585,548.156,-608.52,854.309,1
2.408685,-15.997,0.371,-1.971,580.81,-730.346,832.519,1
2.417009,-15.999,0.739,-1.271,607.36,-848.937,793.212,1
2.423621,-15.999,1.01,-0.552,615.661,-944.702,747.863,1
2.432463,-15.999,1.278,0.091,606.994,-1030.578,692.993,1
2.441125,-15.999,1.562,0.868,581.604,-1116.638,621.582,1
2.448113,-15.999,1.757,1.41,555.725,-1178.955,558.349,1
2.456578,-15.999,1.99,1.977,555.114,-1235.412,493.347,1
2.463681,-15.999,2.21,2.453,591.064,-1289.245,408.996,1
2.47118,-15.999,2.291,2.813,607.36,-1326.415,329.65,1
2.479911,-15.999,2.481,3.417,639.099,-1351.257,240.844,1
2.487149,-15.999,2.419,4.045,627.197,-1361.816,147.583,1
2.496374,-15.999,2.428,4.712,609.558,-1350.83,38.208,1
2.503883,-15.999,2.49,5.173,671.02,-1329.65,-57.983,1
2.513035,-15.999,2.266,5.263,797.424,-1294.616,-167.419,1
2.518848,-15.999,1.717,5.04,911.254,-1228.82,-311.828,1
2.526812,-15.999,1.015,4.787,869.262,-1143.188,-428.222,1
2.535811,-15.999,0.394,4.476,728.82,-1040.649,-517.944,1
2.54383,-15.999,-0.032,4.123,563.476,-944.213,-575.256,1
2.551764,-15.999,-0.096,3.729,451.721,-850.036,-615.661,1
2.560323,-15.999,-0.163,3.315,477.905,-771.057,-651.123,1
2.569721,-15.352,-0.349,2.896,544.494,-701.843,-683.532,1
2.577313,-13.962,-0.73,2.322,570.19,-617.919,-717.956,1
2.584298,-13.156,-1.079,1.985,520.568,-542.907,-739.318,1
2.59204,-12.336,-1.416,1.74,429.382,-474.487,-749.816,1
2.601503,-11.59,-1.768,1.67,304.138,-403.808,-744.873,1
2.608541,-10.732,-2.123,1.734,207.641,-355.712,-726.44,1
2.617746,-9.428,-2.5,1.839,137.268,-306.945,-695.495,1
2.624951,-8.959,-2.9,1.828,74.401,-284.545,-663.879,1
2.632681,-8.196,-3.157,2.005,41.198,-258.85,-628.723,1
2.640829,-7.302,-3.361,2.054,18.981,-245.178,-593.2,1
2.649864,-6.492,-3.475,2.223,38.33,-229.736,-549.743,1
2.65675,-5.641,-3.578,2.268,77.27,-219.787,-510.62,1
2.665994,-4.553,-3.556,2.257,131.103,-196.594,-465.515,1
2.673002,-3.998,-3.618,2.317,174.499,-193.542,-427.856,1
2.681777,-3.399,-3.613,2.334,266.967,-171.447,-381.225,1
2.690932,-2.875,-3.511,2.204,334.289,-157.287,-339.965,1
2.700062,-2.366,-3.364,2.064,353.088,-129.455,-298.522,1
2.708866,-2.129,-3.088,2.012,336.12,-109.313,-259.094,1
2.716706,-1.799,-2.789,1.893,314.636,-87.707,-219.421,1
2.72567,-1.639,-2.521,1.876,293.334,-72.143,-186.889,1
2.734416,-1.489,-2.169,1.799,271.789,-55.541,-150.268,1
2.743607,-1.53,-1.811,1.772,277.282,-42.907,-115.417,1
2.750104,-1.529,-1.546,1.656,289.794,-34.24,-87.829,1
2.75883,-1.511,-1.377,1.572,293.579,-23.132,-58.959,1
2.768254,-1.463,-1.244,1.449,276.611,-13.427,-37.597,1
2.775545,-1.371,-1.083,1.361,246.582,-1.77,-15.747,1
2.783311,-1.25,-0.907,1.271,218.505,7.873,2.929,1
2.791872,-1.136,-0.772,1.209,203.674,15.014,17.211,1
2.799677,-1.115,-0.668,1.149,187.194,21.118,30.029,1
2.808003,-1.102,-0.532,1.102,167.846,27.954,43.579,1
2.817196,-1.042,-0.405,1.05,158.752,31.799,53.588,1
2.823557,-1.065,-0.345,1.014,151.367,36.682,64.208,1
2.832721,-0.992,-0.298,0.962,141.845,39.55,72.326,1
2.840021,-0.969,-0.259,0.938,133.239,43.212,80.566,1
2.847202,-0.913,-0.232,0.9,126.647,45.41,88.073,1
2.854774,-0.844,-0.207,0.868,122.253,48.278,97.412,1
2.863803,-0.788,-0.198,0.834,119.628,49.133,105.224,1
2.87172,-0.76,-0.174,0.823,115.905,50.109,113.708,1
2.880546,-0.779,-0.145,0.815,111.633,49.865,119.628,1
2.888325,-0.807,-0.083,0.847,111.022,49.743,126.098,1
2.895762,-0.854,-0.038,0.863,116.394,48.034,131.042,1
2.904777,-0.898,-0.018,0.903,118.53,47.424,135.864,1
2.912498,-0.914,-0.008,0.923,113.83,47.302,139.526,1
2.919546,-0.909,-0.01,0.944,104.248,48.278,142.944,1
2.927981,-0.868,-0.018,0.963,89.294,49.56,145.935,1
2.935047,-0.818,-0.024,0.995,69.885,52.368,149.414,1
2.943913,-0.756,-0.034,1.002,51.757,54.077,152.526,1
2.952907,-0.672,-0.033,1.031,32.653,56.884,155.578,1
2.959375,-0.587,-0.025,1.055,22.949,57.922,157.836,1
2.968484,-0.534,0.0,1.076,25.39,58.471,159.606,1
2.977057,-0.514,0.012,1.096,37.78,57.617,161.01,1
2.984285,-0.52,0.007,1.104,49.133,57.189,162.109,1
2.991575,-0.517,-0.008,1.11,53.894,57.312,162.719,1
3.000521,-0.502,-0.016,1.099,52.246,57.983,163.635,1
3.007806,-0.499,-0.014,1.092,48.828,59.387,164.611,1
3.015544,-0.498,-0.012,1.071,44.006,61.157,165.649,1
3.023123,-0.485,-0.022,1.056,35.888,63.232,166.015,1
3.032274,-0.46,-0.036,1.032,23.559,65.246,166.992,1
3.040399,-0.427,-0.029,1.025,9.155,68.115,167.602,1
3.048445,-0.422,-0.015,1.016,3.417,70.129,167.541,1
3.055585,-0.37,0.013,1.028,4.821,71.228,167.175,1
3.062989,-0.347,0.016,1.041,8.178,72.082,166.809,1
3.071463,-0.329,0.021,1.059,11.169,72.998,166.137,1
3.07892,-0.313,0.033,1.073,13.549,74.462,165.344,1
3.087841,-0.295,0.053,1.093,13.671,76.232,163.757,1
3.096046,-0.241,0.064,1.113,13.0,78.613,162.231,1
3.102185,-0.212,0.09,1.148,10.742,81.604,160.949,1
3.111187,-0.206,0.109,1.174,12.268,84.594,159.79,1
3.118972,-0.205,0.128,1.212,12.939,87.951,157.653,1
3.127964,-0.208,0.142,1.204,12.817,92.529,156.311,1
3.134235,-0.205,0.143,1.191,10.742,95.092,154.541,1
3.143917,-0.174,0.134,1.172,5.981,98.327,152.954,1
3.150327,-0.101,0.121,1.131,-3.723,100.708,151.428,1
3.159423,-0.041,0.124,1.095,-9.704,103.21,150.207,1
3.166661,0.025,0.146,1.06,-10.742,103.82,148.803,1
3.176128,0.055,0.151,1.031,-5.187,104.248,147.644,1
3.182379,0.085,0.168,1.0,4.882,102.844,146.24,1
3.192381,0.114,0.176,0.987,17.883,101.806,145.324,1
3.20044,0.116,0.183,0.972,33.081,99.853,144.348,1
3.207038,0.112,0.185,0.962,46.447,98.449,142.883,1
3.214661,0.106,0.18,0.955,51.391,97.534,142.028,1
3.223354,0.102,0.18,0.962,50.964,97.473,140.93,1
3.231257,0.079,0.189,0.958,46.752,98.449,139.221,1
3.239217,0.066,0.202,0.946,42.907,99.548,137.695,1
3.246712,0.08,0.206,0.934,39.855,100.769,136.779,1
3.253184,0.119,0.204,0.906,37.17,101.257,135.253,1
3.26273,0.176,0.209,0.898,34.79,102.05,134.338,1
3.268996,0.237,0.213,0.877,35.4,101.806,133.544,1
3.276661,0.257,0.219,0.868,40.283,101.501,132.507,1
3.285369,0.292,0.217,0.864,44.799,101.013,131.713,1
3.292999,0.321,0.218,0.863,48.583,100.891,130.737,1
3.30014,0.331,0.224,0.866,51.33,100.524,130.187,1
3.307917,0.316,0.228,0.867,54.626,100.219,129.882,1
3.31534,0.302,0.227,0.858,56.152,99.853,129.333,1
3.322688,0.273,0.237,0.864,54.931,99.304,129.211,1
3.33116,0.251,0.252,0.869,52.124,98.999,128.54,1
3.337935,0.248,0.276,0.867,50.72,98.449,128.173,1
3.346193,0.263,0.284,0.86,52.49,97.412,127.258,1
3.35349,0.281,0.285,0.849,53.771,96.679,125.854,1
3.360355,0.299,0.273,0.849,51.452,96.801,124.694,1
3.367626,0.302,0.262,0.837,44.311,97.045,123.474,1
3.376334,0.312,0.26,0.825,35.888,97.961,121.948,1
3.383768,0.331,0.269,0.808,30.944,98.876,120.422,1
3.39192,0.351,0.263,0.788,30.151,99.731,119.445,1
3.398677,0.37,0.256,0.761,27.77,100.341,118.652,1
3.406065,0.379,0.251,0.74,24.414,100.524,118.286,1
3.413767,0.37,0.261,0.73,20.935,101.074,117.858,1
3.421044,0.364,0.258,0.724,17.639,101.196,117.004,1
3.427969,0.349,0.251,0.733,12.145,101.928,116.394,1
3.435385,0.33,0.237,0.742,2.075,103.698,115.905,1
3.443979,0.303,0.233,0.748,-11.291,106.262,114.807,1
3.451695,0.285,0.231,0.748,-25.39,109.008,113.708,1
3.460333,0.302,0.241,0.759,-37.536,111.877,112.487,1
3.467738,0.282,0.256,0.729,-45.593,114.99,110.229,1
3.476133,0.249,0.245,0.71,-47.363,116.577,108.947,1
3.484195,0.249,0.223,0.645,-48.889,118.103,107.299,1
3.49136,0.266,0.19,0.624,-46.386,118.53,106.201,1
3.498689,0.293,0.149,0.583,-37.78,117.675,105.224,1
3.506034,0.318,0.096,0.563,-26.611,116.638,104.125,1
3.515237,0.316,0.04,0.53,-16.54,116.271,103.515,1
3.523145,0.285,-0.002,0.496,-10.803,115.6,103.149,1
3.531502,0.252,-0.052,0.444,-8.605,115.539,103.271,1
3.538522,0.225,-0.082,0.412,-9.338,115.539,104.248,1
3.547376,0.198,-0.091,0.37,-7.69,115.661,105.651,1
3.554226,0.128,-0.09,0.321,-3.356,115.295,107.421,1
3.562234,0.158,-0.083,0.295,1.77,114.929,109.313,1
3.569062,0.21,-0.071,0.25,19.226,113.586,112.121,1
3.577444,0.31,-0.073,0.228,44.006,111.45,114.746,1
3.585316,0.327,-0.083,0.168,66.162,108.886,117.98,1
3.59217,0.31,-0.103,0.132,79.467,106.567,122.253,1
3.600883,0.339,-0.161,0.074,76.965,106.628,126.159,1
3.608488,0.381,-0.175,0.057,56.579,106.018,132.507,1
3.617203,0.394,-0.176,0.007,24.414,109.863,138.916,1
3.624174,0.37,-0.144,-0.003,-9.033,111.999,143.31,1
3.632597,0.354,-0.104,-0.019,-36.499,116.394,147.888,1
3.639984,0.335,-0.071,-0.032,-57.067,118.347,152.648,1
3.649238,0.34,-0.062,-0.066,-75.195,123.229,157.775,1
3.656566,0.371,-0.07,-0.093,-95.275,127.197,161.682,1
3.664611,0.367,-0.058,-0.139,-114.868,132.995,166.32,1
3.672889,0.288,-0.005,-0.129,-120.483,136.047,170.715,1
3.681171,0.137,0.044,-0.171,-124.145,138.854,175.109,1
3.688089,0.111,0.111,-0.162,-118.408,142.578,179.565,1
3.696795,0.081,0.157,-0.188,-103.82,144.348,184.082,1
3.703842,0.008,0.215,-0.206,-87.768,146.118,187.805,1
3.71299,-0.083,0.291,-0.246,-69.335,145.019,190.917,1
3.720485,-0.175,0.384,-0.269,-48.461,144.226,194.03,1
3.729342,-0.25,0.458,-0.3,-19.226,141.723,197.692,1
3.736765,-0.401,0.548,-0.348,3.723,138.549,201.904,1
3.745179,-0.484,0.621,-0.394,14.404,133.544,205.017,1
3.753352,-0.558,0.682,-0.404,18.798,130.31,207.885,1
3.760699,-0.63,0.762,-0.437,17.333,126.708,211.364,1
3.768813,-0.708,0.848,-0.448,12.268,125.305,214.111,1
3.777399,-0.768,0.939,-0.479,2.197,123.84,215.209,1
3.786205,-0.793,1.011,-0.487,-12.573,122.924,216.064,1
3.795128,-0.812,1.114,-0.516,-22.521,120.849,215.881,1
3.802121,-0.807,1.21,-0.522,-20.629,118.957,215.576,1
3.809945,-0.797,1.296,-0.536,-9.887,115.051,214.355,1
3.817726,-0.775,1.362,-0.522,10.559,110.168,213.195,1
3.825287,-0.729,1.38,-0.523,28.381,105.407,212.097,1
3.833143,-0.721,1.402,-0.516,40.771,101.745,210.876,1
3.841796,-0.707,1.414,-0.524,40.832,98.144,209.167,1
3.850769,-0.7,1.441,-0.503,30.273,96.374,207.336,1
3.858734,-0.734,1.485,-0.506,16.052,95.031,204.528,1
3.867844,-0.783,1.554,-0.492,-9.155,95.764,200.134,1
3.875091,-0.796,1.604,-0.498,-25.634,95.458,195.678,1
3.882765,-0.75,1.605,-0.498,-41.137,96.008,191.284,1
3.891522,-0.734,1.661,-0.484,-44.372,95.886,184.204,1
3.900834,-0.744,1.696,-0.461,-34.057,95.336,178.161,1
3.908335,-0.687,1.691,-0.465,-15.014,92.773,171.874,1
3.917921,-0.623,1.642,-0.46,-4.516,91.064,167.114,1
3.92588,-0.59,1.595,-0.474,-3.784,88.867,162.414,1
3.933338,-0.57,1.553,-0.462,-9.094,88.012,156.86,1
3.942937,-0.549,1.523,-0.471,-15.319,86.12,152.404,1
3.951565,-0.502,1.514,-0.47,-17.272,84.472,147.888,1
3.958665,-0.481,1.504,-0.475,-17.211,81.481,143.981,1
3.967862,-0.445,1.491,-0.469,-13.305,77.941,139.282,1
3.975155,-0.412,1.472,-0.437,-3.173,73.791,135.62,1
3.983858,-0.375,1.447,-0.416,15.197,69.274,132.568,1
3.991393,-0.355,1.419,-0.387,41.625,64.208,129.394,1
3.999764,-0.341,1.388,-0.374,58.471,60.546,127.136,1
4.006535,-0.352,1.36,-0.366,63.354,58.532,124.999,1
4.015111,-0.387,1.343,-0.361,56.762,57.739,122.68,1
4.021767,-0.387,1.326,-0.35,45.349,57.434,120.178,1
4.030484,-0.367,1.32,-0.347,34.973,57.495,117.309,1
4.037643,-0.36,1.3,-0.337,23.62,56.823,114.135,1
4.045947,-0.36,1.287,-0.322,19.714,55.908,111.633,1
4.053093,-0.362,1.264,-0.306,22.766,54.077,109.191,1
4.061867,-0.377,1.241,-0.294,27.404,52.062,107.299,1
4.069463,-0.387,1.224,-0.28,27.709,50.903,105.407,1
4.078684,-0.384,1.211,-0.27,22.521,50.476,103.637,1
4.08594,-0.394,1.211,-0.261,13.122,51.33,101.745,1
4.095047,-0.459,1.248,-0.258,3.845,52.612,100.28,1
4.104297,-0.504,1.279,-0.256,-6.591,54.87,97.839,1
4.11165,-0.528,1.289,-0.258,-19.287,57.373,95.092,1
4.120626,-0.538,1.315,-0.27,-26.062,58.776,91.369,1
4.127749,-0.547,1.309,-0.244,-27.465,59.631,88.439,1
4.13531,-0.56,1.303,-0.253,-28.808,59.814,85.937,1
4.143214,-0.536,1.289,-0.244,-25.573,59.631,83.068,1
4.151175,-0.518,1.258,-0.244,-22.827,59.875,80.261,1
4.159941,-0.519,1.251,-0.243,-22.827,59.326,77.819,1
4.167171,-0.513,1.242,-0.237,-19.836,59.509,75.378,1
4.177331,-0.521,1.229,-0.236,-17.761,59.204,73.547,1
4.184556,-0.535,1.22,-0.238,-18.615,59.997,71.777,1
4.192157,-0.537,1.215,-0.241,-23.01,60.913,69.946,1
4.200103,-0.522,1.216,-0.238,-29.724,62.194,68.176,1
4.208665,-0.524,1.222,-0.233,-37.414,64.025,65.979,1
4.217686,-0.526,1.229,-0.224,-41.076,65.124,64.025,1
4.22582,-0.531,1.228,-0.223,-43.64,66.345,61.218,1
4.233769,-0.537,1.238,-0.217,-46.142,67.932,58.349,1
4.242853,-0.541,1.25,-0.206,-46.203,68.664,55.786,1
4.251756,-0.555,1.253,-0.205,-44.433,69.641,52.185,1
4.259682,-0.555,1.246,-0.197,-44.982,71.044,49.011,1
4.267026,-0.551,1.242,-0.204,-48.217,72.448,45.837,1
4.274633,-0.545,1.237,-0.194,-51.025,74.401,42.663,1
4.283855,-0.544,1.234,-0.196,-52.917,75.805,39.672,1
4.292813,-0.554,1.222,-0.2,-56.823,78.063,36.376,1
4.300926,-0.548,1.197,-0.211,-63.537,79.895,33.691,1
4.307911,-0.555,1.204,-0.209,-75.134,83.007,31.066,1
4.316883,-0.579,1.186,-0.218,-83.557,84.045,28.076,1
4.324825,-0.555,1.172,-0.21,-89.111,86.364,25.512,1
4.332626,-0.547,1.166,-0.224,-94.177,86.669,22.644,1
4.341504,-0.551,1.171,-0.225,-91.735,87.28,19.287,1
4.348804,-0.55,1.165,-0.229,-83.374,85.937,15.869,1
4.357346,-0.543,1.146,-0.229,-73.974,85.144,13.305,1
4.366501,-0.535,1.13,-0.234,-65.124,83.557,11.169,1
4.373971,-0.539,1.105,-0.228,-54.138,82.275,9.155,1
4.382762,-0.539,1.07,-0.234,-47.668,81.054,7.019,1
4.389525,-0.522,1.034,-0.239,-46.508,80.566,5.798,1
4.398846,-0.507,1.005,-0.234,-47.912,80.139,4.516,1
4.406185,-0.507,0.973,-0.237,-50.292,80.261,3.54,1
4.413137,-0.516,0.951,-0.239,-54.26,80.017,2.746,1
4.420119,-0.508,0.934,-0.243,-60.791,80.2,1.892,1
4.428513,-0.516,0.916,-0.24,-67.626,80.444,1.037,1
4.436106,-0.523,0.912,-0.24,-73.791,80.566,0.366,1
4.445073,-0.532,0.91,-0.234,-77.453,80.383,-0.732,1
4.452966,-0.53,0.9,-0.225,-78.308,79.833,-1.892,1
4.460952,-0.538,0.898,-0.218,-76.843,78.918,-2.868,1
4.468234,-0.552,0.898,-0.209,-74.401,78.063,-4.089,1
4.477745,-0.565,0.897,-0.207,-72.143,77.27,-5.065,1
4.485556,-0.586,0.886,-0.196,-69.091,76.599,-5.737,1
4.4933,-0.603,0.886,-0.193,-65.063,75.622,-6.835,1
4.500769,-0.614,0.874,-0.193,-61.401,75.012,-8.117,1
4.509824,-0.615,0.867,-0.198,-59.631,74.218,-8.972,1
4.517258,-0.621,0.856,-0.201,-59.631,73.425,-9.765,1
4.52508,-0.617,0.846,-0.2,-60.546,73.059,-10.803,1
4.533905,-0.603,0.843,-0.195,-60.668,71.838,-11.596,1
4.543988,-0.592,0.836,-0.194,-57.922,70.739,-11.962,1
4.551289,-0.588,0.831,-0.191,-54.748,69.763,-12.329,1
4.559565,-0.59,0.827,-0.185,-51.391,68.786,-12.39,1
4.567472,-0.567,0.824,-0.182,-49.194,68.725,-11.84,1
4.575921,-0.569,0.83,-0.175,-48.583,68.481,-11.779,1
4.584054,-0.582,0.848,-0.171,-50.17,68.908,-11.474,1
4.593208,-0.59,0.867,-0.173,-52.917,69.213,-11.413,1
4.601123,-0.601,0.887,-0.177,-58.349,70.19,-11.718,1
4.609147,-0.599,0.906,-0.179,-63.11,70.678,-12.451,1
4.616589,-0.592,0.935,-0.185,-67.077,70.8,-13.0,1
4.624811,-0.598,0.958,-0.189,-69.396,70.922,-14.221,1
4.632345,-0.604,0.99,-0.193,-71.777,70.678,-15.747,1
4.641469,-0.614,1.015,-0.197,-75.256,70.007,-17.578,1
4.650663,-0.621,1.042,-0.199,-77.453,69.458,-19.714,1
4.659962,-0.634,1.066,-0.195,-75.927,68.542,-22.338,1
4.670577,-0.656,1.084,-0.196,-70.251,67.382,-24.475,1
4.678156,-0.648,1.085,-0.2,-63.598,65.856,-26.55,1
4.687447,-0.647,1.07,-0.214,-58.837,64.331,-28.198,1
4.696302,-0.63,1.051,-0.228,-55.175,62.744,-28.808,1
4.703966,-0.577,1.013,-0.235,-49.011,59.875,-28.686,1
4.71178,-0.488,0.971,-0.226,-36.132,56.152,-27.404,1
4.720349,-0.397,0.93,-0.204,-17.456,52.124,-25.207,1
4.727415,-0.332,0.9,-0.175,12.695,47.119,-21.24,1
4.73507,-0.287,0.894,-0.156,40.771,44.25,-17.578,1
4.743873,-0.291,0.89,-0.157,56.274,43.029,-14.16,1
4.752555,-0.357,0.901,-0.159,44.433,44.799,-10.07,1
4.76278,-0.404,0.949,-0.141,10.375,47.973,-7.629,1
4.772287,-0.408,1.059,-0.102,-29.479,53.039,-6.713,1
4.780418,-0.43,1.169,-0.065,-54.931,56.884,-7.629,1
4.789429,-0.475,1.302,-0.052,-87.402,62.499,-11.474,1
4.798701,-0.531,1.425,-0.041,-118.652,67.626,-17.333,1
4.807738,-0.382,1.389,-0.056,-164.855,71.228,-23.315,1
4.814137,-0.558,1.62,-0.053,-199.096,75.744,-31.188,1
4.822482,-0.65,1.793,-0.023,-187.744,74.096,-39.672,1
4.830523,-0.687,1.94,-0.014,-142.395,71.289,-49.194,1
4.838685,-0.63,1.999,0.011,-97.595,66.04,-58.166,1
4.846768,-0.552,2.016,0.009,-66.162,63.842,-66.101,1
4.854351,-0.561,2.061,0.015,-53.466,62.011,-76.538,1
4.86123,-0.579,2.107,0.014,-57.739,62.805,-85.388,1
4.86964,-0.612,2.169,0.018,-72.448,63.72,-94.848,1
4.87931,-0.617,2.215,0.031,-88.867,65.917,-103.82,1
4.886701,-0.625,2.293,0.033,-110.717,67.871,-114.685,1
4.893739,-0.696,2.344,0.039,-122.863,67.871,-123.291,1
4.902305,-0.715,2.377,0.062,-124.877,67.016,-131.53,1
4.909909,-0.728,2.417,0.084,-112.915,64.331,-140.441,1
4.917248,-0.751,2.456,0.102,-93.139,61.828,-148.071,1
4.92561,-0.782,2.48,0.121,-73.669,59.509,-155.578,1
4.934727,-0.832,2.491,0.132,-59.448,58.227,-164.55,1
4.94198,-0.86,2.491,0.145,-55.847,58.105,-173.461,1
4.951348,-0.874,2.482,0.151,-61.218,59.082,-180.847,1
4.958469,-0.898,2.488,0.163,-72.265,59.936,-188.659,1
4.96604,-0.939,2.495,0.177,-85.937,60.546,-197.509,1
4.974921,-0.996,2.504,0.193,-93.505,60.363,-205.139,1
4.98412,-1.059,2.519,0.215,-93.261,58.959,-213.867,1
4.991069,-1.106,2.52,0.236,-83.557,57.617,-221.252,1
4.998965,-1.186,2.51,0.246,-67.993,55.847,-229.614,1
5.007503,-1.244,2.488,0.254,-56.64,54.565,-236.45,1
5.015155,-1.264,2.458,0.251,-48.4,54.687,-243.225,1
5.022672,-1.306,2.412,0.247,-44.25,54.687,-250.366,1
5.029673,-1.335,2.356,0.229,-45.715,55.114,-256.591,1
5.038112,-1.354,2.29,0.208,-54.321,55.664,-263.244,1
5.045952,-1.377,2.234,0.195,-65.124,55.48,-270.324,1
5.054321,-1.406,2.17,0.178,-71.655,53.955,-278.442,1
5.061658,-1.444,2.122,0.166,-66.04,50.537,-285.095,1
5.069594,-1.453,2.061,0.16,-49.011,46.264,-290.954,1
5.07749,-1.472,1.967,0.141,-25.634,41.442,-295.898,1
5.08701,-1.455,1.876,0.134,6.225,36.193,-300.842,1
5.095355,-1.445,1.747,0.106,33.996,32.836,-304.504,1
5.103476,-1.429,1.614,0.089,48.767,31.677,-306.518,1
5.111532,-1.405,1.501,0.062,57.312,31.677,-308.105,1
5.11977,-1.397,1.41,0.044,56.274,32.348,-308.715,1
5.12729,-1.364,1.306,0.008,50.781,33.02,-308.654,1
5.136807,-1.333,1.219,-0.018,38.085,34.179,-307.556,1
5.145383,-1.312,1.141,-0.053,20.568,34.301,-305.847,1
5.152649,-1.249,1.074,-0.067,8.544,33.508,-303.222,1
5.160442,-1.214,1.03,-0.079,5.371,31.555,-300.292,1
5.168994,-1.173,0.977,-0.078,9.521,29.174,-297.363,1
5.17695,-1.151,0.943,-0.079,24.475,25.756,-293.518,1
5.185169,-1.125,0.897,-0.08,41.442,23.01,-290.039,1
5.192963,-1.104,0.819,-0.089,53.71,21.728,-285.888,1
5.202233,-1.064,0.719,-0.106,45.349,22.827,-281.982,1
5.209496,-1.095,0.647,-0.119,25.634,24.23,-277.343,1
5.218513,-1.09,0.545,-0.133,-2.746,27.893,-272.033,1
5.226612,-1.117,0.382,-0.143,-63.11,32.531,-263.122,1
5.235825,-0.876,0.263,-0.381,-166.992,32.348,-256.896,1
5.246697,-0.776,0.256,-0.269,-277.648,46.325,-251.892,1
5.25433,-0.649,0.135,-0.349,-422.302,39.978,-244.018,1
5.262027,-0.982,0.262,-0.371,-483.52,44.86,-236.022,1
5.27039,-1.141,0.554,-0.251,-472.045,31.066,-232.299,1
5.278671,-0.954,0.663,-0.183,-374.633,29.296,-231.75,1
5.287754,-0.63,0.738,-0.133,-223.999,10.314,-235.29,1
5.294957,-0.48,0.651,-0.133,-90.576,7.385,-236.877,1
5.303973,-0.408,0.52,-0.147,-7.263,-3.479,-236.328,1
5.311362,-0.391,0.45,-0.198,46.386,-2.441,-232.36,1
5.320632,-0.466,0.435,-0.182,61.34,-7.08,-227.294,1
5.327657,-0.397,0.439,-0.247,65.063,-6.225,-222.167,1
5.337002,-0.361,0.445,-0.251,61.767,-10.742,-218.017,1
5.344399,-0.334,0.439,-0.318,56.945,-9.826,-213.073,1
5.353354,-0.292,0.45,-0.327,46.264,-11.047,-209.411,1
5.362298,-0.211,0.465,-0.416,34.484,-10.314,-207.153,1
5.370841,-0.202,0.483,-0.412,20.263,-8.85,-206.237,1
5.378522,-0.129,0.531,-0.463,6.713,-8.239,-206.542,1
5.387433,-0.177,0.559,-0.458,7.019,-7.629,-208.801,1
5.394825,-0.222,0.555,-0.477,10.864,-9.033,-211.364,1
5.403737,-0.229,0.539,-0.45,22.521,-9.399,-213.928,1
5.410407,-0.193,0.487,-0.428,40.954,-9.826,-216.613,1
5.418611,-0.111,0.424,-0.416,54.687,-8.117,-217.895,1
5.427852,-0.036,0.36,-0.411,63.842,-7.629,-217.529,1
5.435066,-0.018,0.312,-0.398,71.35,-6.164,-215.881,1
5.44395,-0.001,0.275,-0.378,77.575,-5.737,-213.134,1
5.452837,0.014,0.239,-0.362,77.88,-3.173,-210.327,1
5.460088,0.016,0.208,-0.34,72.265,-0.427,-207.946,1
5.468603,0.028,0.18,-0.318,58.654,4.455,-205.688,1
5.477402,0.024,0.149,-0.298,39.794,8.605,-204.04,1
5.484194,0.047,0.139,-0.279,19.531,12.939,-202.27,1
5.492762,0.054,0.146,-0.25,5.126,15.991,-201.171,1
5.500443,0.042,0.166,-0.228,1.708,18.676,-200.134,1
5.509071,0.02,0.177,-0.207,7.202,19.531,-199.645,1
5.515414,-0.016,0.171,-0.179,16.296,20.996,-199.584,1
5.523837,-0.033,0.146,-0.16,25.329,23.742,-199.89,1
5.531833,-0.058,0.11,-0.132,33.264,26.794,-200.317,1
5.540536,-0.069,0.039,-0.109,36.743,31.433,-200.439,1
5.549506,-0.093,-0.014,-0.078,36.132,36.987,-199.89,1
5.558251,-0.116,-0.076,-0.063,30.151,43.64,-198.791,1
5.567734,-0.139,-0.15,-0.043,15.197,52.673,-196.96,1
5.576669,-0.171,-0.18,-0.042,0.0,59.143,-195.312,1
5.584648,-0.26,-0.204,-0.042,-18.127,65.368,-193.42,1
5.593288,-0.29,-0.214,-0.045,-25.695,70.19,-192.077,1
5.601342,-0.405,-0.24,-0.026,-20.629,73.12,-190.917,1
5.610156,-0.43,-0.344,-0.033,-2.258,76.354,-188.598,1
5.618407,-0.352,-0.444,-0.033,15.747,78.552,-186.096,1
5.626377,-0.283,-0.583,-0.062,30.151,83.19,-181.945,1
5.633545,-0.194,-0.715,-0.126,24.414,88.378,-176.879,1
5.642801,-0.111,-0.85,-0.243,-4.272,94.116,-171.081,1
5.651643,-0.119,-0.967,-0.338,-49.926,99.609,-163.635,1
5.658833,-0.131,-1.057,-0.453,-96.557,103.454,-156.616,1
5.668555,-0.216,-1.083,-0.529,-120.727,103.82,-151.184,1
5.675555,-0.318,-1.111,-0.594,-106.933,100.83,-147.338,1
5.684333,-0.514,-1.156,-0.614,-51.086,95.642,-143.005,1
5.692632,-0.717,-1.348,-0.688,-11.291,91.735,-137.146,1
5.70011,-0.821,-1.493,-0.683,4.333,89.843,-130.31,1
5.708176,-0.87,-1.663,-0.658,27.343,90.759,-121.093,1
5.717442,-0.887,-1.83,-0.627,30.09,91.064,-108.032,1
5.726242,-0.99,-1.99,-0.617,12.145,92.773,-95.092,1
5.734345,-1.125,-2.025,-0.527,-9.094,95.947,-77.758,1
5.742141,-1.264,-2.069,-0.465,2.502,97.167,-59.143,1
5.751646,-1.353,-2.139,-0.391,36.01,96.496,-41.015,1
5.759942,-1.378,-2.187,-0.369,100.83,93.627,-18.676,1
5.767484,-1.501,-2.3,-0.373,151.672,92.895,7.507,1
5.77643,-1.621,-2.34,-0.374,174.194,93.383,32.104,1
5.784672,-1.647,-2.451,-0.431,158.996,100.708,62.438,1
5.792073,-1.716,-2.592,-0.441,129.638,108.764,91.552,1
5.799746,-1.862,-2.515,-0.442,107.849,116.577,126.464,1
5.808216,-2.008,-2.462,-0.443,98.144,123.352,155.334,1
5.815937,-2.159,-2.412,-0.463,104.37,129.089,191.101,1
5.825089,-2.306,-2.311,-0.439,123.84,133.483,220.336,1
5.833401,-2.582,-2.136,-0.487,139.892,137.878,250.793,1
5.840718,-2.907,-2.073,-0.523,149.414,144.409,285.4,1
5.848493,-3.229,-2.009,-0.596,137.573,151.062,316.406,1
5.856395,-3.63,-1.959,-0.59,122.192,158.02,348.205,1
5.864023,-4.009,-1.878,-0.666,92.346,169.433,385.436,1
5.871947,-4.378,-1.836,-0.688,56.884,181.64,418.273,1
5.881872,-4.73,-1.775,-0.745,14.526,196.044,451.782,1
5.889537,-5.248,-1.792,-0.843,-34.057,218.383,493.225,1
5.898629,-5.777,-1.775,-0.972,-51.94,238.403,537.231,1
5.907899,-6.549,-1.734,-1.152,-39.184,257.385,582.275,1
5.917493,-7.369,-1.666,-1.338,-18.798,272.583,635.925,1
5.924696,-8.31,-1.599,-1.502,-5.31,283.447,677.795,1
5.935018,-9.638,-1.509,-1.77,-5.493,295.959,727.539,1
5.943788,-10.98,-1.37,-2.092,-13.427,305.542,776.184,1
5.950729,-12.395,-1.183,-2.359,0.854,307.861,824.401,1
5.961464,-13.873,-1.003,-2.647,39.611,302.612,874.145,1
5.968405,-15.221,-0.821,-3.066,90.881,279.174,925.537,1
5.977981,-15.999,-0.616,-3.374,165.527,242.187,971.557,1
5.985452,-15.999,-0.329,-3.718,283.691,169.921,1025.634,1
5.993024,-15.999,0.021,-3.888,409.24,68.115,1079.528,1
6.001938,-15.999,0.411,-3.848,507.08,-41.381,1120.117,1
6.009034,-15.999,0.867,-3.636,589.294,-168.64,1150.512,1
6.018138,-15.999,1.447,-3.053,655.151,-329.162,1167.907,1
6.025464,-15.999,2.079,-2.357,690.551,-468.933,1164.245,1
6.035159,-15.999,2.845,-1.402,705.688,-626.892,1135.864,1
6.044062,-15.999,3.546,-0.452,691.955,-753.967,1090.576,1
6.051025,-15.999,4.121,0.592,656.066,-885.742,1018.615,1
6.059054,-15.999,4.585,1.447,605.712,-1005.676,932.434,1
6.067376,-15.999,5.215,2.436,587.219,-1091.552,851.074,1
6.07488,-15.999,6.6,3.997,601.562,-1183.96,729.248,1
6.084384,-15.999,5.321,4.291,555.786,-1199.279,645.324,1
6.091937,-15.999,5.922,5.083,708.862,-1281.86,549.804,1
6.100695,-15.999,6.862,5.858,1270.141,-1339.05,346.618,1
6.108189,-15.999,5.846,6.101,1671.325,-1400.878,92.529,1
6.116556,-15.999,3.505,5.563,1642.639,-1312.499,-221.679,1
6.124926,-15.999,2.471,5.138,1394.226,-1195.678,-430.725,1
6.132486,-15.999,1.499,4.375,1190.49,-1046.447,-575.256,1
6.14153,-15.999,0.867,4.079,953.735,-896.85,-682.311,1
6.150734,-15.999,0.473,3.407,791.32,-776.733,-737.548,1
6.159736,-15.969,0.015,3.032,643.737,-652.16,-778.686,1
6.167275,-14.553,-0.263,2.505,527.587,-562.377,-797.607,1
6.17657,-13.867,-0.345,2.494,483.52,-480.834,-804.809,1
6.183933,-13.469,-0.432,2.361,498.657,-429.443,-807.189,1
6.192773,-13.103,-0.646,2.353,557.434,-354.614,-804.809,1
6.201143,-12.361,-1.129,2.199,585.937,-278.32,-794.433,1
6.208794,-11.155,-1.597,2.046,570.8,-202.941,-775.024,1
6.216605,-10.038,-2.124,1.946,533.447,-124.328,-742.98,1
6.225589,-9.478,-2.429,1.898,512.756,-57.189,-710.937,1
6.233353,-8.785,-2.629,1.704,507.873,-0.305,-675.903,1
6.241723,-7.945,-2.844,1.472,516.479,58.471,-628.906,1
6.24951,-7.335,-2.976,1.178,511.779,101.501,-586.547,1
6.257903,-6.707,-3.033,0.839,473.937,147.583,-534.606,1
6.267139,-5.877,-3.015,0.536,433.105,179.809,-491.332,1
6.276239,-5.401,-2.834,0.315,348.876,208.801,-431.64,1
6.284316,-5.095,-2.575,0.105,313.476,224.792,-382.141,1
6.293995,-4.712,-2.408,-0.063,287.414,233.032,-332.519,1
6.30254,-4.303,-2.291,-0.309,249.572,234.497,-285.339,1
6.30971,-3.943,-2.203,-0.445,211.914,232.238,-248.046,1
6.318452,-3.51,-2.104,-0.605,175.476,226.684,-213.5,1
6.327328,-3.148,-2.011,-0.677,151.428,215.454,-176.818,1
6.336632,-2.735,-1.904,-0.75,150.756,202.697,-147.949,1
6.344781,-2.375,-1.794,-0.776,166.198,184.509,-111.816,1
6.353855,-2.096,-1.698,-0.769,173.461,167.175,-82.885,1
6.361738,-1.866,-1.578,-0.75,180.725,152.587,-55.786,1
6.370653,-1.663,-1.464,-0.687,189.758,136.901,-31.249,1
6.377978,-1.499,-1.395,-0.681,190.246,124.694,-11.352,1
6.386824,-1.346,-1.329,-0.624,178.466,111.633,9.46,1
6.39659,-1.22,-1.274,-0.595,158.935,102.294,25.024,1
6.404002,-1.104,-1.199,-0.553,136.474,90.881,41.381,1
6.412301,-1.001,-1.129,-0.491,119.873,82.702,53.344,1
6.419128,-0.899,-1.011,-0.448,112.182,70.434,65.002,1
6.428149,-0.84,-0.933,-0.367,114.074,61.279,73.425,1
6.436048,-0.771,-0.865,-0.339,119.018,51.391,80.932,1
6.444995,-0.719,-0.804,-0.278,127.563,40.893,88.439,1
6.451789,-0.634,-0.77,-0.239,131.958,29.357,94.726,1
6.459601,-0.567,-0.749,-0.194,129.821,21.789,99.426,1
6.469029,-0.5,-0.715,-0.153,123.168,13.61,103.698,1
6.47511,-0.485,-0.675,-0.101,115.661,7.202,106.445,1
6.484152,-0.486,-0.625,-0.056,110.717,0.0,108.764,1
6.49203,-0.478,-0.574,0.015,108.032,-6.286,109.863,1
6.498553,-0.431,-0.545,0.058,103.698,-13.183,110.839,1
6.50698,-0.373,-0.519,0.107,99.853,-18.554,111.389,1
6.514225,-0.317,-0.496,0.153,97.961,-24.597,111.267,1
6.522085,-0.299,-0.48,0.229,99.67,-29.296,110.717,1
6.531336,-0.299,-0.492,0.279,102.111,-35.034,109.863,1
6.5411,-0.265,-0.532,0.332,96.313,-36.926,109.436,1
6.54774,-0.23,-0.571,0.363,84.35,-39.184,108.825,1
6.554748,-0.171,-0.604,0.41,72.937,-39.672,108.886,1
6.563544,-0.115,-0.621,0.448,62.438,-41.442,108.703,1
6.570804,-0.112,-0.625,0.496,53.71,-42.236,108.581,1
6.580123,-0.098,-0.621,0.542,51.452,-44.799,108.398,1
6.589455,-0.093,-0.612,0.624,60.241,-47.18,108.337,1
6.59578,-0.088,-0.639,0.693,69.213,-49.743,108.032,1
6.604875,-0.065,-0.672,0.752,71.411,-50.292,108.276,1
6.611922,-0.03,-0.701,0.807,66.223,-50.231,108.825,1
6.619792,0.013,-0.711,0.862,63.293,-49.438,110.046,1
6.629747,0.065,-0.722,0.899,64.514,-49.438,111.267,1
6.637772,0.078,-0.779,0.916,63.598,-49.072,112.976,1
6.644694,0.15,-0.804,0.959,58.227,-49.072,115.112,1
6.652432,0.243,-0.82,1.04,58.166,-49.194,118.041,1
6.661385,0.229,-0.816,1.118,61.096,-48.583,121.032,1
6.670603,0.207,-0.8,1.199,61.035,-47.058,124.023,1
6.67833,0.164,-0.761,1.252,63.964,-42.846,126.892,1
6.685696,0.145,-0.719,1.279,65.185,-40.527,129.333,1
6.694816,0.079,-0.693,1.292,67.626,-36.254,131.164,1
6.703636,0.028,-0.649,1.306,66.345,-33.752,132.385,1
6.712047,0.024,-0.63,1.304,65.612,-29.663,133.3,1
6.720008,0.067,-0.625,1.319,62.561,-26.245,134.155,1
6.728052,0.111,-0.62,1.335,59.02,-21.85,135.253,1
6.736073,0.132,-0.637,1.368,51.147,-17.089,136.474,1
6.744225,0.154,-0.625,1.398,45.227,-11.657,137.817,1
6.753034,0.161,-0.609,1.422,48.461,-7.446,139.099,1
6.760527,0.181,-0.608,1.42,53.283,-2.929,140.319,1
6.767591,0.238,-0.612,1.428,58.105,0.122,141.845,1
6.77489,0.261,-0.614,1.421,64.575,4.15,144.042,1
6.782089,0.279,-0.609,1.403,70.434,7.019,146.423,1
6.790796,0.295,-0.604,1.375,75.805,10.253,148.681,1
6.797645,0.29,-0.582,1.329,81.787,12.695,150.756,1
6.805727,0.281,-0.562,1.284,90.637,15.136,152.16,1
6.813489,0.315,-0.548,1.233,100.646,16.357,153.564,1
6.820647,0.353,-0.559,1.176,106.445,18.127,154.541,1
6.83044,0.361,-0.563,1.122,105.834,19.653,156.188,1
6.837198,0.389,-0.562,1.069,100.585,21.179,158.325,1
6.844647,0.392,-0.547,1.029,97.595,22.033,160.095,1
6.852809,0.363,-0.536,0.987,96.374,22.949,161.987,1
6.861125,0.372,-0.522,0.942,95.947,22.766,163.879,1
6.870669,0.364,-0.501,0.884,97.351,23.01,166.015,1
6.876536,0.372,-0.485,0.83,99.243,22.338,167.907,1
6.884298,0.386,-0.458,0.776,101.196,21.484,169.006,1
6.891721,0.413,-0.437,0.728,101.501,20.202,170.288,1
6.898911,0.43,-0.412,0.702,102.844,18.737,171.203,1
6.907154,0.44,-0.391,0.675,105.59,17.395,171.997,1
6.91688,0.373,-0.353,0.666,114.257,15.808,173.217,1
6.923707,0.429,-0.322,0.673,122.985,11.84,173.583,1
6.931466,0.385,-0.29,0.659,123.779,11.23,174.072,1
6.940127,0.362,-0.256,0.687,116.333,9.765,174.56,1
6.948023,0.356,-0.237,0.701,103.027,10.742,174.56,1
6.954689,0.334,-0.2,0.749,85.388,11.169,174.499,1
6.963513,0.348,-0.151,0.79,68.481,13.854,174.316,1
6.971786,0.382,-0.073,0.85,55.603,15.38,172.973,1
6.980614,0.411,-0.022,0.914,54.748,17.578,171.752,1
6.986332,0.406,0.048,0.981,64.086,19.409,169.372,1
6.993587,0.438,0.084,1.023,74.646,21.728,167.053,1
7.001334,0.458,0.092,1.048,76.538,24.108,165.527,1
7.010501,0.507,0.09,1.061,67.626,28.32,163.696,1
7.017885,0.572,0.103,1.087,54.26,32.714,162.597,1
7.025293,0.633,0.144,1.116,42.419,37.414,161.56,1
7.033924,0.671,0.204,1.153,38.574,41.748,160.278,1
7.042586,0.693,0.263,1.187,44.494,45.471,158.081,1
7.050537,0.691,0.335,1.25,60.302,48.645,156.127,1
7.057931,0.68,0.386,1.27,76.232,51.757,153.625,1
7.064854,0.612,0.458,1.28,86.364,55.725,151.184,1
7.073972,0.569,0.47,1.267,90.942,59.997,148.498,1
7.08186,0.553,0.493,1.247,84.289,66.772,144.531,1
7.089921,0.498,0.539,1.204,68.481,74.646,139.648,1
7.096764,0.461,0.573,1.163,59.387,82.275,134.582,1
7.105571,0.422,0.612,1.099,55.847,89.111,128.967,1
7.112906,0.384,0.619,0.99,56.03,96.435,122.863,1
7.120266,0.401,0.623,0.866,57.189,101.379,117.675,1
7.127961,0.427,0.636,0.763,62.683,104.37,112.976,1
7.135694,0.462,0.641,0.662,69.58,106.262,108.886,1
7.143618,0.485,0.63,0.572,77.453,107.482,105.163,1
7.15135,0.489,0.623,0.489,79.772,108.337,101.745,1
7.159922,0.499,0.621,0.416,76.416,109.313,98.205,1
7.166935,0.526,0.629,0.346,66.894,110.168,94.116,1
7.176155,0.573,0.653,0.287,59.814,111.45,89.355,1
7.184406,0.626,0.65,0.211,57.312,111.572,84.777,1
7.191707,0.668,0.632,0.16,55.48,112.365,81.237,1
7.19943,0.704,0.601,0.096,51.269,112.487,77.758,1
7.20645,0.74,0.57,0.066,45.166,114.501,74.951,1
7.213592,0.753,0.531,-0.028,39.489,113.159,71.594,1
7.222108,0.77,0.495,-0.04,39.428,113.342,68.481,1
7.229356,0.801,0.426,-0.105,38.879,111.816,66.284,1
7.237167,0.798,0.376,-0.143,35.278,112.182,64.392,1
7.246499,0.805,0.339,-0.192,28.137,111.938,62.744,1
7.254147,0.818,0.31,-0.196,21.789,112.182,61.523,1
7.26155,0.8,0.295,-0.234,19.592,111.206,60.974,1
7.270081,0.79,0.299,-0.234,20.446,109.863,60.913,1
7.278425,0.758,0.279,-0.285,22.033,108.398,61.584,1
7.28644,0.725,0.259,-0.312,23.742,107.238,63.293,1
7.293118,0.692,0.222,-0.367,22.155,105.834,66.04,1
7.301577,0.691,0.209,-0.375,20.446,105.957,68.786,1
7.309857,0.706,0.206,-0.409,22.705,105.834,71.96,1
7.317748,0.725,0.22,-0.413,33.935,105.346,76.416,1
7.328285,0.727,0.227,-0.436,50.354,104.614,80.505,1
7.335055,0.657,0.218,-0.452,70.861,104.431,85.998,1
7.34257,0.636,0.217,-0.498,81.97,103.637,90.942,1
7.351355,0.593,0.214,-0.542,83.679,103.332,96.74,1
7.358184,0.564,0.232,-0.599,76.11,102.844,100.585,1
7.365772,0.494,0.283,-0.649,67.321,101.379,103.576,1
7.374582,0.424,0.357,-0.697,60.791,99.67,105.163,1
7.382178,0.351,0.457,-0.727,61.035,96.923,105.773,1
7.391236,0.298,0.541,-0.754,69.335,93.139,104.919,1
7.398389,0.249,0.607,-0.743,85.632,89.172,104.003,1
7.406164,0.258,0.629,-0.742,104.37,84.777,102.905,1
7.415236,0.247,0.624,-0.719,111.999,81.604,102.05,1
7.422669,0.269,0.637,-0.725,107.727,79.772,101.989,1
7.430207,0.29,0.688,-0.728,96.13,78.002,101.806,1
7.437559,0.245,0.766,-0.743,85.51,77.148,100.83,1
7.445229,0.213,0.846,-0.763,78.918,74.829,99.426,1
7.452449,0.225,0.924,-0.767,80.932,73.242,97.045,1
7.460139,0.252,1.003,-0.77,99.426,69.702,93.811,1
7.468475,0.278,1.031,-0.751,125.976,65.002,90.82,1
7.476582,0.271,1.012,-0.769,147.705,61.218,87.951,1
7.485197,0.276,0.995,-0.753,156.738,56.823,85.876,1
7.491998,0.26,0.978,-0.755,154.113,54.321,84.167,1
7.500513,0.242,0.962,-0.738,135.803,51.33,82.519,1
7.507691,0.243,0.958,-0.734,111.694,50.17,80.749,1
7.515863,0.238,0.963,-0.713,84.655,48.583,78.918,1
7.523477,0.249,0.971,-0.7,60.546,47.79,76.66,1
7.530612,0.266,0.974,-0.683,40.832,45.41,74.584,1
7.540315,0.303,0.969,-0.655,29.296,44.494,72.326,1
7.548017,0.359,0.964,-0.641,26.245,41.687,69.946,1
7.557886,0.401,0.953,-0.625,36.804,39.306,69.03,1
7.565993,0.462,0.944,-0.608,49.438,34.79,68.115,1
7.572703,0.489,0.937,-0.614,60.668,32.653,67.382,1
7.581303,0.498,0.929,-0.608,61.218,30.334,66.955,1
7.589677,0.515,0.932,-0.603,53.527,30.456,66.833,1
7.598726,0.526,0.942,-0.596,39.062,30.273,66.772,1
7.605962,0.53,0.976,-0.578,19.531,31.738,65.795,1
7.613505,0.517,1.025,-0.559,4.272,32.47,64.208,1
7.622075,0.513,1.058,-0.545,-3.845,33.447,62.561,1
7.631376,0.508,1.081,-0.548,-12.023,33.935,60.302,1
7.638315,0.508,1.098,-0.536,-17.578,35.034,58.044,1
7.647154,0.508,1.118,-0.533,-20.202,35.156,55.358,1
7.657104,0.511,1.133,-0.527,-19.348,35.278,52.917,1
7.664153,0.512,1.14,-0.509,-18.188,35.766,49.987,1
7.671727,0.522,1.139,-0.506,-21.606,36.682,47.607,1
7.680708,0.555,1.176,-0.463,-16.967,36.315,44.982,1
7.688846,0.524,1.145,-0.488,-11.596,38.33,43.09,1
7.695867,0.549,1.112,-0.477,-22.521,39.428,41.259,1
7.704801,0.559,1.098,-0.48,-35.644,41.809,39.428,1
7.712167,0.575,1.095,-0.479,-47.912,43.762,37.78,1
7.720204,0.575,1.095,-0.475,-56.701,46.02,36.132,1
7.727011,0.567,1.111,-0.483,-59.509,46.997,33.691,1
7.736035,0.558,1.119,-0.484,-57.739,48.156,31.738,1
7.744589,0.547,1.12,-0.496,-55.725,48.278,28.991,1
7.753975,0.543,1.115,-0.504,-53.222,48.706,26.916,1
7.760744,0.529,1.112,-0.528,-49.743,47.973,24.475,1
7.768173,0.536,1.102,-0.537,-36.56,46.936,22.216,1
7.776764,0.541,1.075,-0.548,-30.7,45.532,20.202,1
7.785443,0.552,1.06,-0.569,-30.212,44.433,18.127,1
7.79213,0.557,1.045,-0.583,-29.663,43.395,16.235,1
7.801338,0.57,1.028,-0.586,-28.503,42.175,14.831,1
7.808561,0.583,1.007,-0.598,-27.709,40.344,13.244,1
7.817261,0.591,1.0,-0.598,-23.803,38.574,11.962,1
7.826131,0.593,0.986,-0.61,-16.479,36.01,10.375,1
7.835213,0.588,0.98,-0.619,-8.605,33.325,8.789,1
7.841764,0.594,0.961,-0.627,-2.258,30.822,7.507,1
7.849293,0.592,0.952,-0.625,5.615,28.076,6.408,1
7.857757,0.586,0.933,-0.626,13.732,25.451,5.187,1
7.865329,0.583,0.916,-0.614,22.766,22.705,4.15,1
7.873345,0.593,0.888,-0.607,29.113,20.202,2.868,1
7.88263,0.599,0.863,-0.594,34.362,18.798,1.953,1
7.890587,0.6,0.845,-0.589,36.437,17.395,0.854,1
7.898605,0.593,0.818,-0.575,35.583,16.784,-0.061,1
7.905417,0.599,0.801,-0.565,32.592,16.113,-1.464,1
7.914786,0.6,0.784,-0.555,30.273,16.052,-2.075,1
7.921838,0.609,0.771,-0.552,28.747,15.747,-2.929,1
7.930705,0.611,0.764,-0.546,26.794,15.686,-4.028,1
7.937511,0.599,0.758,-0.544,23.864,15.686,-5.004,1
7.945884,0.599,0.751,-0.538,20.812,15.808,-5.92,1
7.953025,0.592,0.744,-0.537,17.395,16.052,-6.713,1
7.960489,0.582,0.743,-0.532,15.075,15.686,-7.324,1
7.968182,0.569,0.749,-0.531,14.648,15.686,-8.3,1
7.97792,0.556,0.748,-0.526,17.028,15.075,-8.911,1
7.985391,0.551,0.752,-0.524,20.324,14.404,-9.46,1
7.992543,0.548,0.746,-0.521,23.132,13.671,-10.009,1
8.000689,0.546,0.736,-0.518,24.169,13.305,-10.009,1
8.007725,0.538,0.731,-0.516,23.925,13.122,-10.314,1
8.017207,0.528,0.73,-0.514,21.789,13.183,-10.314,1
8.024882,0.529,0.721,-0.508,18.005,13.305,-10.375,1
8.0327,0.526,0.72,-0.502,13.793,13.854,-10.131,1
8.03993,0.526,0.716,-0.496,10.803,14.282,-9.826,1
8.048677,0.53,0.714,-0.492,8.239,14.465,-9.094,1
8.056256,0.514,0.722,-0.493,6.286,14.648,-8.911,1
8.065615,0.507,0.728,-0.489,6.042,14.648,-8.483,1
8.073541,0.512,0.736,-0.489,6.225,14.343,-8.056,1
8.080518,0.51,0.745,-0.489,5.126,13.793,-7.751,1
8.088107,0.508,0.763,-0.486,6.042,13.427,-7.69,1
8.09625,0.504,0.776,-0.484,8.178,12.878,-7.751,1
8.105036,0.506,0.788,-0.484,10.498,12.451,-8.117,1
8.111545,0.506,0.797,-0.481,12.573,11.596,-8.361,1
8.1187,0.503,0.801,-0.478,13.732,11.413,-8.666,1
8.126973,0.5,0.809,-0.478,14.343,11.169,-9.155,1
8.134582,0.508,0.804,-0.473,15.869,10.864,-9.521,1
8.143268,0.503,0.803,-0.476,16.662,10.375,-10.192,1
8.15147,0.496,0.803,-0.478,17.089,10.07,-10.559,1
8.158554,0.494,0.807,-0.477,18.371,9.155,-10.925,1
8.167603,0.491,0.81,-0.483,19.897,8.422,-11.535,1
8.17474,0.491,0.813,-0.476,22.46,7.812,-11.84,1
8.183855,0.497,0.817,-0.477,26.489,7.08,-12.329,1
8.192938,0.504,0.812,-0.479,29.785,6.347,-12.573,1
8.201381,0.517,0.782,-0.48,31.616,5.737,-12.023,1
8.208077,0.567,0.789,-0.471,29.907,5.187,-11.901,1
8.218709,0.547,0.797,-0.451,37.658,5.249,-12.207,1
8.225811,0.507,0.795,-0.467,42.175,4.699,-12.268,1
8.233919,0.525,0.795,-0.476,40.405,4.699,-12.451,1
8.241985,0.541,0.801,-0.469,34.912,4.699,-12.756,1
8.250929,0.537,0.806,-0.472,30.883,5.065,-12.939,1
8.26009,0.536,0.799,-0.457,27.343,5.126,-13.0,1
8.267279,0.539,0.8,-0.459,25.39,5.31,-13.0,1
8.275833,0.542,0.798,-0.449,23.498,5.676,-13.061,1
8.283767,0.541,0.796,-0.452,20.996,6.225,-13.183,1
8.292111,0.537,0.801,-0.446,16.845,6.591,-13.366,1
8.299439,0.54,0.813,-0.442,12.512,7.629,-13.244,1
8.308453,0.543,0.82,-0.44,7.446,8.3,-13.305,1
8.315686,0.546,0.833,-0.441,2.868,9.277,-13.427,1
8.322791,0.555,0.838,-0.441,-0.915,9.887,-13.854,1
8.330673,0.557,0.848,-0.44,-3.295,10.559,-13.977,1
8.339468,0.565,0.85,-0.437,-4.76,11.047,-14.587,1
8.347569,0.568,0.858,-0.439,-4.699,11.718,-15.014,1
8.357096,0.567,0.873,-0.433,-3.967,11.901,-15.808,1
8.364808,0.571,0.881,-0.436,-4.821,12.756,-16.296,1
8.37283,0.575,0.884,-0.439,-7.446,13.549,-17.333,1
8.379952,0.592,0.894,-0.441,-12.268,14.648,-18.188,1
8.389141,0.601,0.907,-0.442,-17.272,15.808,-19.165,1
8.397458,0.618,0.918,-0.45,-22.521,17.211,-20.263,1
8.404491,0.642,0.937,-0.46,-27.099,17.883,-21.667,1
8.413687,0.668,0.952,-0.469,-29.296,18.371,-23.254,1
8.422708,0.699,0.976,-0.478,-29.785,18.737,-25.024,1
8.43005,0.714,0.992,-0.491,-28.442,18.737,-26.489,1
8.438911,0.727,1.022,-0.492,-25.451,18.798,-28.198,1
8.446702,0.736,1.031,-0.497,-21.789,18.615,-30.212,1
8.454843,0.771,1.018,-0.504,-24.78,18.92,-32.592,1
8.462698,0.767,1.02,-0.503,-36.865,20.568,-34.484,1
8.469894,0.717,1.055,-0.515,-42.846,21.301,-36.437,1
8.478678,0.707,1.085,-0.507,-43.64,22.399,-38.879,1
8.486552,0.733,1.096,-0.53,-44.128,22.277,-42.053,1
8.494345,0.745,1.106,-0.535,-44.372,22.949,-44.921,1
8.502885,0.77,1.111,-0.557,-47.058,22.155,-48.583,1
8.510293,0.766,1.125,-0.558,-46.813,21.85,-51.635,1
8.519119,0.785,1.15,-0.566,-38.696,20.019,-55.114,1
8.526512,0.841,1.156,-0.565,-27.038,18.188,-58.288,1
8.535084,0.881,1.156,-0.572,-15.38,15.747,-61.95,1
8.542556,0.886,1.172,-0.563,-5.31,13.977,-64.758,1
8.549568,0.886,1.211,-0.548,12.939,11.779,-67.687,1
8.557945,0.851,1.211,-0.572,22.888,10.192,-70.922,1
8.565603,0.851,1.225,-0.552,28.381,7.995,-74.829,1
8.574757,0.906,1.106,-0.596,13.366,8.178,-78.063,1
8.580818,0.843,1.073,-0.583,-18.066,8.789,-78.613,1
8.589873,0.822,1.127,-0.54,-34.729,7.629,-82.458,1
8.59877,0.77,1.184,-0.555,-38.757,8.666,-87.402,1
8.608207,0.725,1.166,-0.516,-33.386,5.371,-92.041,1
8.615093,0.69,1.43,-0.504,-16.113,9.643,-92.102,1
8.623564,0.846,1.822,-0.874,7.08,1.953,-98.937,1
8.631157,0.957,1.582,-0.63,37.536,-7.019,-109.558,1
8.638318,0.809,1.232,-0.64,35.156,-5.92,-114.99,1
8.645602,0.68,1.091,-0.531,9.704,-8.422,-120.544,1
8.654572,0.681,1.052,-0.517,-10.437,-2.502,-122.985,1
8.663588,0.626,0.936,-0.494,-28.625,-9.582,-125.915,1
8.671864,0.744,0.922,-0.414,-28.198,-5.126,-128.051,1
8.679025,0.663,0.943,-0.421,-12.695,-13.244,-130.92,1
8.685776,0.644,0.943,-0.396,29.907,-13.977,-132.629,1
8.694949,0.646,0.949,-0.413,70.129,-22.583,-136.352,1
8.703019,0.674,0.88,-0.39,114.318,-23.437,-138.427,1
8.71205,0.652,0.812,-0.389,134.582,-28.503,-141.113,1
8.720203,0.62,0.76,-0.383,140.197,-27.038,-141.906,1
8.727299,0.522,0.719,-0.31,140.625,-29.663,-142.761,1
8.737044,0.655,0.618,-0.353,128.356,-28.686,-143.066,1
8.744055,0.523,0.618,-0.243,105.407,-25.695,-143.066,1
8.751485,0.494,0.552,-0.284,80.566,-26.306,-141.906,1
8.760962,0.482,0.552,-0.192,58.776,-23.62,-140.625,1
8.768067,0.545,0.496,-0.191,39.489,-23.498,-138.366,1
8.777081,0.528,0.489,-0.125,21.911,-20.874,-135.742,1
8.784858,0.535,0.469,-0.132,6.958,-20.568,-133.544,1
8.792762,0.487,0.482,-0.086,-4.882,-18.066,-129.76,1
8.799845,0.53,0.523,-0.135,-12.207,-16.967,-127.563,1
8.808846,0.439,0.567,-0.062,-9.826,-13.916,-127.624,1
8.816485,0.354,0.621,-0.099,-7.263,-11.901,-128.356,1
8.824804,0.315,0.649,-0.051,1.953,-9.643,-129.272,1
8.833904,0.319,0.698,-0.071,18.798,-7.873,-130.798,1
8.842346,0.319,0.794,-0.057,47.912,-6.835,-134.033,1
8.850289,0.335,0.877,-0.062,88.562,-6.713,-138.244,1
8.859164,0.361,0.914,-0.076,127.014,-5.493,-143.432,1
8.867088,0.311,0.94,-0.102,153.015,-3.173,-148.01,1
8.874013,0.277,0.957,-0.125,162.658,2.502,-153.686,1
8.881902,0.287,0.995,-0.134,156.066,8.544,-157.958,1
8.890369,0.309,1.056,-0.115,152.221,14.465,-161.987,1
8.899097,0.323,1.107,-0.105,158.63,20.568,-167.053,1
8.906967,0.392,1.113,-0.105,158.691,25.512,-171.081,1
8.914834,0.469,1.105,-0.117,145.69,30.212,-174.56,1
8.923687,0.528,1.12,-0.112,121.765,34.729,-178.283,1
8.931332,0.597,1.139,-0.104,100.708,37.17,-181.945,1
8.939636,0.565,1.158,-0.096,91.796,37.292,-185.302,1
8.947348,0.538,1.172,-0.073,96.74,36.804,-189.086,1
8.956575,0.583,1.164,-0.066,111.145,36.193,-191.833,1
8.964189,0.641,1.149,-0.075,131.469,36.499,-194.58,1
8.973303,0.688,1.117,-0.075,147.949,38.208,-196.594,1
8.979965,0.701,1.051,-0.074,156.311,42.724,-198.73,1
8.988653,0.779,0.981,-0.066,155.09,50.354,-200.805,1
8.99644,0.833,0.924,-0.083,140.808,59.448,-202.758,1
9.004397,0.732,0.901,-0.097,113.403,69.152,-204.895,1
9.013215,0.535,0.93,-0.1,77.331,79.895,-207.58,1
9.020013,0.343,0.98,-0.073,53.466,86.669,-210.754,1
9.02808,0.186,1.014,-0.074,40.222,91.735,-214.233,1
9.037182,0.054,1.003,-0.056,35.4,94.299,-218.505,1
9.044562,-0.002,0.943,-0.052,38.879,97.656,-223.632,1
9.053419,-0.065,0.868,-0.043,46.386,100.891,-228.149,1
9.062687,-0.192,0.756,-0.029,54.077,105.407,-231.933,1
9.070357,-0.298,0.663,0.01,62.866,110.717,-234.191,1
9.077827,-0.397,0.568,0.02,68.603,116.943,-235.29,1
9.085625,-0.506,0.463,0.023,67.26,125.915,-235.656,1
9.093301,-0.631,0.337,-0.011,55.725,133.178,-235.534,1
9.101871,-0.756,0.243,-0.043,37.109,141.784,-234.497,1
9.10955,-0.81,0.163,-0.041,8.422,149.597,-233.032,1
9.117106,-0.823,0.079,-0.062,-5.065,156.372,-231.384,1
9.126208,-0.947,0.019,-0.064,-8.117,159.423,-229.614,1
9.13403,-0.991,-0.048,-0.092,5.249,164.855,-226.318,1
9.143471,-0.998,-0.166,-0.128,25.695,168.579,-222.717,1
9.151756,-1.177,-0.296,-0.204,31.066,171.997,-217.956,1
9.161073,-1.287,-0.433,-0.256,29.846,177.368,-210.754,1
9.168447,-1.408,-0.557,-0.308,25.878,180.114,-203.369,1
9.17735,-1.48,-0.719,-0.365,14.526,183.349,-194.091,1
9.185119,-1.482,-0.848,-0.421,12.084,184.082,-183.471,1
9.193663,-1.474,-0.978,-0.465,10.864,185.424,-173.828,1
9.202189,-1.474,-1.067,-0.54,14.953,184.204,-162.78,1
9.209638,-1.556,-1.109,-0.563,44.738,181.518,-148.376,1
9.217447,-1.683,-1.112,-0.617,99.975,176.452,-132.812,1
9.227989,-1.747,-1.191,-0.64,154.907,174.743,-117.431,1
9.235727,-1.817,-1.323,-0.742,190.002,171.691,-96.984,1
9.245398,-1.863,-1.454,-0.837,204.101,174.011,-73.242,1
9.25378,-1.929,-1.547,-0.9,208.007,173.522,-48.034,1
9.261257,-1.944,-1.609,-0.953,210.51,173.706,-21.362,1
9.270162,-1.934,-1.688,-1.019,198.12,172.058,2.807,1
9.277716,-1.991,-1.753,-1.057,175.048,171.813,28.198,1
9.286022,-2.111,-1.808,-1.119,141.174,169.372,57.25,1
9.294443,-2.234,-1.85,-1.12,104.492,167.846,87.341,1
9.3021,-2.403,-1.84,-1.101,91.247,165.649,112.854,1
9.309888,-2.606,-1.875,-1.075,64.392,162.841,145.812,1
9.319703,-2.828,-1.84,-1.048,55.358,160.522,175.353,1
9.327206,-3.134,-1.782,-0.987,71.838,155.944,210.815,1
9.335109,-3.482,-1.708,-0.99,96.74,150.878,243.835,1
9.343568,-3.84,-1.769,-1.007,111.206,144.836,283.508,1
9.351661,-4.151,-1.775,-1.028,103.637,141.357,320.434,1
9.359551,-4.601,-1.787,-1.038,90.27,136.901,364.562,1
9.368137,-5.003,-1.78,-1.061,74.768,134.643,404.479,1
9.375761,-5.583,-1.713,-1.051,74.951,131.652,445.434,1
9.384673,-6.253,-1.738,-1.093,70.19,127.014,497.07,1
9.392869,-6.867,-1.709,-1.145,68.115,124.755,544.616,1
9.400125,-7.832,-1.7,-1.196,77.88,118.469,603.942,1
9.407608,-8.839,-1.674,-1.271,104.858,111.083,658.813,1
9.416305,-9.985,-1.679,-1.342,138.916,98.205,716.003,1
9.423103,-11.224,-1.699,-1.444,169.494,82.214,777.038,1
9.430946,-12.869,-1.651,-1.546,191.223,59.997,840.759,1
9.438834,-14.464,-1.477,-1.612,232.849,27.526,917.236,1
9.446424,-15.999,-1.215,-1.673,296.264,-15.014,982.91,1
9.455465,-15.999,-0.899,-1.681,376.22,-71.96,1046.997,1
9.462882,-15.999,-0.549,-1.67,453.674,-145.996,1106.445,1
9.470264,-15.999,-0.042,-1.527,514.038,-250.793,1167.907,1
9.478847,-15.999,0.527,-1.287,570.312,-350.83,1208.313,1
9.486654,-15.999,1.199,-0.99,617.736,-465.332,1233.764,1
9.495821,-15.999,1.725,-0.626,642.211,-604.064,1242.309,1
9.504598,-15.999,2.273,0.029,633.117,-743.225,1228.393,1
9.512349,-15.999,2.875,0.641,628.234,-863.22,1197.57,1
9.519515,-15.999,3.402,1.528,662.17,-1002.624,1139.282,1
9.528341,-15.999,3.648,2.232,697.387,-1127.99,1070.19,1
9.537276,-15.999,3.675,3.279,724.182,-1264.709,973.815,1
9.543904,-15.999,3.458,4.261,712.463,-1355.468,886.352,1
9.552985,-15.999,3.649,5.06,695.068,-1425.659,793.762,1
9.561219,-15.999,4.084,5.724,789.001,-1480.163,690.856,1
9.569487,-15.999,4.617,6.037,958.496,-1555.297,532.165,1
9.578061,-15.999,5.824,6.248,1329.711,-1605.529,297.851,1
9.586004,-15.999,5.58,5.576,1701.293,-1641.052,-4.333,1
9.593757,-15.999,3.591,4.699,1766.174,-1528.32,-393.249,1
9.603063,-15.999,1.624,4.508,1441.833,-1347.045,-645.507,1
9.612185,-15.999,0.731,3.838,981.75,-1082.58,-831.848,1
9.619666,-15.999,0.43,3.62,775.39,-886.169,-908.935,1
9.62756,-15.999,0.32,2.647,723.388,-779.418,-956.603,1
9.63637,-15.999,0.292,2.598,739.196,-654.907,-993.469,1
9.643492,-15.999,-0.032,1.745,790.222,-549.804,-1022.033,1
9.652429,-15.999,-0.737,1.533,829.894,-399.291,-1027.832,1
9.661366,-15.999,-1.671,0.935,743.408,-290.527,-1011.474,1
9.668987,-14.244,-2.451,0.916,594.055,-160.461,-964.965,1
9.677862,-12.336,-2.797,0.845,466.43,-78.857,-906.86,1
9.686511,-11.391,-2.734,1.049,441.284,-10.742,-847.473,1
9.693876,-11.035,-2.673,1.102,481.811,38.696,-774.475,1
9.703408,-10.341,-2.796,0.973,525.207,95.397,-706.542,1
9.7103,-9.278,-2.944,0.588,506.835,138.732,-639.587,1
9.717211,-8.364,-2.998,0.248,410.339,189.453,-565.856,1
9.725263,-7.462,-2.872,0.0,325.439,215.209,-508.544,1
9.732826,-6.496,-2.692,-0.218,284.24,229.98,-454.833,1
9.742591,-5.711,-2.432,-0.444,267.944,235.229,-396.911,1
9.7491,-5.178,-2.21,-0.597,260.131,235.229,-350.646,1
9.758645,-4.691,-1.979,-0.707,257.141,231.323,-308.044,1
9.767689,-4.156,-1.72,-0.791,261.474,223.754,-260.925,1
9.774072,-3.691,-1.527,-0.855,264.099,213.5,-217.407,1
9.783997,-3.361,-1.41,-0.891,257.629,204.772,-183.044,1
9.790975,-3.084,-1.299,-0.925,241.516,193.786,-151.672,1
9.800129,-2.696,-1.187,-0.935,208.19,181.396,-118.774,1
9.808588,-2.367,-1.103,-0.908,168.579,167.663,-90.454,1
9.817384,-1.954,-1.03,-0.868,142.15,153.686,-69.58,1
9.825901,-1.677,-0.97,-0.78,132.812,136.962,-47.729,1
9.833426,-1.405,-0.918,-0.691,140.747,119.873,-27.465,1
9.841757,-1.239,-0.865,-0.596,152.404,106.628,-10.803,1
9.849148,-1.069,-0.807,-0.523,159.912,94.177,3.723,1
9.859841,-0.928,-0.771,-0.45,158.081,82.397,19.714,1
9.867263,-0.793,-0.716,-0.403,145.69,71.655,33.569,1
9.87564,-0.708,-0.652,-0.357,134.948,63.049,43.823,1
9.882643,-0.637,-0.584,-0.311,126.159,52.612,53.649,1
9.89201,-0.602,-0.541,-0.274,121.826,42.419,62.255,1
9.899651,-0.523,-0.496,-0.225,124.45,31.555,68.542,1
9.908361,-0.459,-0.478,-0.163,127.99,22.644,73.181,1
9.915652,-0.42,-0.457,-0.11,129.089,13.488,77.575,1
9.925756,-0.436,-0.432,-0.049,129.455,6.225,80.993,1
9.933865,-0.422,-0.401,0.001,133.605,-2.136,84.228,1
9.941486,-0.409,-0.378,0.057,138.488,-10.559,86.364,1
9.948814,-0.399,-0.366,0.077,142.211,-17.089,87.829,1
9.956415,-0.35,-0.372,0.099,141.418,-23.437,88.745,1
9.96563,-0.3,-0.387,0.114,136.535,-28.808,89.416,1
9.975641,-0.275,-0.4,0.151,126.037,-34.729,89.843,1
9.982821,-0.249,-0.421,0.18,109.924,-40.588,90.148,1
9.992129,-0.245,-0.409,0.217,100.036,-43.884,90.393,1
10.000115,-0.223,-0.41,0.259,90.698,-48.4,90.087,1
