timestamp_s,ax,ay,az,gx,gy,gz,label
0.006634,-0.559,0.747,-0.099,17.333,-14.404,-1.464,1
0.013368,-0.559,0.746,-0.099,15.136,-14.099,-1.098,1
0.021662,-0.567,0.743,-0.1,11.047,-13.854,-0.732,1
0.029635,-0.558,0.746,-0.091,7.202,-13.854,-0.305,1
0.036133,-0.55,0.744,-0.091,3.845,-13.366,0.61,1
0.044207,-0.555,0.757,-0.08,4.821,-13.183,0.915,1
0.052144,-0.574,0.768,-0.077,7.812,-12.939,1.159,1
0.059019,-0.567,0.772,-0.066,13.244,-13.183,1.403,1
0.067451,-0.56,0.77,-0.058,20.935,-13.61,1.953,1
0.075914,-0.546,0.769,-0.055,30.761,-13.793,2.624,1
0.08328,-0.541,0.758,-0.051,39.001,-13.977,3.051,1
0.091731,-0.529,0.749,-0.049,44.677,-13.916,3.784,1
0.098442,-0.521,0.741,-0.048,45.41,-13.305,4.394,1
0.106656,-0.506,0.73,-0.049,41.015,-12.512,5.249,1
0.113409,-0.503,0.726,-0.043,32.165,-11.169,5.981,1
0.1217,-0.493,0.729,-0.04,20.629,-9.277,6.896,1
0.128411,-0.499,0.734,-0.037,7.69,-7.69,7.385,1
0.136385,-0.505,0.748,-0.032,-3.906,-5.859,7.751,1
0.145468,-0.52,0.763,-0.024,-12.145,-4.333,8.117,1
0.153629,-0.526,0.782,-0.022,-15.624,-3.051,8.789,1
0.161848,-0.52,0.794,-0.018,-14.038,-2.502,9.155,1
0.169885,-0.52,0.804,-0.021,-9.033,-2.014,9.826,1
0.176437,-0.522,0.807,-0.021,-5.004,-1.586,9.887,1
0.184384,-0.527,0.806,-0.028,-2.685,-1.159,10.009,1
0.191458,-0.532,0.805,-0.032,-3.234,-0.732,10.192,1
0.201218,-0.525,0.807,-0.031,-5.432,-0.061,10.375,1
0.207635,-0.523,0.811,-0.036,-9.582,1.281,10.559,1
0.215166,-0.535,0.813,-0.035,-14.099,2.075,10.62,1
0.223398,-0.534,0.821,-0.035,-18.798,2.685,10.925,1
0.231289,-0.529,0.834,-0.034,-21.179,3.417,10.925,1
0.239597,-0.535,0.844,-0.028,-20.812,3.967,11.047,1
0.246485,-0.535,0.863,-0.022,-16.296,3.784,11.047,1
0.254559,-0.544,0.879,-0.025,-10.681,3.662,11.108,1
0.262394,-0.543,0.905,-0.024,-2.014,3.173,10.742,1
0.269182,-0.534,0.924,-0.027,7.812,2.502,10.62,1
0.27739,-0.52,0.932,-0.029,17.333,1.647,10.314,1
0.285764,-0.518,0.942,-0.028,25.024,1.037,10.07,1
0.293229,-0.505,0.956,-0.029,28.686,0.366,9.765,1
0.299536,-0.511,0.937,-0.036,25.207,1.159,10.07,1
0.307713,-0.474,0.96,-0.043,18.92,1.464,9.582,1
0.315611,-0.489,0.983,-0.036,8.422,2.502,9.582,1
0.322519,-0.489,1.018,-0.045,-2.502,4.211,8.789,1
0.330213,-0.498,1.058,-0.039,-11.718,5.187,7.934,1
0.338243,-0.503,1.103,-0.055,-16.296,6.164,6.835,1
0.34659,-0.504,1.145,-0.057,-16.967,6.225,5.249,1
0.353219,-0.497,1.199,-0.061,-11.901,6.53,3.295,1
0.36175,-0.503,1.252,-0.07,-2.258,5.493,1.098,1
0.368792,-0.515,1.284,-0.077,7.385,5.187,-0.793,1
0.376832,-0.47,1.303,-0.088,12.695,4.882,-3.356,1
0.384628,-0.437,1.316,-0.097,11.596,5.493,-5.31,1
0.391855,-0.346,1.343,-0.12,-3.173,7.08,-5.615,1
0.399839,-0.349,1.353,-0.117,-22.277,8.728,-9.826,1
0.40794,-0.4,1.413,-0.137,-36.499,11.413,-12.695,1
0.416357,-0.397,1.479,-0.14,-44.189,10.864,-16.113,1
0.424153,-0.404,1.533,-0.14,-41.992,11.718,-19.592,1
0.430783,-0.42,1.59,-0.172,-35.888,9.887,-23.62,1
0.438619,-0.433,1.626,-0.175,-24.169,8.239,-27.465,1
0.447089,-0.42,1.646,-0.202,-7.873,5.31,-31.372,1
0.453836,-0.423,1.649,-0.21,9.033,2.136,-35.217,1
0.461907,-0.41,1.672,-0.223,27.16,-0.915,-39.001,1
0.470119,-0.421,1.695,-0.235,35.949,-3.723,-42.541,1
0.47834,-0.415,1.722,-0.244,37.841,-4.272,-46.325,1
0.484837,-0.417,1.76,-0.255,31.921,-5.31,-50.476,1
0.493229,-0.435,1.803,-0.26,19.104,-4.699,-55.419,1
0.500186,-0.472,1.87,-0.281,0.854,-3.967,-61.035,1
0.508403,-0.494,1.959,-0.302,-16.723,-3.479,-67.382,1
0.516847,-0.538,2.047,-0.332,-28.076,-3.845,-74.523,1
0.525151,-0.597,2.148,-0.362,-28.625,-7.812,-83.74,1
0.531832,-0.591,2.217,-0.379,-9.887,-13.549,-90.759,1
0.54045,-0.62,2.307,-0.384,30.883,-21.301,-99.548,1
0.547103,-0.691,2.36,-0.388,85.266,-30.334,-107.788,1
0.555231,-0.741,2.365,-0.387,138.977,-38.146,-116.882,1
0.563324,-0.773,2.335,-0.378,177.551,-43.395,-125.549,1
0.569937,-0.795,2.257,-0.341,195.373,-45.837,-134.277,1
0.577966,-0.784,2.162,-0.294,192.504,-44.433,-142.211,1
0.586715,-0.74,2.078,-0.248,175.415,-41.137,-149.169,1
0.593072,-0.672,1.947,-0.196,143.31,-34.667,-155.578,1
0.600768,-0.603,1.843,-0.162,107.788,-29.235,-159.973,1
0.608966,-0.565,1.754,-0.138,70.495,-23.376,-163.391,1
0.616886,-0.568,1.691,-0.116,38.635,-18.92,-165.954,1
0.62419,-0.598,1.668,-0.094,18.981,-15.747,-168.457,1
0.632245,-0.612,1.644,-0.094,11.657,-14.831,-170.654,1
0.638719,-0.622,1.615,-0.091,10.986,-14.282,-172.424,1
0.647046,-0.633,1.585,-0.101,11.779,-14.587,-174.255,1
0.654832,-0.638,1.542,-0.098,10.07,-15.075,-175.903,1
0.663339,-0.638,1.497,-0.094,1.831,-14.77,-176.94,1
0.670258,-0.648,1.446,-0.094,-16.113,-13.977,-177.917,1
0.678827,-0.644,1.413,-0.077,-39.611,-13.122,-178.771,1
0.686799,-0.636,1.379,-0.071,-66.955,-12.573,-179.504,1
0.693474,-0.643,1.356,-0.073,-89.721,-12.695,-179.748,1
0.701392,-0.646,1.351,-0.072,-106.567,-13.61,-179.931,1
0.709207,-0.654,1.346,-0.084,-113.403,-15.991,-179.87,1
0.717014,-0.661,1.341,-0.089,-110.534,-19.775,-179.748,1
0.723865,-0.676,1.331,-0.093,-102.355,-23.315,-179.443,1
0.73238,-0.71,1.322,-0.11,-96.13,-26.489,-178.71,1
0.739782,-0.704,1.345,-0.112,-92.59,-30.151,-179.199,1
0.747889,-0.717,1.281,-0.134,-91.857,-32.531,-179.138,1
0.754435,-0.626,1.285,-0.134,-100.646,-35.461,-177.612,1
0.762145,-0.608,1.057,-0.157,-121.215,-37.841,-175.537,1
0.770385,-0.541,1.108,-0.152,-149.902,-37.109,-176.025,1
0.77879,-0.626,1.049,-0.13,-183.715,-40.466,-173.095,1
0.787287,-0.526,0.98,-0.127,-201.721,-41.015,-170.227,1
0.795213,-0.515,0.947,-0.097,-210.449,-45.288,-167.541,1
0.803957,-0.557,0.859,-0.095,-205.993,-47.79,-163.085,1
0.810662,-0.556,0.796,-0.084,-197.753,-52.246,-160.156,1
0.818966,-0.567,0.722,-0.074,-190.246,-53.894,-155.639,1
0.826824,-0.56,0.72,-0.07,-178.955,-52.673,-152.587,1
0.833819,-0.469,0.73,-0.253,-164.733,-52.978,-155.456,1
0.842177,-0.476,0.663,-0.132,-149.78,-57.495,-159.179,1
0.849307,-0.5,0.551,-0.172,-129.15,-54.26,-157.714,1
0.857452,-0.547,0.498,-0.148,-111.328,-59.875,-157.287,1
0.865224,-0.527,0.413,-0.126,-81.176,-59.448,-155.273,1
0.873954,-0.48,0.35,-0.103,-39.062,-64.086,-152.832,1
0.880431,-0.389,0.268,-0.113,3.356,-64.941,-149.841,1
0.888235,-0.348,0.187,-0.135,38.818,-68.237,-146.057,1
0.89532,-0.367,0.093,-0.179,73.486,-70.617,-140.014,1
0.903521,-0.323,0.13,-0.119,107.116,-71.533,-136.413,1
0.910607,-0.258,0.022,-0.145,130.065,-65.307,-131.774,1
0.9186,-0.141,-0.02,-0.169,127.197,-61.096,-126.892,1
0.927386,-0.031,-0.082,-0.217,99.731,-51.513,-120.727,1
0.935848,0.153,-0.054,-0.211,49.682,-48.522,-111.511,1
0.942385,0.397,-0.02,-0.176,15.075,-38.94,-104.064,1
0.951023,0.513,-0.137,-0.164,-41.259,-37.048,-92.529,1
0.959729,0.487,0.051,-0.166,-108.581,-23.742,-82.519,1
0.966798,0.513,0.23,-0.156,-161.743,-24.902,-77.148,1
0.975002,0.491,0.391,-0.13,-190.551,-18.798,-71.899,1
0.983462,0.571,0.56,-0.186,-213.623,-21.85,-68.359,1
0.990057,0.687,0.687,-0.212,-226.562,-22.827,-64.453,1
0.998704,0.737,0.849,-0.234,-222.656,-25.939,-62.377,1
1.005282,0.742,0.977,-0.252,-203.369,-28.259,-61.218,1
1.013314,0.785,1.103,-0.303,-183.593,-30.212,-61.279,1
1.021972,0.762,1.229,-0.354,-172.668,-32.531,-63.232,1
1.028853,0.696,1.33,-0.379,-173.278,-34.667,-65.246,1
1.035381,0.656,1.391,-0.423,-178.1,-37.109,-68.298,1
1.042441,0.62,1.468,-0.435,-183.044,-38.757,-71.044,1
1.051826,0.591,1.51,-0.468,-189.331,-41.076,-74.646,1
1.058495,0.549,1.553,-0.486,-196.044,-44.921,-77.88,1
1.065476,0.54,1.583,-0.533,-194.396,-47.912,-83.251,1
1.074276,0.468,1.586,-0.535,-188.598,-53.833,-88.134,1
1.081168,0.402,1.555,-0.574,-181.03,-57.8,-92.712,1
1.087903,0.413,1.514,-0.591,-176.208,-64.392,-97.656,1
1.095793,0.346,1.465,-0.571,-174.987,-69.213,-101.806,1
1.10437,0.302,1.4,-0.567,-175.964,-74.401,-106.262,1
1.11146,0.28,1.305,-0.513,-179.138,-79.04,-110.717,1
1.119262,0.226,1.224,-0.461,-184.265,-83.801,-115.234,1
1.126269,0.207,1.145,-0.407,-184.875,-87.402,-118.286,1
1.135288,0.187,1.063,-0.339,-180.297,-91.735,-121.704,1
1.143693,0.163,0.958,-0.285,-169.372,-96.679,-124.572,1
1.150247,0.173,0.85,-0.225,-159.301,-100.83,-126.342,1
1.159012,0.166,0.744,-0.169,-150.817,-104.919,-128.784,1
1.16657,0.074,0.641,-0.121,-147.705,-107.116,-129.76,1
1.17532,0.058,0.549,-0.072,-145.202,-109.252,-130.432,1
1.18259,-0.042,0.452,-0.007,-138.854,-112.609,-130.615,1
1.19082,0.028,0.357,0.01,-118.591,-114.685,-129.394,1
1.197899,-0.015,0.269,0.041,-97.351,-118.896,-128.906,1
1.206288,-0.05,0.179,0.059,-74.951,-121.52,-127.38,1
1.213285,-0.091,0.09,0.075,-54.077,-124.328,-126.098,1
1.22031,-0.108,0.0,0.083,-37.109,-126.22,-124.572,1
1.228211,-0.132,-0.071,0.083,-27.282,-126.77,-122.192,1
1.237099,-0.102,-0.153,0.056,-27.709,-126.403,-119.934,1
1.244127,-0.071,-0.224,0.029,-39.672,-126.647,-117.675,1
1.254039,-0.139,-0.283,0.027,-65.368,-125.671,-114.562,1
1.260977,-0.194,-0.315,0.03,-88.989,-125.488,-110.656,1
1.269039,-0.261,-0.329,0.015,-105.041,-126.281,-105.712,1
1.277803,-0.184,-0.34,0.009,-104.003,-131.164,-102.661,1
1.284413,-0.242,-0.379,0.038,-103.393,-133.911,-98.51,1
1.292355,-0.251,-0.421,0.011,-102.6,-139.404,-93.994,1
1.300591,-0.322,-0.458,0.039,-103.82,-142.272,-89.111,1
1.310614,-0.363,-0.505,0.0,-108.215,-146.545,-84.228,1
1.318341,-0.41,-0.535,0.022,-112.915,-151.184,-78.43,1
1.325155,-0.463,-0.572,-0.013,-117.919,-156.066,-72.692,1
1.333884,-0.542,-0.601,-0.008,-125.793,-161.56,-65.49,1
1.341747,-0.616,-0.626,-0.027,-131.408,-166.87,-58.471,1
1.350065,-0.674,-0.641,-0.033,-125.366,-174.255,-49.438,1
1.358213,-0.76,-0.685,-0.069,-112.915,-182.373,-41.503,1
1.365353,-0.804,-0.758,-0.068,-95.947,-190.978,-33.02,1
1.372462,-0.856,-0.831,-0.067,-79.711,-198.303,-24.23,1
1.382009,-0.925,-0.939,-0.093,-70.739,-205.81,-15.136,1
1.389652,-0.974,-1.027,-0.101,-71.166,-212.951,-3.845,1
1.396426,-1.108,-1.124,-0.134,-86.547,-220.092,7.263,1
1.404744,-1.216,-1.097,-0.09,-96.984,-225.524,19.348,1
1.412823,-1.355,-1.16,-0.131,-99.731,-235.595,32.836,1
1.421327,-1.505,-1.277,-0.074,-104.431,-243.896,50.537,1
1.429665,-1.636,-1.418,-0.057,-114.807,-253.112,68.237,1
1.436554,-1.745,-1.489,0.075,-128.112,-260.192,90.454,1
1.44476,-1.857,-1.533,0.145,-118.286,-267.578,111.511,1
1.452365,-2.174,-1.624,0.282,-106.567,-273.498,133.544,1
1.45932,-2.285,-1.745,0.347,-86.853,-278.991,158.264,1
1.466837,-2.618,-1.88,0.471,-87.036,-285.034,182.678,1
1.47486,-2.851,-1.975,0.597,-78.918,-286.987,209.96,1
1.482841,-3.192,-2.093,0.712,-77.087,-291.564,237.609,1
1.489573,-3.519,-2.243,0.916,-84.899,-293.457,268.371,1
1.497773,-3.928,-2.374,1.108,-102.905,-292.053,301.696,1
1.504533,-4.409,-2.476,1.354,-123.291,-287.963,337.585,1
1.512493,-4.949,-2.553,1.608,-138.671,-280.517,376.037,1
1.52071,-5.464,-2.63,1.878,-148.62,-269.653,416.625,1
1.527672,-6.13,-2.698,2.179,-162.658,-254.333,459.472,1
1.534675,-6.86,-2.72,2.48,-176.513,-232.421,504.943,1
1.542646,-7.589,-2.719,2.776,-186.401,-208.312,551.269,1
1.550662,-8.312,-2.719,3.094,-195.617,-175.72,599.182,1
1.558033,-9.105,-2.652,3.342,-214.05,-137.329,648.193,1
1.566479,-9.984,-2.491,3.55,-236.267,-89.66,698.242,1
1.573474,-11.012,-2.212,3.627,-264.892,-35.095,748.535,1
1.580959,-12.175,-1.799,3.602,-296.875,28.076,796.813,1
1.589094,-13.401,-1.27,3.411,-325.683,96.252,841.064,1
1.596137,-14.617,-0.656,3.15,-340.637,165.466,878.478,1
1.60384,-15.895,-0.037,2.837,-341.247,235.351,908.508,1
1.610832,-15.996,0.591,2.491,-337.402,303.649,931.152,1
1.618152,-15.999,1.163,2.142,-337.524,359.313,944.213,1
1.626115,-15.999,1.672,1.755,-361.022,430.236,952.514,1
1.633411,-15.999,2.13,1.483,-398.01,499.877,950.5,1
1.640387,-15.999,2.574,1.252,-411.376,576.293,937.622,1
1.647311,-15.999,2.839,0.934,-420.166,648.132,916.381,1
1.655741,-15.999,3.076,0.752,-440.917,722.778,887.939,1
1.662483,-15.999,3.2,0.422,-483.52,800.353,851.989,1
1.670361,-15.999,3.516,0.265,-533.386,863.891,811.584,1
1.678152,-15.999,3.475,-0.058,-596.374,953.186,756.408,1
1.684701,-15.999,3.578,-0.528,-659.301,1028.015,693.298,1
1.693007,-15.999,3.538,-0.653,-723.327,1103.21,613.098,1
1.700157,-15.999,3.369,-1.211,-786.865,1168.823,516.357,1
1.708286,-15.999,3.205,-1.687,-850.891,1211.608,402.16,1
1.715955,-15.999,3.077,-2.431,-904.418,1245.666,253.54,1
1.723028,-15.999,2.778,-2.96,-994.079,1240.722,109.558,1
1.731212,-15.999,2.362,-3.152,-1135.925,1223.754,-49.133,1
1.739055,-15.999,1.902,-3.138,-1255.493,1184.143,-216.796,1
1.747356,-15.999,1.604,-2.651,-1238.891,1100.769,-377.014,1
1.755365,-15.999,1.468,-2.037,-1072.021,1003.478,-500.427,1
1.762111,-15.999,1.166,-1.815,-839.965,889.526,-582.458,1
1.769355,-15.999,0.662,-1.606,-632.446,789.306,-628.418,1
1.777281,-15.772,0.235,-1.636,-507.507,708.679,-648.62,1
1.785732,-14.668,-0.098,-1.913,-469.97,637.695,-658.142,1
1.794235,-13.768,-0.291,-2.0,-447.082,556.762,-665.222,1
1.802589,-12.406,-0.582,-1.926,-409.728,490.539,-666.564,1
1.810484,-11.25,-0.843,-1.883,-368.774,422.668,-658.691,1
1.817417,-10.258,-1.041,-1.864,-340.27,368.408,-645.69,1
1.825645,-9.46,-1.15,-1.833,-311.279,318.298,-630.615,1
1.833389,-8.575,-1.273,-1.765,-279.724,265.93,-610.534,1
1.841686,-7.977,-1.337,-1.663,-255.615,230.224,-590.576,1
1.850061,-7.193,-1.447,-1.652,-267.211,193.054,-568.847,1
1.857042,-6.32,-1.411,-1.41,-263.977,155.517,-543.64,1
1.865485,-5.675,-1.37,-1.321,-230.041,124.511,-520.996,1
1.873725,-5.099,-1.417,-1.213,-195.739,98.144,-497.863,1
1.880958,-4.609,-1.467,-1.201,-187.805,74.646,-474.487,1
1.889184,-4.194,-1.457,-1.081,-188.537,49.377,-448.181,1
1.897317,-3.918,-1.384,-1.006,-176.269,30.639,-426.086,1
1.904893,-3.579,-1.381,-0.916,-147.705,10.559,-404.357,1
1.913353,-3.322,-1.395,-0.866,-112.243,-4.821,-381.957,1
1.919974,-3.071,-1.404,-0.824,-82.641,-17.822,-360.717,1
1.927858,-2.849,-1.382,-0.759,-60.729,-26.916,-339.965,1
1.935832,-2.645,-1.375,-0.732,-41.809,-35.034,-317.138,1
1.944816,-2.418,-1.38,-0.677,-29.663,-39.489,-297.851,1
1.951781,-2.166,-1.388,-0.655,-21.423,-42.907,-279.602,1
1.960123,-1.993,-1.365,-0.617,-14.282,-44.921,-262.573,1
1.968407,-1.838,-1.337,-0.598,-9.765,-46.936,-246.093,1
1.975284,-1.724,-1.329,-0.587,-7.934,-47.973,-227.905,1
1.984527,-1.612,-1.306,-0.575,-9.704,-49.865,-212.768,1
1.991579,-1.501,-1.278,-0.542,-5.493,-51.147,-198.425,1
1.999233,-1.377,-1.25,-0.523,5.676,-52.978,-185.058,1
2.007958,-1.289,-1.231,-0.503,19.47,-54.565,-170.471,1
2.016897,-1.185,-1.233,-0.491,24.414,-54.077,-156.86,1
2.023822,-1.081,-1.232,-0.487,20.996,-53.222,-145.935,1
2.032426,-0.973,-1.201,-0.467,16.723,-51.147,-133.483,1
2.041162,-0.88,-1.199,-0.473,11.718,-49.621,-123.535,1
2.04892,-0.775,-1.201,-0.468,6.286,-47.729,-113.403,1
2.055704,-0.711,-1.204,-0.461,2.685,-45.898,-101.989,1
2.063775,-0.64,-1.204,-0.463,5.187,-44.616,-92.224,1
2.072458,-0.575,-1.205,-0.467,11.535,-43.518,-83.19,1
2.080819,-0.521,-1.228,-0.475,15.93,-42.541,-74.34,1
2.087659,-0.456,-1.259,-0.495,14.16,-40.344,-64.453,1
2.097106,-0.399,-1.268,-0.508,11.84,-39.062,-55.725,1
2.103785,-0.34,-1.268,-0.515,14.709,-38.146,-45.959,1
2.112576,-0.288,-1.268,-0.526,18.493,-37.719,-37.597,1
2.12058,-0.24,-1.263,-0.559,18.92,-36.926,-29.418,1
2.128977,-0.207,-1.257,-0.579,14.099,-36.254,-20.507,1
2.136015,-0.188,-1.242,-0.607,7.995,-35.156,-13.061,1
2.143752,-0.164,-1.221,-0.629,2.685,-34.24,-5.493,1
2.152175,-0.149,-1.201,-0.65,-1.22,-33.752,1.586,1
2.158666,-0.145,-1.185,-0.666,-2.746,-33.63,8.3,1
2.167464,-0.121,-1.171,-0.678,-2.624,-33.386,15.319,1
2.174532,-0.087,-1.145,-0.681,0.976,-34.118,21.789,1
2.181662,-0.079,-1.132,-0.678,7.202,-34.545,28.32,1
2.189602,-0.056,-1.125,-0.681,11.047,-35.095,34.545,1
2.196895,-0.049,-1.109,-0.67,13.61,-35.339,41.076,1
2.205102,-0.034,-1.1,-0.664,15.258,-35.278,48.522,1
2.21336,-0.017,-1.068,-0.657,16.723,-35.095,55.053,1
2.220051,-0.012,-1.033,-0.66,16.479,-34.545,61.523,1
2.228913,-0.014,-0.997,-0.667,13.732,-34.118,67.504,1
2.236679,-0.004,-0.954,-0.675,8.544,-32.653,74.096,1
2.245571,0.007,-0.92,-0.675,2.258,-31.86,79.65,1
2.253498,0.002,-0.878,-0.688,-6.408,-30.7,85.632,1
2.261778,-0.021,-0.851,-0.696,-13.427,-29.907,90.515,1
2.269747,-0.041,-0.821,-0.698,-17.883,-29.235,95.764,1
2.276563,-0.051,-0.799,-0.705,-18.676,-29.418,100.769,1
2.28451,-0.049,-0.777,-0.686,-12.878,-30.7,106.689,1
2.292809,-0.045,-0.773,-0.67,-6.286,-31.249,110.778,1
2.299768,-0.027,-0.762,-0.646,0.244,-32.348,117.431,1
2.308522,-0.014,-0.75,-0.63,1.525,-31.738,123.107,1
2.316518,0.009,-0.731,-0.639,-1.953,-31.433,128.479,1
2.32293,0.045,-0.697,-0.643,-4.211,-31.066,134.155,1
2.33143,0.062,-0.667,-0.65,-4.76,-30.639,139.953,1
2.34037,0.089,-0.61,-0.669,-4.943,-29.968,145.629,1
2.348683,0.137,-0.543,-0.691,-3.417,-30.7,152.526,1
2.356,0.179,-0.479,-0.698,0.976,-30.7,158.142,1
2.364005,0.185,-0.409,-0.701,5.554,-31.738,164.306,1
2.371164,0.157,-0.352,-0.689,8.056,-31.433,169.311,1
2.379363,0.134,-0.295,-0.685,3.906,-29.846,173.645,1
2.385972,0.124,-0.212,-0.687,-2.99,-27.709,178.283,1
2.394808,0.109,-0.114,-0.698,-7.507,-25.512,181.701,1
2.401847,0.098,-0.017,-0.715,-8.544,-23.803,184.753,1
2.40836,0.076,0.073,-0.75,-9.765,-23.254,186.34,1
2.416715,0.056,0.175,-0.768,-9.948,-23.071,187.561,1
2.423094,0.064,0.247,-0.787,-9.155,-23.498,187.316,1
2.431939,0.069,0.29,-0.799,-8.666,-24.169,187.499,1
2.439071,0.07,0.317,-0.795,-15.075,-25.329,187.377,1
2.445937,0.186,0.353,-0.782,-19.958,-24.475,187.316,1
2.454729,0.2,0.403,-0.791,-17.761,-25.024,187.438,1
2.461814,0.248,0.452,-0.786,-9.521,-26.489,187.622,1
2.468913,0.254,0.484,-0.782,-3.906,-27.526,187.927,1
2.476807,0.26,0.494,-0.795,-6.713,-27.343,187.866,1
2.483732,0.254,0.531,-0.797,-18.005,-26.062,187.927,1
2.49149,0.258,0.584,-0.819,-24.902,-26.55,187.866,1
2.500288,0.273,0.602,-0.805,-26.489,-27.099,187.805,1
2.508257,0.314,0.675,-0.824,-19.348,-27.099,186.645,1
2.514767,0.306,0.683,-0.809,-9.338,-30.212,185.363,1
2.521872,0.302,0.683,-0.807,-7.141,-29.052,184.753,1
2.530058,0.298,0.708,-0.835,-12.023,-30.822,182.861,1
2.538642,0.262,0.719,-0.802,-13.854,-29.846,182.006,1
2.545197,0.254,0.728,-0.837,-17.333,-29.907,181.213,1
2.553606,0.222,0.71,-0.835,-22.521,-30.639,180.236,1
2.560595,0.21,0.764,-0.839,-25.024,-29.479,178.894,1
2.567608,0.167,0.786,-0.845,-25.146,-31.616,177.062,1
2.576316,0.159,0.798,-0.844,-25.573,-31.555,175.476,1
2.583063,0.142,0.826,-0.852,-27.343,-33.447,173.828,1
2.590022,0.127,0.834,-0.839,-26.0,-34.912,172.119,1
2.59838,0.11,0.819,-0.826,-24.78,-36.254,169.799,1
2.607091,0.145,0.804,-0.809,-23.254,-37.658,168.273,1
2.613666,0.176,0.765,-0.805,-20.874,-38.879,167.724,1
2.622344,0.219,0.824,-0.809,-10.07,-40.283,166.503,1
2.629167,0.168,0.819,-0.797,0.671,-43.823,165.222,1
2.635765,0.153,0.77,-0.806,-0.488,-44.25,164.794,1
2.644606,0.138,0.754,-0.813,-10.864,-45.349,164.428,1
2.651265,0.105,0.76,-0.791,-24.353,-45.227,164.245,1
2.660162,0.077,0.77,-0.799,-31.738,-46.264,164.123,1
2.667221,0.05,0.766,-0.783,-36.499,-47.241,164.123,1
2.675631,0.034,0.758,-0.783,-40.405,-47.912,164.367,1
2.682698,0.049,0.854,-0.774,-40.466,-47.302,164.489,1
2.68939,0.062,0.881,-0.807,-27.526,-52.49,163.696,1
2.697719,0.065,0.899,-0.774,-8.789,-53.71,163.391,1
2.704416,0.11,0.906,-0.819,-0.427,-57.678,162.658,1
2.712654,0.078,0.927,-0.787,2.868,-59.814,162.353,1
2.719451,0.035,0.899,-0.785,-1.525,-61.279,162.17,1
2.726163,0.118,0.976,-0.736,-13.061,-61.157,162.963,1
2.735292,0.126,0.986,-0.743,-11.474,-63.476,161.682,1
2.741808,0.058,1.016,-0.681,0.244,-64.392,161.865,1
2.748594,0.066,0.986,-0.723,-0.549,-66.101,161.865,1
2.756376,0.039,1.059,-0.688,-13.122,-65.307,162.109,1
2.764687,-0.011,1.041,-0.715,-18.493,-68.054,160.888,1
2.772661,-0.05,1.041,-0.678,-18.737,-67.199,160.705,1
2.780609,-0.056,1.034,-0.718,-23.559,-69.885,160.156,1
2.787378,-0.113,1.009,-0.687,-23.254,-70.678,159.729,1
2.795383,-0.13,1.005,-0.675,-20.568,-72.387,159.362,1
2.802571,-0.16,1.007,-0.65,-16.601,-74.707,158.996,1
2.810817,-0.197,1.011,-0.617,-10.498,-77.331,158.508,1
2.819247,-0.233,1.013,-0.589,-4.76,-79.711,157.836,1
2.826097,-0.252,1.017,-0.563,2.319,-82.275,157.104,1
2.833544,-0.261,1.009,-0.537,11.535,-85.327,157.287,1
2.8431,-0.261,1.01,-0.516,22.216,-88.256,156.982,1
2.849437,-0.226,1.039,-0.495,41.32,-91.674,155.944,1
2.856568,-0.258,1.024,-0.476,60.485,-95.825,156.005,1
2.864915,-0.223,1.02,-0.488,67.382,-97.412,155.761,1
2.871969,-0.266,1.046,-0.498,62.988,-99.853,155.456,1
2.87901,-0.293,1.082,-0.497,52.856,-99.914,155.151,1
2.887006,-0.282,1.142,-0.51,38.574,-101.074,154.479,1
2.893905,-0.292,1.201,-0.515,23.986,-100.83,153.991,1
2.902251,-0.313,1.259,-0.535,9.521,-101.562,152.832,1
2.91082,-0.322,1.306,-0.534,-4.333,-101.928,151.0,1
2.91755,-0.336,1.359,-0.528,-13.854,-102.6,149.169,1
2.92595,-0.329,1.39,-0.517,-14.831,-104.309,147.277,1
2.933833,-0.33,1.405,-0.486,-17.395,-106.201,147.399,1
2.942137,-0.274,1.453,-0.489,6.103,-112.304,143.92,1
2.949322,-0.326,1.497,-0.399,40.039,-116.394,141.113,1
2.958126,-0.339,1.435,-0.45,54.809,-120.971,138.732,1
2.964544,-0.329,1.552,-0.406,48.706,-122.009,134.155,1
2.972829,-0.378,1.517,-0.404,55.419,-128.479,130.065,1
2.979512,-0.434,1.476,-0.375,59.997,-128.967,125.671,1
2.987864,-0.393,1.445,-0.384,52.917,-131.347,122.558,1
2.994419,-0.398,1.425,-0.329,41.503,-132.934,118.591,1
3.00234,-0.4,1.418,-0.303,33.569,-133.178,115.6,1
3.009572,-0.462,1.219,-0.286,14.892,-134.399,113.708,1
3.01792,-0.278,1.363,-0.262,9.399,-131.469,108.642,1
3.024538,-0.399,1.491,-0.21,26.611,-137.329,105.712,1
3.032897,-0.396,1.464,-0.19,43.762,-137.756,102.722,1
3.03955,-0.34,1.47,-0.184,54.748,-142.883,98.51,1
3.047967,-0.39,1.34,-0.104,52.978,-144.104,98.632,1
3.054536,-0.25,1.424,-0.141,69.946,-146.24,92.224,1
3.063366,-0.379,1.497,-0.011,101.257,-149.963,86.303,1
3.070189,-0.382,1.458,-0.055,114.624,-149.963,81.42,1
3.078587,-0.416,1.289,-0.028,95.947,-152.099,77.88,1
3.086862,-0.285,1.388,-0.025,75.439,-146.85,70.495,1
3.093532,-0.419,1.467,0.024,67.932,-148.071,64.331,1
3.100666,-0.425,1.442,0.026,58.776,-144.348,59.814,1
3.108311,-0.385,1.447,0.022,50.17,-145.263,55.175,1
3.11598,-0.435,1.414,0.062,47.058,-143.005,50.415,1
3.123046,-0.312,1.39,0.054,45.654,-142.456,46.325,1
3.131148,-0.343,1.381,0.081,50.354,-142.761,42.48,1
3.13837,-0.335,1.328,0.103,57.373,-143.005,39.733,1
3.145475,-0.455,1.088,0.098,46.325,-143.188,39.428,1
3.153841,-0.207,1.26,0.186,34.423,-136.169,35.583,1
3.160816,-0.265,1.229,0.185,35.095,-140.38,33.813,1
3.16916,-0.321,1.178,0.275,41.076,-135.07,32.836,1
3.175929,-0.27,1.149,0.211,37.536,-134.094,32.043,1
3.182856,-0.29,1.127,0.282,32.714,-131.469,30.761,1
3.189532,-0.289,1.104,0.265,26.672,-127.502,30.212,1
3.196781,-0.265,1.096,0.276,21.545,-125.244,29.235,1
3.204738,-0.25,1.079,0.292,22.766,-122.192,29.541,1
3.211657,-0.238,1.062,0.289,29.296,-120.117,29.418,1
3.219769,-0.233,1.042,0.294,41.992,-118.652,29.602,1
3.226331,-0.213,1.016,0.301,54.016,-117.797,29.541,1
3.234113,-0.181,0.985,0.319,60.729,-115.844,30.09,1
3.241974,-0.17,0.969,0.329,62.316,-113.647,30.7,1
3.250331,-0.161,0.955,0.348,62.683,-111.755,31.433,1
3.256767,-0.167,0.932,0.356,60.18,-109.374,32.165,1
3.264888,-0.164,0.885,0.36,49.865,-106.384,33.081,1
3.271877,-0.19,0.892,0.397,26.245,-101.684,36.071,1
3.280029,-0.087,0.937,0.359,21.484,-98.815,35.705,1
3.288395,-0.173,0.955,0.4,34.24,-99.731,36.376,1
3.29521,-0.162,0.923,0.392,50.109,-96.923,37.048,1
3.303614,-0.134,0.899,0.346,61.523,-97.9,36.987,1
3.31184,-0.147,0.857,0.335,72.082,-96.862,37.109,1
3.318097,-0.163,0.81,0.307,75.012,-96.984,37.353,1
3.326274,-0.189,0.795,0.303,72.814,-96.252,37.841,1
3.33432,-0.189,0.774,0.314,62.133,-95.336,38.33,1
3.341058,-0.187,0.758,0.331,44.555,-92.407,38.574,1
3.349302,-0.208,0.779,0.345,22.521,-90.087,39.245,1
3.356249,-0.221,0.812,0.366,3.295,-86.73,39.916,1
3.36421,-0.209,0.847,0.379,-8.544,-84.106,39.978,1
3.370795,-0.245,0.852,0.41,-25.512,-81.115,42.785,1
3.377735,-0.107,0.965,0.379,-19.287,-77.758,40.527,1
3.385634,-0.187,1.001,0.404,1.525,-81.481,39.428,1
3.392714,-0.198,1.007,0.415,25.146,-78.43,39.123,1
3.400667,-0.166,1.012,0.372,34.423,-80.078,37.658,1
3.407467,-0.196,1.008,0.396,41.931,-78.735,36.132,1
3.415689,-0.194,1.006,0.382,45.104,-77.514,34.667,1
3.422785,-0.159,1.007,0.377,50.292,-76.049,33.081,1
3.43061,-0.106,0.993,0.347,60.546,-76.293,33.02,1
3.437728,-0.146,0.993,0.345,75.805,-76.354,31.86,1
3.445496,-0.152,0.966,0.333,77.758,-75.988,31.616,1
3.452427,-0.168,0.954,0.312,69.458,-74.035,30.761,1
3.459577,-0.187,0.967,0.314,61.218,-73.181,29.724,1
3.468327,-0.193,0.977,0.297,57.617,-71.35,28.747,1
3.474705,-0.208,0.99,0.285,54.687,-70.434,27.954,1
3.481737,-0.221,0.999,0.28,58.593,-69.885,27.282,1
3.490109,-0.208,1.006,0.275,68.237,-69.702,26.245,1
3.497958,-0.208,1.01,0.26,80.383,-70.068,25.451,1
3.50439,-0.219,1.001,0.25,90.515,-70.129,24.597,1
3.511366,-0.214,0.977,0.238,94.299,-69.335,24.23,1
3.519262,-0.228,0.953,0.232,87.951,-68.664,24.108,1
3.528034,-0.233,0.925,0.217,72.265,-66.223,24.047,1
3.534862,-0.231,0.921,0.216,49.804,-64.758,24.536,1
3.543139,-0.247,0.92,0.216,32.104,-62.377,24.902,1
3.549769,-0.269,0.929,0.219,16.052,-61.889,25.146,1
3.557571,-0.297,0.945,0.237,3.723,-61.157,25.207,1
3.565787,-0.301,0.961,0.244,-7.019,-60.119,25.268,1
3.57212,-0.325,1.001,0.261,-13.671,-59.997,24.963,1
3.580006,-0.343,1.041,0.272,-15.075,-60.119,25.085,1
3.5871,-0.341,1.073,0.281,-11.474,-60.668,24.78,1
3.5956,-0.306,1.104,0.291,-3.906,-60.852,24.108,1
3.602681,-0.285,1.051,0.304,0.732,-61.34,25.207,1
3.609612,-0.221,1.132,0.302,10.681,-59.143,23.864,1
3.616624,-0.228,1.167,0.323,20.69,-60.852,23.254,1
3.624565,-0.189,1.181,0.345,29.479,-57.861,22.521,1
3.632597,-0.174,1.204,0.316,31.616,-57.8,21.24,1
3.640611,-0.196,1.218,0.33,24.169,-54.138,19.531,1
3.648779,-0.189,1.238,0.299,3.234,-51.635,17.944,1
3.655409,-0.207,1.271,0.308,-20.324,-48.339,16.357,1
3.663441,-0.195,1.317,0.299,-39.489,-45.593,14.648,1
3.670454,-0.192,1.366,0.296,-50.17,-44.25,13.061,1
3.678836,-0.2,1.426,0.28,-51.879,-43.579,11.291,1
3.685822,-0.194,1.484,0.259,-44.25,-44.128,9.399,1
3.69408,-0.197,1.535,0.23,-34.179,-45.471,7.08,1
3.700755,-0.195,1.566,0.202,-25.878,-46.02,3.845,1
3.708946,-0.177,1.593,0.167,-21.545,-46.325,0.366,1
3.717388,-0.178,1.619,0.144,-21.667,-46.081,-3.417,1
3.723876,-0.177,1.663,0.12,-23.01,-45.959,-7.446,1
3.733359,-0.16,1.702,0.104,-25.085,-45.837,-11.474,1
3.741817,-0.175,1.694,0.067,-38.146,-43.945,-15.869,1
3.748598,-0.081,1.799,0.037,-56.579,-40.1,-20.69,1
3.757086,-0.112,1.859,0.007,-63.049,-43.334,-24.658,1
3.764887,-0.107,1.875,-0.013,-56.945,-41.87,-27.77,1
3.771454,-0.094,1.908,-0.072,-50.598,-45.959,-31.921,1
3.779738,-0.132,1.924,-0.077,-45.593,-46.997,-36.499,1
3.78812,-0.147,1.955,-0.113,-45.349,-48.645,-40.893,1
3.796795,-0.152,1.974,-0.117,-47.668,-51.086,-46.508,1
3.805272,-0.161,2.007,-0.118,-48.278,-52.124,-51.33,1
3.812408,-0.153,2.017,-0.12,-50.048,-54.931,-56.823,1
3.821262,-0.166,2.028,-0.125,-51.574,-56.396,-61.645,1
3.829571,-0.16,2.011,-0.11,-51.33,-58.898,-67.138,1
3.836692,-0.165,1.979,-0.103,-55.48,-60.18,-72.326,1
3.844922,-0.156,1.944,-0.088,-60.18,-61.645,-76.11,1
3.852742,-0.156,1.913,-0.076,-62.744,-62.377,-79.895,1
3.86138,-0.18,1.882,-0.082,-64.025,-63.354,-83.251,1
3.870304,-0.2,1.844,-0.093,-66.833,-64.758,-86.914,1
3.876965,-0.25,1.81,-0.098,-70.19,-65.917,-91.064,1
3.885435,-0.27,1.779,-0.105,-71.411,-67.26,-94.299,1
3.893623,-0.276,1.741,-0.108,-71.533,-68.725,-97.412,1
3.902032,-0.283,1.696,-0.112,-71.228,-70.312,-100.28,1
3.910631,-0.304,1.654,-0.128,-74.584,-71.655,-102.416,1
3.917881,-0.34,1.627,-0.153,-84.899,-72.448,-104.431,1
3.926413,-0.343,1.608,-0.161,-98.022,-73.608,-106.384,1
3.934823,-0.336,1.591,-0.167,-105.651,-74.646,-107.971,1
3.943566,-0.327,1.581,-0.173,-106.506,-76.477,-109.374,1
3.950148,-0.332,1.568,-0.176,-103.454,-78.979,-111.022,1
3.957937,-0.312,1.54,-0.165,-99.914,-80.993,-112.426,1
3.966265,-0.299,1.505,-0.159,-96.191,-82.763,-113.769,1
3.974736,-0.305,1.491,-0.161,-92.346,-84.472,-114.501,1
3.981385,-0.326,1.482,-0.179,-87.89,-86.181,-115.844,1
3.988302,-0.331,1.459,-0.201,-87.036,-87.646,-117.431,1
3.996874,-0.337,1.445,-0.234,-90.393,-87.768,-118.896,1
4.00349,-0.365,1.438,-0.287,-98.999,-89.721,-120.056,1
4.012391,-0.382,1.467,-0.315,-100.158,-92.041,-121.032,1
4.019341,-0.395,1.5,-0.355,-90.637,-95.703,-121.52,1
4.026416,-0.42,1.528,-0.391,-76.782,-99.67,-122.131,1
4.034652,-0.449,1.563,-0.424,-65.307,-102.6,-122.619,1
4.041457,-0.456,1.616,-0.477,-55.053,-106.262,-123.901,1
4.049796,-0.448,1.693,-0.511,-52.917,-108.642,-126.037,1
4.056372,-0.414,1.731,-0.554,-54.504,-110.839,-128.967,1
4.064683,-0.49,1.832,-0.552,-57.617,-113.22,-133.178,1
4.071591,-0.551,1.89,-0.569,-56.823,-117.126,-138.244,1
4.08037,-0.48,1.937,-0.567,-52.124,-120.422,-143.981,1
4.08789,-0.477,1.96,-0.544,-63.293,-124.633,-151.428,1
4.095831,-0.541,1.945,-0.487,-76.354,-126.525,-159.729,1
4.104051,-0.554,1.917,-0.467,-89.965,-129.028,-166.687,1
4.112323,-0.583,1.885,-0.385,-96.435,-132.812,-173.583,1
4.120591,-0.599,1.827,-0.318,-91.186,-136.108,-180.358,1
4.128688,-0.606,1.721,-0.257,-87.402,-139.648,-185.974,1
4.137252,-0.618,1.609,-0.185,-84.777,-141.967,-191.528,1
4.145272,-0.59,1.445,-0.132,-89.172,-142.944,-194.946,1
4.153224,-0.578,1.306,-0.05,-99.609,-143.371,-197.204,1
4.161648,-0.553,1.184,0.014,-106.506,-143.676,-197.631,1
4.170052,-0.505,1.068,0.069,-109.313,-143.432,-196.96,1
4.177084,-0.458,0.947,0.103,-110.351,-143.981,-195.129,1
4.183757,-0.444,0.823,0.158,-116.821,-142.944,-192.077,1
4.192121,-0.362,0.717,0.212,-125.732,-141.723,-187.805,1
4.19909,-0.314,0.64,0.272,-131.896,-139.892,-183.044,1
4.207008,-0.259,0.562,0.333,-138.122,-137.878,-177.856,1
4.214976,-0.219,0.477,0.414,-149.169,-134.216,-170.776,1
4.222785,-0.101,0.414,0.492,-160.705,-131.469,-164.489,1
4.229895,-0.076,0.379,0.604,-167.968,-126.647,-157.531,1
4.238472,-0.009,0.352,0.655,-174.743,-121.704,-150.695,1
4.245506,0.035,0.32,0.723,-186.035,-117.126,-144.47,1
4.252876,0.063,0.306,0.792,-194.396,-111.145,-138.427,1
4.261174,0.16,0.299,0.843,-196.35,-106.933,-131.652,1
4.269909,0.263,0.331,0.957,-181.579,-101.867,-124.938,1
4.276629,0.354,0.336,0.997,-162.902,-97.106,-118.774,1
4.283558,0.441,0.342,1.07,-149.597,-91.369,-113.525,1
4.290743,0.508,0.348,1.138,-141.479,-83.923,-108.581,1
4.298831,0.608,0.353,1.207,-140.319,-74.829,-104.431,1
4.306785,0.69,0.359,1.223,-151.0,-63.415,-100.036,1
4.313842,0.783,0.418,1.199,-168.457,-52.49,-96.435,1
4.322333,0.87,0.51,1.173,-179.443,-42.785,-93.811,1
4.329096,0.96,0.617,1.137,-178.955,-34.24,-91.613,1
4.336189,1.03,0.729,1.067,-172.607,-26.428,-91.125,1
4.344885,1.085,0.848,0.989,-164.733,-21.24,-92.407,1
4.351937,1.075,0.97,0.934,-150.695,-16.052,-95.214,1
4.360188,1.052,1.045,0.815,-141.357,-11.108,-98.815,1
4.367207,0.998,1.125,0.684,-143.371,-5.981,-102.722,1
4.374337,0.911,1.211,0.528,-150.085,-2.014,-107.543,1
4.382465,0.805,1.296,0.346,-155.395,0.854,-112.792,1
4.389537,0.678,1.345,0.13,-165.283,1.831,-118.835,1
4.398335,0.569,1.389,-0.066,-179.321,0.732,-125.061,1
4.404907,0.416,1.441,-0.236,-190.551,-2.075,-131.103,1
4.41237,0.27,1.474,-0.393,-196.472,-7.568,-137.817,1
4.420322,0.133,1.452,-0.538,-200.256,-14.038,-144.287,1
4.42708,0.053,1.422,-0.669,-203.43,-22.888,-150.39,1
4.434769,-0.055,1.407,-0.714,-195.129,-34.301,-156.555,1
4.443305,-0.138,1.339,-0.736,-176.513,-44.921,-161.865,1
4.450735,-0.178,1.174,-0.751,-167.053,-56.274,-166.931,1
4.457802,-0.253,1.022,-0.734,-171.142,-64.27,-170.104,1
4.466416,-0.333,0.908,-0.747,-175.598,-74.096,-172.546,1
4.473307,-0.424,0.77,-0.728,-168.823,-84.716,-174.377,1
4.481755,-0.469,0.587,-0.703,-159.729,-95.825,-174.621,1
4.49069,-0.534,0.368,-0.763,-159.118,-105.041,-174.316,1
4.498866,-0.674,0.145,-0.692,-172.363,-116.821,-172.058,1
4.506081,-0.658,-0.03,-0.613,-163.33,-129.882,-167.785,1
4.516059,-0.708,-0.203,-0.496,-140.869,-141.845,-163.085,1
4.524538,-0.809,-0.44,-0.408,-124.145,-152.832,-155.944,1
4.531513,-0.881,-0.663,-0.323,-124.572,-161.621,-149.108,1
4.540356,-1.001,-0.791,-0.244,-126.342,-170.166,-140.197,1
4.54866,-1.083,-1.02,-0.163,-121.887,-180.053,-129.821,1
4.557098,-1.183,-1.22,-0.102,-121.643,-185.974,-119.14,1
4.565764,-1.293,-1.47,-0.063,-128.967,-193.42,-105.102,1
4.57415,-1.43,-1.666,-0.016,-131.103,-200.561,-88.806,1
4.581201,-1.518,-1.818,0.051,-117.98,-207.641,-74.279,1
4.589904,-1.584,-2.042,0.102,-94.543,-214.05,-58.776,1
4.598511,-1.599,-2.237,0.134,-74.462,-221.252,-38.94,1
4.606754,-1.648,-2.397,0.177,-65.124,-226.684,-20.385,1
4.613882,-1.752,-2.403,0.232,-41.32,-232.971,1.037,1
4.620442,-1.833,-2.486,0.231,-23.864,-239.44,19.775,1
4.628729,-2.0,-2.518,0.241,-14.892,-243.408,39.062,1
4.635422,-2.182,-2.55,0.196,-21.85,-248.535,58.349,1
4.644323,-2.406,-2.583,0.191,-38.146,-252.197,75.622,1
4.650776,-2.693,-2.573,0.171,-66.406,-255.798,101.684,1
4.659157,-2.939,-2.592,0.173,-86.975,-259.338,127.258,1
4.667151,-3.27,-2.563,0.177,-98.327,-261.779,154.418,1
4.675034,-3.761,-2.614,0.202,-115.844,-264.099,184.082,1
4.682688,-4.154,-2.591,0.231,-129.089,-263.183,215.209,1
4.691031,-4.595,-2.547,0.252,-140.563,-264.465,246.887,1
4.697811,-5.049,-2.511,0.282,-132.751,-264.343,280.395,1
4.704885,-5.516,-2.439,0.322,-115.722,-267.517,314.392,1
4.712694,-5.917,-2.347,0.387,-95.092,-270.446,349.365,1
4.719994,-6.48,-2.251,0.414,-76.477,-273.315,384.948,1
4.728355,-7.208,-2.115,0.473,-66.833,-275.024,421.936,1
4.735226,-7.726,-2.111,0.486,-87.341,-272.521,463.378,1
4.743008,-8.364,-1.895,0.548,-123.229,-265.747,506.652,1
4.751429,-8.941,-1.958,0.698,-190.856,-247.619,566.955,1
4.758443,-9.689,-1.755,0.867,-245.361,-223.937,622.314,1
4.766598,-10.57,-1.535,1.106,-283.447,-190.856,680.053,1
4.773564,-11.508,-1.352,1.205,-329.956,-147.46,740.783,1
4.781777,-12.672,-1.105,1.268,-401.061,-92.895,802.307,1
4.789568,-14.077,-0.638,1.329,-458.251,-25.817,861.755,1
4.796121,-15.638,-0.082,1.341,-473.266,42.663,915.588,1
4.804834,-15.992,0.367,1.299,-467.956,115.112,963.378,1
4.811648,-15.999,0.689,1.22,-471.435,177.795,999.023,1
4.818314,-15.999,1.125,1.154,-482.543,260.803,1035.827,1
4.825188,-15.999,1.581,0.981,-500.366,346.984,1063.964,1
4.833,-15.999,2.021,0.78,-512.146,438.903,1084.228,1
4.839985,-15.999,2.362,0.483,-528.747,515.258,1094.238,1
4.848734,-15.999,2.716,-0.009,-561.767,608.886,1095.886,1
4.855734,-15.999,3.146,-0.597,-598.327,698.913,1084.777,1
4.862849,-15.999,3.59,-0.936,-609.741,786.254,1057.556,1
4.870784,-15.999,3.891,-0.988,-577.697,868.469,1018.615,1
4.878369,-15.999,3.943,-1.349,-543.334,941.162,975.158,1
4.88525,-15.999,4.098,-1.316,-528.625,1011.291,927.001,1
4.892341,-15.999,4.03,-1.507,-564.697,1093.139,874.206,1
4.900533,-15.999,4.269,-1.724,-660.278,1167.053,802.368,1
4.909027,-15.999,4.625,-1.971,-719.177,1238.342,703.43,1
4.915586,-15.999,4.574,-2.643,-766.601,1292.236,587.768,1
4.924038,-15.999,4.348,-3.295,-803.588,1320.495,482.36,1
4.930683,-15.999,3.924,-3.949,-912.231,1341.186,342.529,1
4.937751,-15.999,3.338,-4.621,-1115.661,1348.937,150.451,1
4.947066,-15.999,2.555,-4.914,-1262.451,1324.768,-36.499,1
4.955245,-15.999,2.038,-4.678,-1260.07,1259.643,-223.144,1
4.961667,-15.999,1.605,-4.11,-1074.951,1168.518,-375.488,1
4.970954,-15.999,0.813,-4.109,-828.613,1048.767,-477.905,1
4.978733,-15.999,0.1,-3.797,-627.99,923.034,-547.424,1
4.987591,-15.999,-0.373,-3.941,-488.22,826.965,-578.369,1
4.994775,-15.988,-0.783,-3.999,-353.637,717.773,-595.092,1
5.00356,-14.349,-1.385,-4.089,-280.822,642.089,-593.2,1
5.01225,-11.876,-2.031,-4.165,-290.588,561.584,-581.176,1
5.020748,-10.384,-2.352,-4.173,-329.956,491.577,-564.88,1
5.027695,-9.037,-2.617,-4.137,-362.06,428.466,-549.133,1
5.034414,-7.819,-2.719,-3.93,-380.432,365.356,-530.212,1
5.042275,-6.586,-2.753,-3.753,-394.103,302.185,-508.605,1
5.051026,-5.568,-2.609,-3.313,-372.741,240.6,-484.619,1
5.057959,-4.594,-2.495,-3.025,-322.753,177.978,-453.002,1
5.066783,-4.012,-2.332,-2.674,-299.743,128.356,-425.781,1
5.073402,-3.691,-2.015,-2.293,-273.742,89.355,-400.268,1
5.08177,-3.289,-1.825,-2.022,-249.206,50.964,-373.474,1
5.088651,-3.073,-1.552,-1.65,-206.42,20.935,-348.327,1
5.096747,-2.898,-1.362,-1.427,-161.987,-4.028,-325.073,1
5.105528,-2.797,-1.225,-1.227,-131.347,-24.536,-303.955,1
5.11386,-2.707,-1.058,-1.049,-103.637,-41.748,-281.738,1
5.122166,-2.623,-0.924,-0.92,-79.589,-55.358,-265.686,1
5.130329,-2.547,-0.834,-0.8,-51.452,-67.138,-248.657,1
5.138398,-2.392,-0.811,-0.721,-30.761,-77.148,-233.52,1
5.14705,-2.189,-0.796,-0.64,-16.174,-83.862,-221.923,1
5.153654,-2.017,-0.789,-0.562,-3.051,-87.707,-211.181,1
5.162416,-1.857,-0.786,-0.508,5.798,-91.186,-200.744,1
5.169209,-1.749,-0.783,-0.448,9.033,-91.979,-190.978,1
5.17753,-1.639,-0.774,-0.411,6.408,-91.125,-181.945,1
5.184672,-1.511,-0.751,-0.355,0.61,-89.965,-173.461,1
5.193344,-1.378,-0.737,-0.308,-5.737,-88.012,-165.1,1
5.200053,-1.276,-0.731,-0.264,-13.122,-86.303,-157.165,1
5.208463,-1.182,-0.725,-0.236,-17.639,-83.618,-147.766,1
5.217266,-1.05,-0.721,-0.217,-14.831,-82.702,-140.014,1
5.225376,-0.957,-0.732,-0.206,-4.455,-81.054,-131.469,1
5.233368,-0.843,-0.771,-0.206,7.69,-79.04,-122.924,1
5.240184,-0.728,-0.796,-0.207,17.15,-76.904,-115.661,1
5.248199,-0.624,-0.826,-0.202,24.536,-74.279,-108.398,1
5.256115,-0.513,-0.852,-0.191,29.052,-70.678,-101.135,1
5.264578,-0.421,-0.862,-0.193,29.418,-65.124,-94.421,1
5.272801,-0.298,-0.879,-0.197,25.146,-59.631,-86.547,1
5.279416,-0.229,-0.916,-0.224,13.427,-53.1,-79.833,1
5.287817,-0.131,-0.963,-0.255,-5.126,-47.241,-73.242,1
5.294756,-0.034,-0.993,-0.267,-23.437,-41.625,-66.345,1
5.302884,0.043,-1.006,-0.268,-35.949,-36.804,-59.387,1
5.310801,0.095,-1.018,-0.266,-41.625,-32.958,-52.551,1
5.319224,0.15,-1.037,-0.258,-44.616,-29.357,-45.654,1
5.327096,0.229,-1.044,-0.256,-45.593,-26.184,-38.33,1
5.335475,0.28,-1.049,-0.248,-45.166,-22.827,-32.165,1
5.342107,0.319,-1.044,-0.264,-46.447,-19.958,-26.184,1
5.351391,0.339,-1.039,-0.284,-51.269,-16.357,-20.69,1
5.359844,0.356,-1.034,-0.316,-60.302,-12.573,-14.953,1
5.366579,0.374,-1.03,-0.327,-67.138,-9.643,-9.704,1
5.373636,0.418,-1.028,-0.354,-71.289,-7.263,-5.004,1
5.382322,0.463,-1.026,-0.363,-71.166,-5.432,-0.244,1
5.389028,0.512,-1.023,-0.383,-68.725,-4.089,4.821,1
5.397021,0.556,-1.023,-0.389,-63.598,-3.173,10.803,1
5.405031,0.58,-1.007,-0.391,-57.434,-3.051,14.892,1
5.412041,0.596,-0.983,-0.39,-46.264,-2.99,19.531,1
5.419211,0.629,-0.95,-0.385,-34.362,-3.173,24.169,1
5.427482,0.643,-0.92,-0.393,-26.733,-3.173,28.442,1
5.434629,0.663,-0.892,-0.393,-24.78,-2.807,32.531,1
5.442804,0.681,-0.842,-0.396,-27.099,-1.831,36.987,1
5.449988,0.677,-0.78,-0.392,-30.334,-0.732,40.222,1
5.458211,0.654,-0.712,-0.4,-31.555,-0.488,42.968,1
5.465185,0.649,-0.671,-0.412,-32.775,0.122,45.166,1
5.473589,0.642,-0.644,-0.426,-36.804,1.098,47.424,1
5.480588,0.649,-0.611,-0.437,-41.198,1.892,49.255,1
5.489292,0.674,-0.558,-0.436,-41.137,2.136,51.391,1
5.496086,0.688,-0.51,-0.426,-33.508,1.586,53.222,1
5.503931,0.696,-0.461,-0.408,-19.836,0.732,54.87,1
5.510951,0.697,-0.428,-0.396,-7.263,-0.122,56.518,1
5.518858,0.685,-0.403,-0.391,-1.281,-0.305,57.861,1
5.525915,0.677,-0.373,-0.388,-0.549,0.122,59.204,1
5.533667,0.685,-0.338,-0.379,-1.831,0.793,60.18,1
5.541784,0.697,-0.296,-0.378,-3.295,1.464,61.035,1
5.549699,0.705,-0.273,-0.375,-6.347,2.502,61.828,1
5.556788,0.725,-0.256,-0.38,-12.39,3.601,62.683,1
5.565524,0.756,-0.232,-0.388,-19.958,5.126,63.049,1
5.572116,0.772,-0.206,-0.395,-26.123,6.713,63.72,1
5.57899,0.791,-0.179,-0.416,-29.785,7.568,63.903,1
5.586195,0.805,-0.146,-0.43,-30.761,8.178,64.392,1
5.594277,0.814,-0.125,-0.456,-30.517,8.666,64.514,1
5.601132,0.805,-0.111,-0.479,-30.029,8.972,64.636,1
5.609896,0.8,-0.106,-0.503,-29.968,9.155,64.941,1
5.616814,0.814,-0.098,-0.522,-30.395,8.911,65.124,1
5.624513,0.82,-0.076,-0.53,-29.174,8.85,65.124,1
5.631166,0.833,-0.064,-0.528,-25.939,7.934,65.246,1
5.639477,0.834,-0.054,-0.523,-22.766,7.751,65.002,1
5.648039,0.83,-0.053,-0.511,-21.484,7.568,64.88,1
5.654763,0.815,-0.041,-0.487,-24.108,7.995,64.636,1
5.663026,0.788,-0.029,-0.477,-28.381,9.155,64.453,1
5.670233,0.772,-0.005,-0.46,-31.555,10.131,64.453,1
5.676687,0.761,0.01,-0.451,-32.775,10.803,64.086,1
5.683735,0.754,0.014,-0.441,-33.813,12.207,63.659,1
5.691575,0.734,0.015,-0.443,-34.24,13.305,63.232,1
5.700045,0.734,0.022,-0.446,-32.226,14.099,62.622,1
5.707253,0.703,0.013,-0.444,-33.203,16.418,62.011,1
5.7156,0.708,-0.004,-0.447,-44.494,19.165,61.828,1
5.722295,0.754,-0.011,-0.432,-55.603,23.254,61.401,1
5.730578,0.827,-0.012,-0.458,-64.636,26.367,61.584,1
5.737834,0.872,0.0,-0.468,-70.922,29.846,62.316,1
5.74468,0.892,0.02,-0.499,-74.951,31.127,62.744,1
5.753039,0.877,0.045,-0.49,-75.805,33.02,63.171,1
5.759976,0.836,0.058,-0.507,-77.941,35.034,63.354,1
5.768284,0.768,0.069,-0.517,-83.312,36.743,62.744,1
5.775253,0.757,0.078,-0.522,-89.965,39.184,62.316,1
5.782486,0.782,0.095,-0.537,-90.942,39.672,61.584,1
5.790529,0.779,0.109,-0.549,-83.312,39.855,60.607,1
5.797852,0.802,0.091,-0.578,-69.152,38.818,58.959,1
5.805751,0.801,0.067,-0.595,-59.936,37.719,57.495,1
5.814196,0.785,0.031,-0.621,-56.762,37.597,56.274,1
5.822042,0.766,0.001,-0.661,-59.265,37.597,55.541,1
5.829391,0.744,-0.019,-0.686,-61.462,36.865,54.443,1
5.838096,0.707,-0.036,-0.7,-58.105,35.644,54.138,1
5.844822,0.699,-0.06,-0.714,-49.56,33.935,54.199,1
5.851926,0.695,-0.08,-0.731,-42.48,32.47,54.321,1
5.859891,0.683,-0.098,-0.755,-38.818,31.494,54.992,1
5.86684,0.672,-0.112,-0.767,-40.283,30.456,55.664,1
5.875242,0.645,-0.123,-0.785,-45.837,29.541,56.579,1
5.881919,0.646,-0.121,-0.786,-50.17,28.503,57.128,1
5.890388,0.637,-0.115,-0.786,-51.33,27.587,57.373,1
5.897153,0.635,-0.112,-0.787,-49.377,25.512,58.105,1
5.905166,0.64,-0.115,-0.784,-43.823,23.925,58.532,1
5.913397,0.628,-0.117,-0.792,-36.132,21.057,58.715,1
5.91966,0.64,-0.132,-0.792,-25.573,18.31,59.387,1
5.928592,0.639,-0.153,-0.784,-15.136,15.502,60.241,1
5.935706,0.63,-0.172,-0.773,-8.422,13.488,61.889,1
5.942786,0.613,-0.177,-0.762,-6.164,11.962,62.927,1
5.949633,0.596,-0.178,-0.737,-6.103,10.986,64.514,1
5.958443,0.582,-0.167,-0.728,-6.286,10.498,66.162,1
5.9652,0.566,-0.138,-0.716,-5.249,9.765,67.932,1
5.973765,0.577,-0.119,-0.71,-3.051,8.728,69.03,1
5.980431,0.582,-0.098,-0.705,-0.976,7.507,70.678,1
5.988505,0.573,-0.082,-0.713,-2.929,6.53,71.899,1
5.996915,0.555,-0.077,-0.716,-7.995,5.615,73.242,1
6.004596,0.55,-0.069,-0.731,-15.014,4.699,74.768,1
6.012697,0.529,-0.06,-0.727,-19.226,3.295,76.354,1
6.019466,0.514,-0.049,-0.727,-16.906,1.892,77.697,1
6.027524,0.503,-0.042,-0.712,-8.3,-0.488,79.162,1
6.034472,0.507,-0.04,-0.703,2.868,-2.563,80.871,1
6.042458,0.489,-0.036,-0.683,11.962,-5.004,82.519,1
6.050827,0.483,-0.032,-0.668,17.333,-5.798,84.289,1
6.057242,0.488,-0.023,-0.659,18.127,-6.408,85.693,1
6.064164,0.474,-0.016,-0.652,15.502,-6.591,87.707,1
6.072665,0.467,0.0,-0.66,9.338,-5.859,89.721,1
6.07965,0.464,0.015,-0.677,0.732,-6.164,91.674,1
6.087466,0.474,0.027,-0.691,-7.263,-6.469,93.566,1
6.095427,0.46,0.039,-0.721,-12.084,-7.629,95.031,1
6.103246,0.445,0.042,-0.707,-14.831,-9.155,97.29,1
6.111962,0.475,0.036,-0.721,-15.075,-9.338,98.937,1
6.11911,0.473,0.034,-0.716,-15.319,-11.901,100.83,1
6.127462,0.458,0.006,-0.682,-14.648,-11.84,103.149,1
6.135502,0.454,-0.003,-0.662,-16.54,-13.305,106.14,1
6.141673,0.468,-0.017,-0.625,-15.38,-13.183,108.337,1
6.150513,0.475,-0.024,-0.604,-10.559,-13.854,111.694,1
6.157074,0.472,-0.018,-0.589,-3.723,-14.038,114.929,1
6.165306,0.458,-0.006,-0.601,2.136,-14.099,118.591,1
6.172023,0.451,0.014,-0.611,6.286,-14.953,121.643,1
6.179763,0.424,0.039,-0.636,8.117,-15.869,124.45,1
6.187629,0.423,0.051,-0.652,7.324,-16.54,127.197,1
6.196079,0.43,0.08,-0.675,5.004,-17.211,129.699,1
6.202322,0.416,0.115,-0.695,2.99,-18.554,131.774,1
6.21051,0.409,0.148,-0.702,1.281,-19.897,134.155,1
6.21791,0.383,0.17,-0.707,-2.258,-20.629,135.803,1
6.227754,0.346,0.174,-0.689,-11.657,-21.179,138.061,1
6.234902,0.295,0.221,-0.669,-20.019,-20.69,140.258,1
6.243422,0.27,0.229,-0.652,-22.705,-21.24,142.517,1
6.250009,0.276,0.259,-0.619,-18.737,-21.179,144.775,1
6.258267,0.258,0.272,-0.606,-9.948,-22.583,147.338,1
6.264871,0.243,0.3,-0.583,-1.525,-23.132,149.292,1
6.27289,0.231,0.335,-0.586,11.657,-24.841,151.55,1
6.279378,0.227,0.361,-0.586,27.893,-27.282,154.235,1
6.287775,0.219,0.385,-0.619,41.625,-29.663,156.616,1
6.294579,0.194,0.405,-0.647,47.912,-32.409,158.508,1
6.302824,0.16,0.411,-0.666,44.982,-34.301,160.217,1
6.309454,0.119,0.387,-0.684,30.334,-34.851,162.048,1
6.317163,0.076,0.405,-0.679,16.113,-35.156,163.452,1
6.323889,0.036,0.444,-0.654,7.324,-35.949,165.039,1
6.331839,0.063,0.442,-0.662,2.075,-35.705,166.992,1
6.33877,0.063,0.485,-0.664,1.708,-36.56,169.921,1
6.346669,0.049,0.548,-0.68,9.704,-38.879,172.668,1
6.353498,0.033,0.596,-0.691,22.094,-41.931,174.926,1
6.362239,0.01,0.632,-0.711,31.982,-44.677,176.94,1
6.368871,0.011,0.708,-0.729,42.297,-48.034,178.466,1
6.377384,-0.007,0.754,-0.735,54.077,-52.856,179.504,1
6.385762,-0.029,0.778,-0.738,61.828,-56.884,180.48,1
6.392523,-0.008,0.78,-0.73,55.725,-59.326,181.152,1
6.400906,-0.032,0.834,-0.72,43.945,-61.035,181.274,1
6.409044,-0.083,0.828,-0.705,26.55,-61.401,181.152,1
6.417659,-0.111,0.911,-0.697,2.014,-61.462,180.419,1
6.424046,-0.171,0.944,-0.666,-11.474,-62.622,179.504,1
6.432363,-0.19,0.963,-0.66,-17.333,-63.354,179.016,1
6.440725,-0.207,0.981,-0.644,-17.517,-66.284,178.1,1
6.449085,-0.196,1.028,-0.618,-11.779,-68.237,177.734,1
6.455622,-0.197,1.078,-0.62,6.958,-73.73,176.269,1
6.464259,-0.19,1.116,-0.578,32.409,-78.125,175.109,1
6.472581,-0.181,1.126,-0.593,49.865,-83.618,173.767,1
6.48107,-0.186,1.067,-0.557,48.645,-88.317,173.034,1
6.487675,-0.167,1.144,-0.553,44.738,-91.003,169.616,1
6.495903,-0.242,1.096,-0.493,35.766,-94.482,168.212,1
6.50262,-0.181,1.15,-0.485,29.663,-94.482,164.855,1
6.511313,-0.215,1.172,-0.413,26.123,-98.571,162.109,1
6.518072,-0.158,1.255,-0.36,20.446,-97.351,161.315,1
6.524999,-0.169,1.234,-0.352,24.414,-102.722,158.386,1
6.532841,-0.196,1.227,-0.273,33.874,-101.989,156.677,1
6.541534,-0.086,1.327,-0.289,29.968,-102.416,154.296,1
6.548641,-0.151,1.292,-0.237,30.212,-106.567,152.404,1
6.556868,-0.163,1.282,-0.189,31.188,-104.736,150.878,1
6.563774,-0.132,1.264,-0.165,19.592,-107.116,150.451,1
6.572261,-0.16,1.305,-0.134,26.184,-107.116,147.338,1
6.579429,-0.204,1.353,-0.072,39.733,-108.398,144.775,1
6.58607,-0.267,1.238,-0.085,44.494,-108.764,142.761,1
6.594965,-0.144,1.323,-0.012,42.907,-107.36,139.038,1
6.601512,-0.212,1.333,0.011,42.907,-109.313,136.23,1
6.608247,-0.219,1.308,0.042,38.208,-105.957,133.422,1
6.615378,-0.177,1.309,0.039,25.207,-105.224,130.493,1
6.623662,-0.164,1.312,0.068,16.235,-102.722,127.868,1
6.632084,-0.083,1.472,0.09,16.479,-100.463,125.305,1
6.638811,-0.212,1.469,0.093,32.043,-103.637,123.291,1
6.645303,-0.228,1.462,0.123,49.316,-103.027,121.582,1
6.653711,-0.224,1.446,0.091,62.255,-104.675,118.713,1
6.660902,-0.24,1.434,0.129,67.749,-105.102,115.722,1
6.667494,-0.276,1.435,0.133,64.941,-103.393,112.915,1
6.674689,-0.29,1.437,0.129,54.443,-101.989,109.863,1
6.682649,-0.312,1.343,0.141,33.996,-99.365,108.886,1
6.689782,-0.301,1.427,0.121,27.404,-95.397,104.064,1
6.69807,-0.336,1.498,0.144,26.245,-95.642,100.83,1
6.704818,-0.3,1.47,0.14,28.869,-92.407,97.778,1
6.711792,-0.253,1.478,0.124,30.212,-92.407,94.604,1
6.719642,-0.263,1.468,0.149,34.301,-91.003,91.735,1
6.726792,-0.238,1.473,0.152,40.588,-90.698,88.684,1
6.735145,-0.252,1.452,0.177,45.898,-90.148,85.632,1
6.741742,-0.27,1.418,0.181,44.006,-88.317,82.824,1
6.749571,-0.247,1.407,0.185,39.367,-86.791,79.895,1
6.757602,-0.252,1.401,0.194,36.376,-85.021,77.575,1
6.765709,-0.255,1.398,0.185,34.667,-82.946,74.035,1
6.774205,-0.239,1.377,0.19,27.221,-81.665,72.814,1
6.780387,-0.257,1.357,0.145,35.217,-81.115,68.664,1
6.788332,-0.262,1.375,0.178,46.203,-79.833,65.185,1
6.795111,-0.25,1.334,0.134,53.405,-79.406,62.011,1
6.802085,-0.219,1.298,0.135,58.776,-80.139,59.265,1
6.810869,-0.234,1.265,0.141,63.415,-79.101,57.434,1
6.819279,-0.201,1.237,0.122,64.88,-78.735,55.48,1
6.827329,-0.195,1.211,0.131,62.805,-78.125,53.955,1
6.83367,-0.215,1.183,0.124,59.57,-77.575,52.795,1
6.840635,-0.225,1.153,0.134,54.199,-76.049,51.574,1
6.849046,-0.223,1.137,0.138,48.889,-75.012,50.659,1
6.856139,-0.216,1.118,0.144,47.668,-74.096,50.109,1
6.863282,-0.215,1.096,0.145,50.109,-74.157,49.56,1
6.869931,-0.213,1.059,0.146,57.617,-74.279,49.133,1
6.878286,-0.214,1.027,0.137,67.321,-75.012,48.828,1
6.885091,-0.216,0.993,0.14,76.965,-75.988,48.583,1
6.893407,-0.205,0.948,0.144,84.35,-76.354,48.4,1
6.900009,-0.179,0.915,0.134,91.674,-76.477,48.522,1
6.908951,-0.23,0.886,0.141,98.022,-77.209,48.706,1
6.915177,-0.236,0.858,0.145,104.492,-77.819,49.133,1
6.923412,-0.209,0.841,0.149,112.121,-79.284,49.743,1
6.931663,-0.222,0.827,0.155,120.422,-80.444,50.231,1
6.938473,-0.257,0.82,0.166,126.037,-81.542,51.086,1
6.946747,-0.289,0.809,0.173,127.929,-82.641,51.879,1
6.953332,-0.296,0.794,0.178,125.488,-83.374,51.757,1
6.961612,-0.317,0.806,0.19,120.849,-83.496,52.124,1
6.968803,-0.339,0.8,0.194,116.333,-84.411,52.185,1
6.977076,-0.36,0.788,0.208,104.98,-84.228,52.856,1
6.986036,-0.341,0.851,0.221,93.322,-82.519,51.269,1
6.992755,-0.385,0.845,0.238,74.035,-82.458,50.537,1
7.000794,-0.36,0.847,0.246,57.312,-79.895,50.598,1
7.0075,-0.37,0.874,0.247,32.531,-78.674,50.964,1
7.0144,-0.342,0.895,0.265,22.888,-76.904,51.757,1
7.022755,-0.383,0.935,0.236,18.188,-77.453,51.757,1
7.029872,-0.36,0.946,0.277,17.456,-77.941,52.185,1
7.036857,-0.418,0.867,0.237,15.014,-77.148,53.649,1
7.044755,-0.495,1.071,0.307,11.413,-75.012,53.344,1
7.051784,-0.577,0.891,0.209,9.826,-77.392,54.26,1
7.060042,-0.453,1.015,0.355,10.437,-73.852,53.71,1
7.068823,-0.446,1.039,0.328,17.395,-76.11,53.1,1
7.075763,-0.45,1.084,0.439,34.79,-73.181,51.696,1
7.082371,-0.468,1.137,0.43,52.246,-73.12,49.743,1
7.090713,-0.477,1.2,0.503,72.326,-71.472,46.447,1
7.097585,-0.483,1.203,0.481,80.2,-69.763,44.372,1
7.106037,-0.485,1.245,0.508,77.148,-67.993,42.053,1
7.112663,-0.49,1.29,0.511,70.068,-65.307,39.978,1
7.119636,-0.471,1.316,0.49,57.006,-62.438,37.78,1
7.127615,-0.525,1.368,0.465,44.25,-60.974,36.01,1
7.134511,-0.568,1.411,0.417,26.367,-58.349,33.264,1
7.141997,-0.583,1.438,0.381,5.126,-56.091,30.578,1
7.152116,-0.582,1.476,0.355,-12.39,-53.039,27.282,1
7.158229,-0.589,1.522,0.31,-24.658,-50.476,22.827,1
7.166896,-0.573,1.557,0.289,-28.625,-48.4,19.104,1
7.175337,-0.523,1.588,0.287,-26.184,-46.081,15.624,1
7.183598,-0.466,1.619,0.279,-14.099,-44.25,11.108,1
7.190386,-0.448,1.646,0.266,-0.549,-42.48,7.568,1
7.198763,-0.459,1.664,0.238,9.46,-41.015,3.845,1
7.205371,-0.448,1.691,0.211,12.756,-39.611,0.244,1
7.213305,-0.429,1.702,0.198,10.314,-37.658,-3.784,1
7.221651,-0.419,1.726,0.165,4.089,-35.4,-7.446,1
7.229381,-0.401,1.763,0.128,-4.333,-33.813,-11.169,1
7.240122,-0.395,1.811,0.078,-13.732,-31.86,-16.052,1
7.247761,-0.395,1.85,0.039,-23.925,-30.7,-21.728,1
7.257114,-0.399,1.886,0.007,-28.381,-30.395,-26.489,1
7.26611,-0.403,1.918,-0.026,-25.878,-30.517,-32.897,1
7.274785,-0.414,1.93,-0.057,-21.85,-31.372,-39.611,1
7.281576,-0.402,1.927,-0.087,-19.531,-32.226,-46.508,1
7.289881,-0.419,1.916,-0.118,-22.399,-32.897,-52.49,1
7.29836,-0.427,1.895,-0.129,-32.958,-32.775,-59.082,1
7.306764,-0.423,1.885,-0.165,-49.621,-32.897,-64.941,1
7.316193,-0.435,1.902,-0.186,-63.537,-33.691,-69.946,1
7.324866,-0.446,1.914,-0.193,-72.082,-35.827,-75.378,1
7.332809,-0.466,1.92,-0.204,-71.105,-38.94,-80.566,1
7.340107,-0.481,1.923,-0.216,-64.331,-41.564,-84.655,1
7.349199,-0.522,1.946,-0.231,-55.053,-45.349,-89.172,1
7.356531,-0.52,1.949,-0.246,-51.025,-48.217,-93.749,1
7.365864,-0.532,1.948,-0.247,-55.603,-49.987,-98.876,1
7.374193,-0.562,1.964,-0.239,-67.81,-50.781,-104.492,1
7.383339,-0.612,1.989,-0.22,-80.383,-51.513,-109.619,1
7.39189,-0.678,2.004,-0.186,-91.613,-52.734,-115.661,1
7.40073,-0.742,2.012,-0.144,-92.834,-55.236,-121.826,1
7.409494,-0.805,2.002,-0.106,-83.312,-58.227,-127.685,1
7.417022,-0.85,1.964,-0.1,-77.392,-61.523,-133.239,1
7.425592,-0.854,1.929,-0.086,-82.336,-62.805,-138.427,1
7.432991,-0.809,1.859,-0.095,-100.708,-62.988,-142.456,1
7.441933,-0.768,1.817,-0.077,-124.572,-62.499,-145.996,1
7.450478,-0.707,1.759,-0.083,-157.653,-61.401,-148.681,1
7.458034,-0.704,1.716,-0.098,-180.175,-61.34,-149.902,1
7.467281,-0.693,1.673,-0.131,-195.312,-62.805,-151.184,1
7.47642,-0.673,1.611,-0.159,-200.622,-65.795,-151.916,1
7.483742,-0.614,1.503,-0.246,-202.087,-68.359,-152.465,1
7.491645,-0.593,1.408,-0.326,-210.205,-72.387,-152.709,1
7.500303,-0.568,1.303,-0.413,-222.595,-76.538,-151.611,1
7.509731,-0.522,1.201,-0.489,-232.666,-80.749,-150.024,1
7.518678,-0.507,1.1,-0.544,-239.257,-87.036,-146.728,1
7.525466,-0.502,0.994,-0.578,-239.318,-94.848,-142.089,1
7.533579,-0.46,0.895,-0.604,-233.215,-101.745,-136.84,1
7.54204,-0.448,0.859,-0.554,-199.829,-111.511,-130.371,1
7.550517,-0.403,0.81,-0.534,-156.433,-120.91,-125.061,1
7.559683,-0.348,0.72,-0.517,-123.046,-127.258,-119.934,1
7.566782,-0.393,0.651,-0.512,-97.9,-133.056,-114.074,1
7.576221,-0.331,0.584,-0.499,-88.134,-136.108,-109.68,1
7.584378,-0.325,0.514,-0.454,-98.999,-137.634,-103.027,1
7.59345,-0.282,0.489,-0.4,-123.596,-136.291,-96.069,1
7.600407,-0.21,0.527,-0.312,-141.174,-135.986,-88.745,1
7.609373,-0.159,0.596,-0.209,-139.282,-136.657,-82.214,1
7.618503,-0.125,0.683,-0.079,-121.032,-137.023,-76.11,1
7.62691,-0.073,0.733,0.041,-103.454,-136.535,-71.96,1
7.633862,-0.052,0.769,0.104,-90.209,-133.85,-68.237,1
7.642275,-0.07,0.806,0.167,-85.937,-130.371,-65.979,1
7.649783,-0.036,0.848,0.233,-95.886,-123.535,-63.232,1
7.658628,-0.069,0.903,0.246,-101.623,-119.14,-61.828,1
7.666096,0.046,0.939,0.332,-109.924,-113.83,-61.34,1
7.674147,0.028,1.009,0.351,-121.643,-106.323,-61.096,1
7.682301,0.058,1.078,0.39,-138.549,-100.219,-60.607,1
7.690086,0.052,1.163,0.369,-155.7,-92.041,-60.791,1
7.697854,0.044,1.278,0.353,-164.306,-86.303,-62.011,1
7.706353,0.085,1.363,0.307,-161.926,-82.519,-63.72,1
7.713923,0.128,1.437,0.284,-152.282,-81.054,-66.65,1
7.721317,0.166,1.466,0.256,-134.704,-79.162,-70.495,1
7.730565,0.196,1.475,0.224,-124.816,-78.43,-73.242,1
7.739011,0.194,1.466,0.193,-124.084,-75.378,-77.331,1
7.746813,0.196,1.461,0.161,-143.737,-71.411,-81.176,1
7.753257,0.183,1.476,0.177,-169.799,-67.871,-84.899,1
7.761915,0.194,1.534,0.211,-179.626,-64.025,-90.148,1
7.769845,0.234,1.497,0.229,-171.02,-64.575,-95.031,1
7.776798,0.266,1.402,0.258,-157.714,-63.049,-99.304,1
7.785118,0.276,1.38,0.267,-135.742,-62.011,-104.797,1
7.794291,0.278,1.312,0.292,-100.036,-63.598,-111.145,1
7.80294,0.268,1.19,0.285,-73.608,-61.95,-116.516,1
7.80939,0.215,1.093,0.289,-55.969,-60.791,-122.924,1
7.818891,0.14,0.968,0.294,-52.612,-57.434,-127.319,1
7.826011,0.078,0.858,0.302,-58.105,-53.771,-131.347,1
7.833296,0.025,0.727,0.319,-75.378,-48.156,-134.826,1
7.842306,0.057,0.611,0.322,-91.369,-44.006,-136.047,1
7.851099,0.151,0.529,0.342,-89.355,-41.748,-135.131,1
7.859886,0.23,0.426,0.339,-67.81,-38.879,-132.934,1
7.867886,0.291,0.319,0.306,-55.48,-37.292,-129.943,1
7.87521,0.37,0.215,0.271,-52.856,-33.508,-125.366,1
7.883474,0.439,0.156,0.222,-57.983,-30.151,-120.239,1
7.892342,0.46,0.155,0.166,-63.903,-25.39,-114.074,1
7.899659,0.502,0.182,0.086,-59.631,-23.254,-108.703,1
7.908715,0.517,0.227,-0.013,-53.649,-19.958,-104.064,1
7.916782,0.547,0.267,-0.208,-63.781,-18.005,-100.158,1
7.924899,0.569,0.298,-0.367,-87.219,-14.526,-97.778,1
7.932323,0.616,0.401,-0.535,-107.849,-14.16,-96.252,1
7.941392,0.622,0.506,-0.701,-106.628,-14.77,-96.374,1
7.950402,0.602,0.559,-0.915,-107.36,-17.028,-98.388,1
7.957627,0.544,0.581,-1.115,-118.652,-19.653,-101.928,1
7.966041,0.538,0.591,-1.334,-132.873,-23.742,-105.651,1
7.974534,0.526,0.585,-1.558,-145.751,-30.273,-109.68,1
7.982077,0.503,0.518,-1.819,-159.301,-38.635,-113.83,1
7.991119,0.459,0.429,-2.013,-175.842,-50.964,-117.675,1
7.998165,0.366,0.285,-2.227,-193.603,-63.598,-120.3,1
8.007328,0.253,0.133,-2.361,-218.2,-78.979,-120.788,1
8.014823,0.085,-0.013,-2.492,-232.055,-97.961,-118.774,1
8.024392,-0.085,-0.194,-2.574,-232.543,-120.056,-114.501,1
8.033592,-0.277,-0.378,-2.609,-225.646,-140.93,-108.703,1
8.040638,-0.523,-0.564,-2.592,-211.73,-166.625,-100.158,1
8.050937,-0.73,-0.726,-2.553,-191.772,-193.603,-89.416,1
8.059798,-1.027,-0.94,-2.475,-173.217,-221.374,-77.087,1
8.068546,-1.428,-1.139,-2.346,-155.395,-248.535,-63.11,1
8.07689,-1.844,-1.4,-2.221,-148.193,-274.963,-47.912,1
8.084058,-2.381,-1.668,-2.042,-149.475,-295.959,-32.287,1
8.091977,-2.855,-1.863,-1.854,-143.859,-321.533,-11.962,1
8.100726,-3.396,-2.099,-1.584,-132.141,-345.214,10.009,1
8.108406,-3.85,-2.325,-1.352,-127.929,-364.257,31.127,1
8.116984,-4.28,-2.592,-1.05,-124.877,-383.728,60.241,1
8.127318,-4.671,-2.728,-0.785,-96.862,-401.855,87.158,1
8.13398,-5.216,-3.067,-0.422,-61.279,-423.156,125.061,1
8.144442,-5.638,-3.271,-0.209,-67.016,-434.265,156.311,1
8.151398,-6.224,-3.44,0.174,-81.665,-444.457,197.265,1
8.161125,-6.651,-3.559,0.426,-86.914,-453.43,243.53,1
8.168613,-7.244,-3.513,0.785,-77.27,-459.777,284.973,1
8.177803,-7.984,-3.545,1.097,-67.749,-463.928,327.941,1
8.18528,-8.914,-3.59,1.459,-56.762,-468.933,386.657,1
8.194866,-9.665,-3.669,1.751,-69.396,-466.064,434.692,1
8.202678,-10.749,-3.622,2.347,-109.13,-453.186,496.582,1
8.211163,-11.655,-3.448,2.737,-141.845,-424.987,564.331,1
8.219729,-12.854,-3.101,3.076,-180.908,-386.047,632.995,1
8.227741,-13.878,-2.77,3.297,-254.455,-338.5,692.81,1
8.235805,-14.988,-2.231,3.585,-338.623,-261.596,764.648,1
8.242759,-15.953,-1.754,3.622,-373.962,-188.781,825.5,1
8.251072,-15.998,-1.33,3.686,-399.963,-106.445,883.972,1
8.259409,-15.999,-0.779,3.587,-439.575,3.906,947.57,1
8.266535,-15.999,-0.111,3.364,-471.008,109.191,994.384,1
8.274975,-15.999,0.637,2.937,-486.877,220.397,1031.616,1
8.28167,-15.999,1.451,2.405,-487.976,330.627,1056.884,1
8.289537,-15.999,2.211,1.903,-482.604,438.171,1071.044,1
8.297737,-15.999,2.915,1.36,-489.501,548.522,1074.401,1
8.30592,-15.999,3.527,0.782,-524.719,656.677,1064.209,1
8.312338,-15.999,4.025,0.247,-581.97,772.888,1038.33,1
8.320272,-15.999,4.426,-0.301,-628.906,886.535,995.727,1
8.327359,-15.999,4.522,-0.629,-660.034,995.239,940.917,1
8.336024,-15.999,4.108,-1.302,-703.247,1089.782,890.747,1
8.342348,-15.999,3.984,-1.589,-808.41,1208.252,802.856,1
8.350447,-15.999,3.762,-1.999,-899.719,1318.725,703.735,1
8.357234,-15.999,4.114,-2.39,-987.243,1399.414,569.946,1
8.365232,-15.999,4.1,-2.375,-985.168,1467.773,421.02,1
8.372191,-15.999,3.988,-2.662,-951.049,1486.267,292.48,1
8.380257,-15.999,4.051,-2.615,-863.586,1481.75,147.949,1
8.388728,-15.999,3.845,-2.91,-679.016,1447.509,28.198,1
8.39536,-15.999,2.923,-3.206,-531.616,1386.718,-66.894,1
8.403073,-15.999,2.706,-3.61,-522.216,1342.285,-131.408,1
8.410988,-15.999,2.633,-3.908,-541.564,1286.559,-197.937,1
8.419322,-15.999,2.214,-4.062,-603.698,1227.172,-270.446,1
8.427601,-15.999,2.087,-3.979,-670.227,1162.963,-350.463,1
8.434603,-15.999,1.94,-4.07,-722.045,1083.19,-434.936,1
8.442376,-15.999,1.627,-3.874,-767.639,972.9,-530.761,1
8.451169,-15.999,1.409,-3.591,-762.145,870.727,-602.233,1
8.459203,-15.999,1.142,-3.568,-715.026,758.361,-658.813,1
8.465789,-15.999,0.792,-3.43,-653.991,640.197,-698.608,1
8.472897,-15.537,0.527,-3.263,-560.73,531.677,-719.543,1
8.480763,-14.071,0.184,-3.174,-461.242,426.513,-725.463,1
8.488616,-12.72,-0.254,-3.021,-374.206,339.904,-718.444,1
8.497487,-11.576,-0.512,-2.858,-321.533,260.07,-703.369,1
8.505946,-10.545,-0.698,-2.542,-276.55,193.054,-683.715,1
8.513507,-9.734,-0.816,-2.311,-246.154,128.356,-656.372,1
8.52165,-8.936,-0.893,-2.065,-229.797,78.43,-630.126,1
8.529253,-8.146,-0.888,-1.687,-188.964,29.724,-598.693,1
8.537688,-7.611,-0.886,-1.452,-145.263,-2.746,-572.753,1
8.545666,-7.096,-0.924,-1.254,-110.961,-32.836,-543.518,1
8.552618,-6.727,-0.917,-1.081,-85.754,-51.879,-519.409,1
8.561414,-6.304,-0.916,-0.972,-59.02,-66.284,-496.032,1
8.569837,-5.825,-0.937,-0.866,-35.766,-78.308,-473.571,1
8.5769,-5.259,-0.979,-0.792,-17.089,-86.486,-448.12,1
8.584065,-4.858,-1.018,-0.736,-11.84,-91.308,-427.001,1
8.592993,-4.485,-1.055,-0.684,-10.375,-93.811,-406.86,1
8.601257,-4.136,-1.121,-0.635,-12.695,-95.458,-387.817,1
8.609205,-3.74,-1.198,-0.611,-19.653,-96.374,-365.905,1
8.617512,-3.402,-1.252,-0.558,-22.216,-96.74,-347.595,1
8.625995,-3.194,-1.294,-0.554,-22.094,-96.252,-327.087,1
8.632874,-2.992,-1.328,-0.569,-21.85,-96.252,-307.8,1
8.641974,-2.84,-1.356,-0.563,-18.737,-96.313,-291.32,1
8.650708,-2.646,-1.426,-0.567,-13.671,-96.74,-275.878,1
8.657771,-2.391,-1.525,-0.575,-6.408,-97.473,-257.751,1
8.665186,-2.198,-1.63,-0.559,-0.122,-98.327,-242.37,1
8.674639,-1.992,-1.724,-0.54,1.098,-97.106,-226.745,1
8.682873,-1.761,-1.814,-0.494,-0.366,-96.74,-208.435,1
8.691631,-1.561,-1.918,-0.449,-4.638,-93.811,-192.26,1
8.698323,-1.39,-1.953,-0.415,-12.939,-92.468,-174.072,1
8.707199,-1.332,-1.954,-0.355,-15.563,-89.965,-159.362,1
8.714295,-1.281,-1.935,-0.335,-13.916,-87.646,-142.333,1
8.723044,-1.31,-1.894,-0.32,-8.422,-86.608,-128.601,1
8.729776,-1.336,-1.891,-0.309,2.136,-86.12,-115.539,1
8.736727,-1.266,-1.908,-0.28,22.216,-87.219,-102.966,1
8.745544,-1.151,-1.986,-0.198,52.429,-87.768,-90.209,1
8.752569,-0.99,-2.069,-0.135,75.622,-85.754,-76.66,1
8.761275,-0.87,-2.139,-0.072,82.702,-82.58,-63.476,1
8.767556,-0.788,-2.204,-0.004,73.364,-75.5,-49.804,1
8.777205,-0.673,-2.261,0.027,47.668,-66.772,-36.499,1
8.784138,-0.572,-2.293,0.061,17.639,-56.64,-22.277,1
8.792822,-0.489,-2.291,0.085,-9.582,-46.203,-6.042,1
8.799779,-0.379,-2.316,0.111,-20.202,-37.78,7.69,1
8.807693,-0.295,-2.332,0.136,-17.883,-30.761,21.911,1
8.815643,-0.196,-2.357,0.17,-11.718,-24.108,36.56,1
8.822944,-0.134,-2.378,0.196,-8.178,-15.624,53.649,1
8.830992,-0.092,-2.369,0.205,-4.821,-8.911,68.603,1
8.83877,-0.067,-2.334,0.203,2.38,-2.197,83.557,1
8.845528,-0.062,-2.291,0.164,2.868,4.882,97.9,1
8.853717,-0.089,-2.219,0.108,-10.192,13.0,111.755,1
8.860382,-0.122,-2.104,0.045,-29.357,21.789,124.755,1
8.86869,-0.166,-1.954,-0.03,-45.41,29.113,136.901,1
8.875257,-0.211,-1.782,-0.109,-56.762,36.376,147.827,1
8.883273,-0.256,-1.622,-0.173,-64.27,41.32,156.433,1
8.891232,-0.293,-1.481,-0.211,-70.19,47.058,166.076,1
8.898092,-0.321,-1.327,-0.262,-69.458,52.185,174.865,1
8.906849,-0.349,-1.208,-0.303,-63.415,56.274,183.471,1
8.91573,-0.343,-1.109,-0.357,-57.678,59.753,192.199,1
8.922011,-0.35,-0.986,-0.408,-53.955,63.781,201.965,1
8.930491,-0.391,-0.854,-0.467,-52.734,66.833,209.838,1
8.938203,-0.411,-0.709,-0.534,-51.452,69.396,216.857,1
8.945412,-0.456,-0.567,-0.599,-50.598,71.289,222.961,1
8.953671,-0.485,-0.441,-0.684,-54.626,73.73,228.942,1
8.962359,-0.551,-0.284,-0.759,-63.842,75.134,233.825,1
8.969472,-0.506,-0.191,-0.821,-68.481,76.477,237.365,1
8.976544,-0.592,-0.118,-0.867,-72.387,75.683,240.417,1
8.98349,-0.486,-0.043,-0.886,-68.847,76.232,243.53,1
8.991558,-0.437,0.001,-0.935,-62.194,74.218,245.605,1
8.999946,-0.423,0.058,-0.943,-52.612,73.12,248.413,1
9.007009,-0.351,0.136,-0.987,-42.663,71.228,251.342,1
9.015691,-0.354,0.213,-1.021,-34.301,68.176,254.76,1
9.023677,-0.338,0.286,-1.046,-24.902,65.979,257.507,1
9.030383,-0.305,0.369,-1.064,-13.793,63.232,259.704,1
9.037058,-0.269,0.424,-1.082,-0.915,59.57,262.268,1
9.045011,-0.284,0.452,-1.112,4.821,56.335,264.831,1
9.053235,-0.238,0.48,-1.134,-3.051,53.344,267.334,1
9.060376,-0.16,0.573,-1.184,-4.821,52.978,269.653,1
9.068458,-0.134,0.645,-1.266,-7.019,45.715,269.775,1
9.076844,-0.249,0.721,-1.236,-3.601,42.297,269.592,1
9.083544,-0.278,0.752,-1.257,0.732,37.292,268.859,1
9.091953,-0.309,0.75,-1.2,3.967,31.738,267.334,1
9.098647,-0.263,0.755,-1.143,14.16,29.113,267.272,1
9.107495,-0.178,0.829,-1.154,31.616,23.986,266.967,1
9.115297,-0.143,0.89,-1.138,51.635,16.784,266.662,1
9.123691,-0.182,0.915,-1.155,65.002,10.131,266.113,1
9.131984,-0.239,0.955,-1.141,60.485,4.76,266.113,1
9.138823,-0.291,0.972,-1.146,46.142,0.0,265.258,1
9.146831,-0.313,1.048,-1.118,28.137,-3.417,263.732,1
9.153522,-0.312,1.126,-1.104,18.249,-7.446,261.352,1
9.160562,-0.335,1.173,-1.107,19.958,-12.573,259.033,1
9.169266,-0.314,1.22,-1.123,32.409,-18.371,255.493,1
9.17628,-0.299,1.22,-1.11,44.616,-25.451,252.319,1
9.184638,-0.237,1.218,-1.078,57.495,-31.555,249.938,1
9.19144,-0.151,1.282,-1.049,78.857,-38.696,246.643,1
9.199997,-0.156,1.278,-1.003,107.727,-47.912,243.652,1
9.208926,-0.146,1.189,-0.929,127.929,-55.664,241.027,1
9.215458,-0.149,1.119,-0.84,133.239,-63.476,238.952,1
9.223822,-0.166,1.092,-0.75,129.943,-68.298,238.037,1
9.2309,-0.219,1.016,-0.701,102.966,-72.326,237.426,1
9.238956,-0.223,1.089,-0.637,70.495,-72.265,234.863,1
9.245925,-0.275,1.142,-0.588,45.471,-75.195,232.91,1
9.253813,-0.298,1.082,-0.519,24.841,-76.904,233.032,1
9.262165,-0.277,1.148,-0.493,15.319,-78.857,229.553,1
9.268891,-0.352,1.077,-0.396,19.897,-83.068,229.125,1
9.276777,-0.237,1.169,-0.379,35.278,-82.641,226.257,1
9.283673,-0.203,1.216,-0.329,74.035,-93.017,225.036,1
9.292207,-0.203,1.234,-0.262,95.092,-96.069,226.318,1
9.299072,-0.214,1.204,-0.264,124.206,-104.675,223.327,1
9.306207,-0.249,1.123,-0.16,135.009,-106.994,222.534,1
9.314396,-0.221,1.187,-0.131,108.825,-104.675,221.496,1
9.322939,-0.277,1.201,-0.097,75.988,-106.384,218.261,1
9.330321,-0.291,1.194,0.019,48.095,-102.905,219.848,1
9.337238,-0.218,1.307,0.007,39.489,-102.111,218.627,1
9.345824,-0.271,1.436,0.087,48.583,-103.759,216.796,1
9.353396,-0.34,1.51,0.061,59.02,-103.149,214.233,1
9.361671,-0.422,1.567,0.056,58.837,-105.651,209.899,1
9.369483,-0.475,1.584,0.07,53.466,-103.454,205.017,1
9.378201,-0.448,1.667,0.111,28.625,-101.013,200.195,1
9.386003,-0.507,1.648,0.094,30.578,-100.28,194.152,1
9.393321,-0.541,1.542,0.156,29.602,-97.656,188.903,1
9.39966,-0.421,1.697,0.205,17.822,-89.233,183.227,1
9.406526,-0.555,1.637,0.156,18.798,-93.2,178.222,1
9.413821,-0.519,1.567,0.228,15.563,-84.411,173.583,1
9.421786,-0.304,1.847,0.25,-3.723,-82.824,173.217,1
9.429791,-0.493,1.749,0.198,31.433,-86.914,167.053,1
9.436789,-0.557,1.68,0.338,71.716,-86.303,161.926,1
9.443345,-0.465,1.594,0.22,89.416,-87.768,158.447,1
9.451648,-0.492,1.569,0.301,99.182,-91.43,154.052,1
9.458011,-0.478,1.496,0.287,111.572,-90.026,151.611,1
9.466246,-0.449,1.447,0.294,110.107,-92.346,148.01,1
9.47294,-0.535,1.383,0.302,106.14,-89.111,144.836,1
9.479804,-0.5,1.354,0.265,91.247,-88.989,141.54,1
9.488418,-0.482,1.335,0.303,80.078,-86.181,138.61,1
9.495009,-0.493,1.27,0.251,70.007,-84.289,136.352,1
9.503701,-0.427,1.39,0.293,46.691,-78.796,133.667,1
9.510689,-0.522,1.409,0.155,59.326,-81.97,128.845,1
9.518838,-0.51,1.458,0.264,82.153,-82.58,124.816,1
9.525528,-0.436,1.498,0.168,98.693,-84.594,121.948,1
9.53251,-0.462,1.56,0.22,111.816,-90.332,118.53,1
9.540515,-0.5,1.432,0.198,114.807,-90.576,116.333,1
9.547823,-0.324,1.569,0.282,85.266,-89.599,115.783,1
9.554462,-0.493,1.62,0.168,100.952,-93.933,110.9,1
9.562274,-0.605,1.582,0.309,117.553,-99.487,105.468,1
9.569272,-0.578,1.231,0.236,109.191,-94.787,104.125,1
9.578039,-0.404,1.41,0.303,75.073,-94.238,100.646,1
9.586559,-0.544,1.414,0.274,76.782,-95.886,96.191,1
9.593538,-0.447,1.393,0.355,86.181,-94.482,91.613,1
9.602473,-0.368,1.404,0.314,96.313,-94.909,88.378,1
9.609602,-0.465,1.388,0.301,109.497,-94.848,84.411,1
9.616605,-0.411,1.286,0.294,90.942,-91.613,84.35,1
9.623734,-0.402,1.29,0.083,71.228,-85.754,75.378,1
9.632163,-0.633,1.171,0.19,40.466,-86.853,70.129,1
9.638718,-0.537,1.003,0.168,-7.08,-71.899,66.162,1
9.647182,-0.488,1.014,0.118,-66.772,-71.472,61.279,1
9.655567,-0.553,1.055,0.202,-107.482,-60.18,59.082,1
9.66272,-0.465,1.092,0.11,-141.479,-57.495,56.579,1
9.671092,-0.546,1.042,0.124,-155.09,-53.771,55.053,1
9.677941,-0.516,0.973,0.129,-168.945,-51.574,55.053,1
9.686211,-0.505,0.982,0.158,-159.484,-49.255,55.847,1
9.692774,-0.556,1.024,0.139,-126.464,-50.842,57.617,1
9.701143,-0.59,0.988,0.121,-83.801,-55.541,59.448,1
9.709701,-0.635,0.918,0.135,-37.963,-57.983,61.34,1
9.716603,-0.595,0.89,0.146,7.69,-64.025,63.842,1
9.724849,-0.58,0.867,0.169,48.278,-66.101,66.101,1
9.732286,-0.573,0.833,0.137,79.223,-70.861,67.687,1
9.739042,-0.593,0.786,0.148,97.045,-72.937,68.969,1
9.7459,-0.559,0.756,0.144,105.834,-74.462,70.617,1
9.754101,-0.558,0.739,0.15,103.332,-75.683,71.899,1
9.760518,-0.564,0.723,0.138,93.811,-74.646,73.181,1
9.768779,-0.57,0.725,0.14,80.078,-74.584,73.913,1
9.775543,-0.596,0.733,0.16,60.607,-72.814,74.768,1
9.782212,-0.591,0.749,0.16,39.794,-71.289,75.683,1
9.789838,-0.601,0.776,0.187,21.362,-69.213,76.354,1
9.798598,-0.61,0.791,0.184,5.493,-66.589,76.599,1
9.804825,-0.627,0.817,0.196,-8.056,-64.147,77.209,1
9.813169,-0.637,0.839,0.196,-18.127,-61.889,77.758,1
9.821198,-0.634,0.853,0.196,-24.475,-59.814,78.247,1
9.82767,-0.644,0.866,0.196,-25.512,-58.044,78.979,1
9.836086,-0.646,0.882,0.189,-21.301,-57.006,80.017,1
9.844266,-0.652,0.898,0.183,-14.16,-57.189,80.444,1
9.852206,-0.655,0.911,0.175,-0.732,-57.373,81.298,1
9.859999,-0.678,0.919,0.16,13.305,-57.983,81.909,1
9.86691,-0.709,0.924,0.153,23.01,-58.715,82.031,1
9.87389,-0.711,0.933,0.152,31.372,-59.631,82.275,1
9.880868,-0.696,0.922,0.159,36.254,-59.753,82.214,1
9.889274,-0.695,0.911,0.158,37.963,-59.082,81.97,1
9.895975,-0.704,0.901,0.155,34.851,-58.349,81.787,1
9.903069,-0.7,0.895,0.154,30.029,-57.434,81.665,1
9.9114,-0.707,0.889,0.152,23.071,-56.152,81.787,1
9.918119,-0.7,0.895,0.16,16.723,-54.87,81.787,1
9.926243,-0.693,0.91,0.162,13.122,-53.527,81.359,1
9.935103,-0.682,0.919,0.162,12.451,-52.429,80.932,1
9.941841,-0.672,0.925,0.171,14.953,-50.903,80.871,1
9.949277,-0.67,0.922,0.168,17.578,-50.109,80.383,1
9.956474,-0.675,0.917,0.165,20.629,-49.011,79.956,1
9.965047,-0.677,0.909,0.152,21.24,-48.034,79.956,1
9.971973,-0.678,0.905,0.139,20.812,-47.058,79.772,1
9.98162,-0.7,0.909,0.132,19.409,-46.142,79.833,1
9.988581,-0.694,0.911,0.125,18.249,-45.166,79.101,1
9.997212,-0.7,0.924,0.137,18.615,-44.433,78.247,1
