timestamp_s,ax,ay,az,gx,gy,gz,label
0.006611,-0.533,0.378,-0.077,-56.335,-25.39,-120.849,1
0.013627,-0.495,0.335,-0.052,-49.255,-25.695,-118.713,1
0.022195,-0.487,0.304,-0.031,-38.574,-27.526,-116.149,1
0.030183,-0.458,0.263,-0.002,-21.057,-27.465,-112.731,1
0.03784,-0.463,0.24,-0.006,-0.305,-29.907,-109.008,1
0.044468,-0.468,0.216,0.0,26.306,-31.494,-104.797,1
0.052063,-0.489,0.194,-0.013,54.809,-34.851,-101.501,1
0.060142,-0.442,0.149,-0.015,81.542,-36.315,-98.083,1
0.06898,-0.372,0.099,-0.044,101.379,-37.353,-93.933,1
0.077041,-0.32,0.08,-0.056,114.929,-37.902,-90.209,1
0.08508,-0.294,0.047,-0.057,116.333,-36.926,-86.425,1
0.091924,-0.3,0.016,-0.07,111.267,-36.743,-80.81,1
0.100449,-0.322,-0.055,-0.02,100.402,-36.132,-71.533,1
0.109309,-0.259,-0.105,-0.001,79.956,-33.142,-59.509,1
0.116575,-0.04,-0.18,0.037,48.339,-27.709,-46.325,1
0.124258,0.195,-0.225,0.045,17.517,-22.521,-35.034,1
0.132831,0.347,-0.238,0.088,-9.948,-16.54,-23.742,1
0.140883,0.381,-0.189,0.079,-28.808,-12.512,-13.732,1
0.147699,0.236,-0.131,0.125,-35.278,-9.704,-4.272,1
0.156127,0.063,-0.057,0.121,-25.634,-8.483,4.821,1
0.164127,-0.103,0.029,0.14,5.798,-8.911,14.282,1
0.172065,-0.145,0.112,0.06,42.541,-11.474,20.385,1
0.178614,-0.095,0.185,-0.002,71.289,-16.418,25.451,1
0.18707,-0.008,0.224,-0.083,83.129,-19.775,29.479,1
0.193863,0.061,0.299,-0.126,76.477,-22.46,32.897,1
0.200729,0.063,0.39,-0.16,58.166,-22.949,35.461,1
0.209124,0.063,0.52,-0.17,32.287,-22.521,37.292,1
0.215806,0.074,0.659,-0.168,10.62,-22.399,37.902,1
0.224142,0.051,0.803,-0.156,-0.183,-22.155,37.597,1
0.232152,0.02,0.939,-0.149,-0.976,-22.46,35.583,1
0.238964,0.028,1.052,-0.143,2.868,-23.498,33.569,1
0.247038,0.043,1.151,-0.147,6.164,-24.414,30.639,1
0.254855,0.05,1.24,-0.15,6.469,-26.062,28.137,1
0.261852,0.055,1.322,-0.133,7.751,-28.198,25.329,1
0.270508,0.065,1.375,-0.111,12.084,-29.724,22.399,1
0.277317,0.065,1.409,-0.083,17.761,-31.127,19.47,1
0.285276,0.083,1.408,-0.061,20.141,-31.921,16.967,1
0.293731,0.101,1.423,-0.017,20.629,-31.494,14.465,1
0.300653,0.119,1.432,0.015,19.897,-31.127,12.756,1
0.309308,0.139,1.445,0.043,17.211,-29.418,10.925,1
0.315877,0.144,1.453,0.05,9.338,-27.526,8.728,1
0.324453,0.132,1.469,0.057,0.976,-25.695,6.896,1
0.331129,0.125,1.491,0.066,-3.479,-24.719,5.187,1
0.337822,0.106,1.491,0.067,-4.333,-23.498,2.99,1
0.346168,0.1,1.477,0.064,-4.211,-22.521,0.61,1
0.354049,0.111,1.455,0.065,-3.967,-20.996,-1.708,1
0.361052,0.116,1.425,0.056,-3.662,-19.714,-3.845,1
0.368915,0.105,1.395,0.057,-5.92,-18.554,-6.225,1
0.377547,0.097,1.363,0.059,-8.972,-16.54,-8.728,1
0.384373,0.094,1.33,0.059,-12.451,-14.953,-10.62,1
0.393329,0.087,1.289,0.053,-17.517,-12.939,-12.39,1
0.400074,0.061,1.249,0.052,-24.597,-11.047,-13.916,1
0.407017,0.057,1.234,0.054,-29.235,-8.972,-15.747,1
0.414171,0.044,1.207,0.061,-27.832,-7.69,-17.456,1
0.422774,0.044,1.155,0.069,-24.719,-6.53,-18.676,1
0.429913,0.045,1.102,0.06,-26.55,-3.479,-19.836,1
0.438364,0.057,1.075,0.045,-29.907,-2.258,-20.507,1
0.445415,0.044,1.052,0.043,-34.179,-0.366,-20.874,1
0.453845,-0.007,1.037,0.038,-37.536,1.159,-20.263,1
0.462367,-0.037,1.021,0.041,-39.794,1.953,-20.141,1
0.469009,-0.052,1.016,0.041,-41.259,3.54,-19.409,1
0.475972,-0.066,1.0,0.037,-41.992,4.15,-18.493,1
0.485135,-0.068,0.977,0.034,-44.555,5.859,-17.517,1
0.493082,-0.065,1.02,0.038,-42.846,6.53,-15.991,1
0.501359,-0.054,1.066,0.032,-33.508,6.286,-14.831,1
0.507909,-0.008,1.122,0.018,-18.249,5.187,-14.038,1
0.516302,0.035,1.155,0.008,-2.136,3.54,-12.817,1
0.522621,0.108,1.168,-0.039,6.53,3.173,-11.779,1
0.531024,0.157,1.191,-0.081,2.99,2.746,-10.864,1
0.539669,0.202,1.261,-0.103,-6.225,3.417,-9.887,1
0.547177,0.264,1.323,-0.131,-17.578,4.516,-8.972,1
0.553627,0.319,1.407,-0.165,-26.489,5.432,-8.666,1
0.560757,0.332,1.465,-0.211,-32.836,5.981,-8.911,1
0.568784,0.346,1.558,-0.268,-42.602,7.446,-9.765,1
0.577308,0.343,1.656,-0.346,-54.016,7.934,-11.962,1
0.585068,0.326,1.751,-0.43,-65.917,8.911,-14.892,1
0.591918,0.306,1.844,-0.534,-82.58,9.643,-20.08,1
0.600021,0.276,1.945,-0.633,-98.205,9.216,-25.817,1
0.606688,0.255,2.028,-0.727,-114.074,8.422,-32.287,1
0.615662,0.231,2.119,-0.832,-126.464,6.408,-39.062,1
0.623272,0.201,2.2,-0.928,-132.568,3.234,-46.203,1
0.629936,0.167,2.271,-1.014,-133.239,-0.976,-54.382,1
0.637919,0.124,2.329,-1.093,-130.004,-6.652,-62.438,1
0.645948,0.072,2.377,-1.157,-125.122,-12.512,-70.861,1
0.653804,0.031,2.395,-1.244,-123.046,-20.69,-80.993,1
0.662041,-0.022,2.385,-1.295,-125.427,-27.526,-89.355,1
0.670033,-0.06,2.384,-1.357,-129.699,-34.545,-98.266,1
0.677251,-0.103,2.383,-1.405,-131.164,-42.724,-106.628,1
0.685213,-0.137,2.379,-1.438,-126.403,-51.757,-115.295,1
0.693144,-0.161,2.388,-1.472,-118.408,-61.34,-124.267,1
0.699872,-0.229,2.407,-1.497,-110.778,-71.594,-133.605,1
0.707821,-0.33,2.412,-1.491,-103.027,-81.909,-143.676,1
0.716529,-0.438,2.398,-1.469,-97.167,-92.407,-154.174,1
0.723826,-0.551,2.359,-1.432,-96.74,-103.332,-166.259,1
0.730845,-0.673,2.291,-1.391,-105.834,-112.304,-175.964,1
0.738463,-0.761,2.214,-1.31,-117.797,-120.605,-184.814,1
0.746507,-0.811,2.116,-1.21,-122.497,-128.845,-191.711,1
0.754679,-0.838,1.991,-1.101,-121.765,-136.718,-197.265,1
0.762619,-0.865,1.845,-0.993,-118.591,-143.249,-201.171,1
0.769393,-0.858,1.683,-0.89,-114.196,-149.475,-203.857,1
0.77705,-0.817,1.508,-0.776,-111.022,-154.418,-204.711,1
0.785581,-0.803,1.309,-0.643,-108.764,-157.958,-204.528,1
0.794042,-0.779,1.129,-0.526,-109.13,-161.254,-202.758,1
0.800782,-0.723,0.955,-0.406,-111.45,-162.658,-199.462,1
0.809365,-0.639,0.804,-0.293,-115.783,-162.841,-194.58,1
0.817868,-0.565,0.65,-0.198,-131.469,-161.499,-187.805,1
0.824498,-0.485,0.555,-0.118,-149.719,-160.217,-180.236,1
0.831833,-0.434,0.503,-0.036,-164.978,-158.264,-171.874,1
0.840094,-0.334,0.484,0.067,-174.255,-157.043,-163.513,1
0.849284,-0.295,0.479,0.171,-176.025,-155.7,-154.846,1
0.855931,-0.27,0.458,0.297,-170.41,-154.296,-144.775,1
0.86308,-0.235,0.466,0.368,-166.748,-150.939,-136.657,1
0.871298,-0.13,0.481,0.499,-162.292,-148.62,-129.821,1
0.879759,-0.018,0.503,0.633,-148.864,-143.249,-123.596,1
0.8877,0.094,0.547,0.814,-132.019,-139.526,-118.957,1
0.895751,0.185,0.527,0.964,-117.309,-128.662,-113.586,1
0.903754,0.321,0.506,1.06,-124.999,-117.736,-109.436,1
0.91215,0.405,0.526,1.149,-150.39,-104.797,-104.736,1
0.920191,0.543,0.632,1.181,-176.269,-90.454,-100.402,1
0.928339,0.629,0.757,1.231,-181.091,-84.106,-98.571,1
0.936405,0.72,0.851,1.342,-167.053,-73.974,-97.167,1
0.944615,0.781,0.924,1.347,-155.639,-64.331,-97.534,1
0.951649,0.73,1.032,1.354,-158.996,-52.49,-99.243,1
0.960299,0.693,1.094,1.294,-170.166,-43.823,-102.416,1
0.967392,0.662,1.156,1.273,-176.208,-33.569,-106.933,1
0.976237,0.693,1.177,1.208,-178.527,-26.0,-111.206,1
0.983308,0.631,1.191,1.129,-184.997,-17.944,-115.722,1
0.991891,0.581,1.172,0.997,-201.538,-11.108,-120.3,1
0.998809,0.555,1.151,0.816,-223.266,-4.211,-126.037,1
1.007483,0.536,1.139,0.635,-232.971,-1.464,-130.432,1
1.015019,0.489,1.1,0.427,-236.633,-0.915,-134.887,1
1.023316,0.424,1.03,0.199,-242.309,-2.624,-139.526,1
1.029989,0.341,0.929,-0.04,-250.671,-6.225,-144.042,1
1.03788,0.281,0.816,-0.213,-262.634,-12.39,-148.681,1
1.046305,0.201,0.7,-0.366,-273.01,-19.348,-151.611,1
1.054247,0.072,0.591,-0.503,-279.479,-27.893,-154.174,1
1.062115,-0.056,0.456,-0.609,-279.724,-38.574,-155.761,1
1.070477,-0.153,0.238,-0.694,-277.648,-50.292,-156.066,1
1.0773,-0.289,0.033,-0.732,-278.808,-64.392,-154.052,1
1.086434,-0.403,-0.156,-0.767,-282.226,-76.171,-150.329,1
1.094351,-0.551,-0.375,-0.794,-282.226,-91.857,-143.188,1
1.103632,-0.744,-0.584,-0.803,-271.789,-105.957,-134.948,1
1.111857,-0.876,-0.795,-0.817,-249.755,-124.145,-122.863,1
1.119854,-1.021,-1.051,-0.823,-225.524,-142.395,-107.482,1
1.127933,-1.116,-1.265,-0.816,-206.176,-158.203,-93.994,1
1.137534,-1.26,-1.489,-0.73,-190.429,-174.438,-75.683,1
1.143685,-1.398,-1.684,-0.679,-176.635,-187.561,-58.593,1
1.151612,-1.555,-1.873,-0.586,-160.4,-199.829,-40.466,1
1.160798,-1.777,-2.033,-0.499,-141.357,-212.89,-18.371,1
1.169026,-1.903,-2.194,-0.412,-121.887,-223.571,1.525,1
1.176423,-2.079,-2.322,-0.324,-96.923,-235.412,23.132,1
1.18475,-2.212,-2.458,-0.245,-65.368,-248.413,48.95,1
1.192505,-2.413,-2.551,-0.13,-37.292,-258.972,71.228,1
1.200584,-2.573,-2.67,-0.041,-15.136,-270.263,94.238,1
1.208436,-2.76,-2.737,0.08,2.502,-279.968,121.765,1
1.216337,-2.951,-2.767,0.177,16.052,-288.513,145.996,1
1.22364,-3.232,-2.81,0.239,31.066,-297.485,170.166,1
1.230574,-3.519,-2.826,0.34,43.823,-305.725,194.396,1
1.238984,-3.77,-2.803,0.385,40.222,-315.673,219.055,1
1.246873,-4.245,-2.755,0.469,40.588,-325.317,249.755,1
1.253231,-4.742,-2.725,0.556,37.109,-330.383,271.789,1
1.261756,-5.178,-2.696,0.61,36.01,-335.266,300.109,1
1.268438,-5.702,-2.783,0.61,26.672,-340.026,330.261,1
1.276793,-6.197,-2.884,0.719,-4.028,-341.552,364.685,1
1.28514,-6.768,-2.866,0.816,-38.757,-338.5,402.221,1
1.292592,-7.541,-2.871,0.91,-90.515,-334.96,444.152,1
1.301294,-8.263,-2.774,1.075,-143.005,-322.936,499.389,1
1.309075,-9.092,-2.609,1.205,-185.668,-311.035,550.17,1
1.317206,-10.166,-2.292,1.434,-226.013,-293.09,603.21,1
1.324326,-11.164,-1.927,1.643,-258.483,-267.578,666.015,1
1.332883,-12.143,-1.566,1.884,-281.188,-238.22,719.665,1
1.339564,-13.168,-1.229,2.083,-306.03,-200.622,772.338,1
1.348076,-14.411,-0.775,2.311,-325.439,-153.869,823.547,1
1.355346,-15.543,-0.321,2.426,-339.477,-90.148,878.54,1
1.365072,-15.997,0.165,2.465,-347.473,-29.968,920.837,1
1.371852,-15.999,0.732,2.445,-352.294,47.058,963.195,1
1.378985,-15.999,1.188,2.388,-367.675,107.971,988.281,1
1.386234,-15.999,1.681,2.23,-404.724,190.063,1012.756,1
1.394477,-15.999,2.191,2.021,-454.04,280.578,1028.198,1
1.401239,-15.999,2.586,1.752,-498.962,377.319,1033.691,1
1.410103,-15.999,2.936,1.429,-525.634,477.233,1027.16,1
1.418602,-15.999,3.17,0.99,-552.734,597.473,1008.911,1
1.424905,-15.999,3.35,0.588,-593.383,702.209,981.994,1
1.433304,-15.999,3.372,0.194,-654.052,812.133,943.847,1
1.439658,-15.999,3.392,-0.256,-708.19,924.682,897.338,1
1.447734,-15.999,3.123,-0.816,-735.534,1008.727,852.477,1
1.45681,-15.999,3.375,-1.284,-800.72,1112.548,768.249,1
1.463637,-15.999,3.528,-1.893,-887.878,1197.082,670.776,1
1.471533,-15.999,3.422,-2.643,-970.764,1259.46,545.043,1
1.479845,-15.999,3.34,-3.356,-1086.181,1316.65,386.596,1
1.487123,-15.999,3.194,-4.335,-1226.013,1331.054,170.471,1
1.494126,-15.999,2.66,-4.669,-1357.971,1310.913,-35.888,1
1.502934,-15.999,1.64,-4.728,-1447.204,1249.816,-242.553,1
1.510964,-15.999,1.349,-3.888,-1324.768,1140.258,-423.645,1
1.518881,-15.999,1.004,-3.137,-999.694,1020.568,-546.02,1
1.525853,-15.999,0.076,-2.956,-691.711,898.681,-612.854,1
1.532906,-15.999,-0.477,-2.975,-465.698,804.931,-637.268,1
1.54084,-15.999,-0.819,-3.133,-319.824,725.891,-638.305,1
1.550038,-15.948,-1.218,-3.225,-230.468,658.142,-627.624,1
1.5576,-14.108,-1.693,-3.318,-210.388,592.529,-607.605,1
1.566802,-11.968,-2.114,-3.38,-258.544,543.396,-589.233,1
1.575164,-10.372,-2.336,-3.186,-345.825,483.886,-571.96,1
1.581972,-9.331,-2.442,-2.999,-377.441,422.607,-555.48,1
1.590532,-8.307,-2.46,-2.813,-370.117,365.966,-540.1,1
1.597246,-7.321,-2.486,-2.587,-332.153,313.659,-519.348,1
1.605675,-6.517,-2.542,-2.399,-321.533,262.939,-495.544,1
1.612376,-5.671,-2.415,-2.165,-263.549,219.482,-469.665,1
1.619811,-5.057,-2.395,-2.063,-201.416,176.513,-442.077,1
1.627374,-4.542,-2.412,-1.897,-176.94,144.042,-413.207,1
1.635427,-4.192,-2.244,-1.755,-163.513,116.271,-384.704,1
1.642468,-3.886,-2.078,-1.629,-136.901,89.111,-358.642,1
1.651003,-3.635,-1.953,-1.479,-104.003,68.176,-334.167,1
1.657619,-3.358,-1.842,-1.405,-79.162,50.109,-311.401,1
1.665601,-3.103,-1.718,-1.298,-61.34,34.24,-290.405,1
1.673776,-2.843,-1.624,-1.208,-50.231,22.583,-270.751,1
1.682026,-2.578,-1.517,-1.137,-49.011,12.207,-252.136,1
1.689914,-2.349,-1.383,-1.045,-50.659,4.15,-234.802,1
1.698303,-2.211,-1.281,-1.011,-52.001,-5.615,-215.942,1
1.706385,-2.037,-1.184,-0.94,-44.982,-14.404,-200.805,1
1.714354,-1.932,-1.128,-0.908,-29.602,-23.193,-184.326,1
1.721469,-1.848,-1.114,-0.91,-21.362,-30.334,-170.471,1
1.730392,-1.706,-1.095,-0.883,-15.441,-36.743,-157.226,1
1.737044,-1.553,-1.071,-0.846,-4.394,-42.846,-142.761,1
1.745538,-1.414,-1.041,-0.814,4.455,-47.18,-130.92,1
1.753677,-1.29,-1.014,-0.78,6.103,-49.56,-119.812,1
1.762162,-1.142,-0.973,-0.764,-1.098,-50.17,-109.741,1
1.770472,-1.009,-0.928,-0.756,-18.981,-50.17,-98.449,1
1.777213,-0.876,-0.864,-0.754,-36.315,-49.804,-89.233,1
1.785183,-0.744,-0.807,-0.749,-50.476,-50.17,-78.979,1
1.792935,-0.674,-0.754,-0.735,-53.771,-51.208,-70.312,1
1.802985,-0.592,-0.721,-0.732,-51.818,-52.856,-61.706,1
1.811302,-0.453,-0.675,-0.706,-42.602,-56.03,-52.185,1
1.817832,-0.375,-0.655,-0.676,-28.32,-58.105,-43.029,1
1.826412,-0.301,-0.617,-0.645,-16.357,-59.326,-35.766,1
1.834539,-0.198,-0.573,-0.632,-6.591,-60.119,-29.357,1
1.842826,-0.078,-0.526,-0.604,-2.38,-60.18,-23.986,1
1.850924,0.031,-0.49,-0.599,-9.338,-58.105,-17.639,1
1.858452,0.105,-0.441,-0.619,-25.573,-56.03,-12.817,1
1.86654,0.177,-0.386,-0.619,-43.701,-54.199,-8.483,1
1.873269,0.248,-0.359,-0.638,-61.645,-51.452,-3.662,1
1.880926,0.323,-0.356,-0.656,-77.27,-50.17,0.488,1
1.889283,0.388,-0.354,-0.651,-88.745,-48.583,5.126,1
1.897027,0.442,-0.35,-0.651,-93.749,-47.241,10.009,1
1.905009,0.484,-0.323,-0.64,-91.003,-47.241,14.953,1
1.912032,0.502,-0.305,-0.625,-81.542,-47.058,19.47,1
1.920157,0.534,-0.281,-0.618,-70.251,-47.18,23.376,1
1.928852,0.556,-0.269,-0.607,-60.302,-47.058,27.16,1
1.936994,0.572,-0.254,-0.598,-56.152,-45.715,31.555,1
1.944864,0.564,-0.228,-0.611,-60.241,-43.334,34.79,1
1.951551,0.556,-0.194,-0.631,-69.946,-41.32,37.292,1
1.958935,0.532,-0.15,-0.649,-79.467,-39.916,39.672,1
1.967729,0.512,-0.113,-0.648,-83.74,-39.001,41.442,1
1.974292,0.511,-0.087,-0.643,-80.505,-38.452,43.518,1
1.982667,0.543,-0.064,-0.626,-69.213,-38.635,46.264,1
1.990921,0.506,-0.041,-0.614,-56.762,-38.818,48.339,1
1.998006,0.547,-0.02,-0.596,-42.236,-38.879,49.682,1
2.006492,0.549,-0.007,-0.596,-36.193,-40.039,51.147,1
2.014845,0.641,-0.043,-0.586,-42.236,-38.391,52.734,1
2.023066,0.675,-0.046,-0.574,-53.344,-36.865,54.809,1
2.029705,0.699,-0.03,-0.569,-63.476,-35.583,57.067,1
2.037659,0.709,-0.006,-0.552,-69.458,-34.606,59.631,1
2.046039,0.698,0.011,-0.541,-72.204,-33.142,62.561,1
2.05434,0.695,0.02,-0.537,-72.631,-32.409,64.636,1
2.062314,0.695,0.027,-0.532,-72.143,-31.738,66.833,1
2.068943,0.698,0.031,-0.524,-72.021,-31.249,68.481,1
2.076055,0.686,0.03,-0.504,-71.228,-30.151,70.19,1
2.084528,0.693,0.035,-0.489,-69.824,-29.296,71.716,1
2.091166,0.683,0.033,-0.475,-69.091,-28.381,73.669,1
2.099643,0.658,0.032,-0.445,-66.589,-27.526,75.561,1
2.106187,0.624,0.023,-0.42,-59.509,-26.672,77.331,1
2.11411,0.651,0.011,-0.391,-55.786,-26.0,79.895,1
2.122708,0.673,-0.015,-0.368,-54.199,-23.681,82.946,1
2.131093,0.586,-0.019,-0.336,-56.03,-22.888,86.303,1
2.137706,0.62,0.0,-0.312,-57.983,-19.897,90.27,1
2.147665,0.597,0.011,-0.294,-66.833,-16.723,94.909,1
2.154025,0.544,0.017,-0.299,-82.397,-12.634,98.876,1
2.162035,0.536,0.065,-0.273,-89.477,-11.291,102.05,1
2.168772,0.525,0.11,-0.246,-82.519,-9.643,105.041,1
2.17673,0.529,0.137,-0.225,-64.27,-10.498,107.299,1
2.184846,0.498,0.159,-0.195,-38.513,-11.474,109.802,1
2.19287,0.484,0.149,-0.177,-12.329,-13.854,112.06,1
2.199859,0.491,0.123,-0.151,12.573,-14.953,116.333,1
2.20663,0.511,0.1,-0.163,21.85,-15.808,119.323,1
2.215087,0.516,0.074,-0.168,21.118,-16.418,123.413,1
2.221781,0.514,0.061,-0.175,7.08,-15.014,127.929,1
2.230129,0.537,0.066,-0.176,-18.493,-12.756,132.629,1
2.236763,0.517,0.093,-0.167,-46.874,-9.399,137.268,1
2.24646,0.472,0.143,-0.164,-68.969,-5.554,140.991,1
2.253016,0.408,0.163,-0.114,-85.876,-2.441,144.897,1
2.261318,0.369,0.19,-0.121,-89.172,2.99,148.01,1
2.268303,0.34,0.209,-0.094,-91.674,5.615,150.451,1
2.276425,0.293,0.218,-0.095,-91.369,11.413,152.526,1
2.282917,0.25,0.246,-0.072,-96.252,15.441,154.174,1
2.291083,0.229,0.267,-0.104,-98.754,21.362,154.785,1
2.297813,0.195,0.291,-0.092,-102.722,23.193,155.151,1
2.306093,0.173,0.294,-0.112,-104.37,29.724,156.616,1
2.3142,0.21,0.281,-0.149,-106.75,32.592,157.775,1
2.320793,0.201,0.318,-0.144,-104.248,36.437,159.79,1
2.329234,0.209,0.352,-0.202,-98.144,39.55,161.437,1
2.3371,0.156,0.385,-0.215,-88.867,40.71,163.33,1
2.343799,0.103,0.423,-0.253,-80.322,42.785,164.916,1
2.351648,0.104,0.437,-0.272,-71.594,42.114,166.198,1
2.358385,0.05,0.471,-0.3,-59.387,42.846,167.541,1
2.365386,0.016,0.496,-0.314,-46.02,40.954,168.579,1
2.373563,0.003,0.519,-0.326,-34.301,41.015,169.616,1
2.380161,-0.027,0.538,-0.378,-27.893,39.733,170.532,1
2.388627,-0.064,0.555,-0.424,-22.949,38.085,171.447,1
2.397425,-0.048,0.581,-0.488,-23.376,38.574,172.79,1
2.403787,0.205,0.725,-1.04,-33.447,44.25,171.997,1
2.411818,0.086,0.717,-1.058,-64.453,27.038,168.09,1
2.418323,-0.057,0.659,-0.868,-76.232,39.367,170.043,1
2.426283,-0.068,0.66,-0.979,-90.82,33.325,168.151,1
2.432912,-0.13,0.689,-0.836,-92.163,31.555,167.968,1
2.441272,-0.055,0.786,-0.795,-78.491,33.569,167.358,1
2.447729,0.02,0.885,-0.816,-56.945,29.785,166.259,1
2.455789,0.082,0.98,-0.84,-33.203,26.672,164.794,1
2.463641,0.138,1.061,-0.869,-13.732,20.751,163.391,1
2.471344,0.176,1.118,-0.81,4.76,16.357,161.682,1
2.479711,0.201,1.155,-0.76,22.216,12.145,160.034,1
2.487699,0.203,1.158,-0.732,36.132,6.958,158.081,1
2.49435,0.186,1.15,-0.685,47.607,1.647,155.517,1
2.502241,0.211,1.15,-0.654,60.058,-2.868,153.32,1
2.510635,0.216,1.129,-0.64,74.707,-6.652,152.038,1
2.51714,0.2,1.126,-0.702,92.407,-12.939,151.0,1
2.524947,0.181,1.083,-0.723,103.515,-17.395,148.071,1
2.533217,0.151,1.02,-0.775,105.285,-20.629,146.545,1
2.541159,0.176,1.047,-0.862,98.999,-23.864,145.629,1
2.548697,0.203,1.144,-0.936,94.726,-27.954,144.47,1
2.556534,0.231,1.264,-0.996,96.252,-33.142,142.15,1
2.563272,0.24,1.355,-0.995,105.834,-39.733,138.305,1
2.571224,0.221,1.447,-0.952,115.966,-44.982,135.314,1
2.579689,0.237,1.568,-0.895,128.662,-50.964,131.286,1
2.586279,0.269,1.671,-0.833,143.554,-57.922,125.244,1
2.594355,0.299,1.737,-0.766,152.954,-63.659,119.14,1
2.602828,0.331,1.752,-0.698,156.555,-68.298,113.159,1
2.611154,0.365,1.758,-0.642,154.235,-71.289,107.177,1
2.618181,0.412,1.778,-0.611,141.113,-73.913,100.219,1
2.626067,0.423,1.792,-0.593,122.07,-74.523,94.604,1
2.634594,0.414,1.791,-0.611,99.609,-74.951,87.89,1
2.640919,0.375,1.75,-0.619,74.218,-74.462,80.993,1
2.649407,0.332,1.688,-0.612,45.288,-73.242,74.646,1
2.657639,0.28,1.653,-0.612,15.258,-72.143,68.786,1
2.665562,0.213,1.643,-0.557,-11.474,-71.105,62.805,1
2.673329,0.164,1.659,-0.522,-34.851,-69.58,56.579,1
2.680359,0.17,1.678,-0.494,-48.339,-68.481,51.147,1
2.687441,0.234,1.687,-0.482,-56.701,-67.504,46.325,1
2.696516,0.303,1.658,-0.483,-62.133,-66.955,41.931,1
2.703596,0.344,1.588,-0.518,-64.697,-67.382,39.367,1
2.710484,0.376,1.561,-0.535,-57.678,-73.303,35.034,1
2.717495,0.293,1.507,-0.428,-31.127,-73.059,30.944,1
2.725017,0.275,1.396,-0.508,-1.953,-76.293,27.099,1
2.733042,0.275,1.284,-0.466,19.592,-80.078,23.437,1
2.741586,0.295,1.17,-0.44,51.696,-82.641,19.714,1
2.749293,0.314,1.062,-0.426,69.091,-85.693,17.333,1
2.757484,0.347,0.995,-0.355,87.646,-88.195,16.052,1
2.764068,0.453,1.018,-0.326,100.463,-91.674,17.272,1
2.772485,0.515,1.028,-0.273,106.628,-92.956,18.432,1
2.780633,0.524,1.055,-0.234,105.651,-94.97,19.531,1
2.78872,0.496,1.04,-0.218,101.318,-96.374,21.85,1
2.795708,0.466,1.008,-0.219,94.787,-98.022,24.536,1
2.802665,0.478,0.936,-0.247,84.106,-99.182,28.442,1
2.811318,0.507,0.873,-0.27,73.608,-99.914,32.348,1
2.817939,0.492,0.801,-0.334,61.279,-100.341,36.743,1
2.824937,0.418,0.733,-0.411,41.992,-100.952,41.076,1
2.833405,0.309,0.689,-0.423,24.414,-100.769,44.799,1
2.84017,0.186,0.625,-0.439,4.882,-99.304,50.659,1
2.848348,0.142,0.545,-0.451,-14.953,-97.9,57.983,1
2.854833,0.014,0.518,-0.448,-37.292,-94.482,65.795,1
2.863355,-0.132,0.512,-0.491,-68.237,-93.811,74.584,1
2.870044,-0.191,0.527,-0.421,-96.496,-91.491,84.228,1
2.878736,-0.115,0.551,-0.37,-117.736,-86.547,94.665,1
2.885723,-0.215,0.586,-0.361,-138.854,-83.862,105.529,1
2.893767,0.462,0.698,-0.399,-153.991,-82.275,113.342,1
2.900369,0.281,0.888,-0.482,-158.996,-85.571,116.149,1
2.908561,0.95,1.25,-0.552,-145.141,-97.9,107.116,1
2.917076,0.837,1.538,-0.335,-97.106,-108.215,92.102,1
2.924733,0.598,1.587,-0.25,-34.118,-113.159,86.547,1
2.931615,0.644,1.725,-0.249,24.597,-123.535,81.359,1
2.939961,0.655,1.914,-0.215,95.397,-131.958,68.725,1
2.948191,0.424,1.997,-0.187,148.681,-141.357,56.64,1
2.955206,-0.005,2.104,-0.058,189.758,-146.301,46.264,1
2.963113,-0.17,2.257,-0.035,212.097,-145.202,32.531,1
2.971865,-0.352,2.291,-0.017,199.34,-147.949,18.188,1
2.97866,-0.485,2.402,0.122,170.104,-139.77,3.906,1
2.985248,-0.343,2.481,0.14,129.821,-135.192,-11.108,1
2.992496,-0.252,2.533,0.254,101.562,-129.333,-25.817,1
3.000569,0.065,2.485,0.317,88.073,-118.469,-38.635,1
3.007167,0.199,2.471,0.354,83.312,-114.624,-51.696,1
3.015368,0.159,2.375,0.416,82.58,-106.872,-63.476,1
3.022108,0.15,2.245,0.424,75.561,-100.219,-74.035,1
3.029997,0.179,2.105,0.445,64.147,-94.543,-82.214,1
3.036917,0.153,1.967,0.46,40.527,-87.036,-91.064,1
3.044986,0.082,1.855,0.48,5.554,-80.932,-97.656,1
3.05302,0.107,1.767,0.507,-29.296,-75.195,-103.393,1
3.061313,0.137,1.663,0.478,-57.983,-70.922,-108.032,1
3.067963,0.108,1.562,0.394,-82.885,-67.993,-111.755,1
3.07495,0.053,1.467,0.313,-108.398,-65.612,-114.807,1
3.083416,0.016,1.372,0.208,-132.873,-63.415,-117.126,1
3.091436,0.042,1.279,0.113,-154.479,-62.927,-118.164,1
3.097883,0.079,1.2,0.029,-169.921,-62.011,-118.835,1
3.105698,0.116,1.131,-0.052,-180.114,-62.805,-119.14,1
3.115244,0.145,1.082,-0.086,-182.922,-63.842,-118.286,1
3.122713,0.16,1.041,-0.14,-170.898,-67.138,-117.675,1
3.130582,0.111,1.009,-0.136,-142.761,-71.105,-117.187,1
3.138799,0.095,0.973,-0.187,-109.252,-77.697,-116.76,1
3.146828,0.063,0.909,-0.125,-64.941,-82.214,-115.112,1
3.153893,0.105,0.821,-0.161,-17.822,-85.144,-112.854,1
3.161845,0.188,0.7,-0.088,22.644,-90.576,-109.68,1
3.16839,0.276,0.626,-0.031,57.434,-91.003,-106.384,1
3.176283,0.396,0.519,0.0,79.04,-91.186,-101.989,1
3.18457,0.458,0.439,0.094,84.899,-87.646,-98.022,1
3.19129,0.44,0.366,0.147,71.838,-81.787,-94.665,1
3.199717,0.343,0.283,0.23,35.705,-74.279,-89.904,1
3.207663,0.479,0.187,0.312,-18.432,-63.354,-83.679,1
3.215326,0.51,0.144,0.29,-67.443,-55.297,-76.293,1
3.223732,0.408,0.11,0.409,-110.778,-44.555,-66.65,1
3.231314,0.429,0.125,0.407,-126.037,-39.916,-58.593,1
3.238383,0.466,0.134,0.432,-116.21,-36.804,-50.964,1
3.246718,0.502,0.145,0.422,-84.167,-35.156,-44.372,1
3.253733,0.669,0.112,0.371,-44.555,-33.02,-39.001,1
3.26068,0.733,0.086,0.279,-18.127,-31.372,-34.79,1
3.267714,0.741,0.06,0.206,-13.427,-27.038,-30.212,1
3.276228,0.742,0.075,0.149,-30.09,-22.949,-25.329,1
3.283174,0.758,0.13,0.115,-55.603,-16.113,-20.263,1
3.291568,0.711,0.216,0.093,-87.28,-10.62,-15.991,1
3.29851,0.667,0.313,0.039,-116.821,-4.699,-12.878,1
3.306835,0.599,0.432,0.052,-139.526,-0.183,-10.253,1
3.314914,0.573,0.544,0.018,-146.484,2.319,-8.056,1
3.3232,0.583,0.634,0.025,-140.014,3.54,-6.103,1
3.329581,0.555,0.672,-0.028,-126.037,2.38,-4.516,1
3.338106,0.581,0.752,-0.055,-113.525,3.173,-3.356,1
3.344646,0.572,0.806,-0.114,-103.088,0.549,-2.685,1
3.351642,0.246,0.836,-0.086,-88.012,-3.784,-2.075,1
3.359571,0.226,0.91,-0.169,-68.481,-2.99,-0.366,1
3.367457,0.104,1.073,-0.204,-62.866,-7.751,-0.061,1
3.375663,0.215,1.213,-0.342,-42.602,-11.962,-2.441,1
3.383747,0.179,1.351,-0.249,-24.475,-16.54,-3.234,1
3.391772,0.46,1.339,-0.504,-18.554,-21.24,-7.568,1
3.399746,0.512,1.327,-0.489,-41.992,-17.578,-11.779,1
3.407635,0.687,1.356,-0.774,-92.041,-10.864,-16.418,1
3.414485,0.837,1.373,-0.883,-171.691,-3.601,-23.315,1
3.423596,0.994,1.419,-1.058,-240.295,4.394,-28.32,1
3.431596,1.026,1.514,-1.154,-287.902,6.53,-33.935,1
3.439388,0.938,1.623,-1.224,-297.241,5.737,-39.062,1
3.446213,0.826,1.661,-1.259,-268.615,-4.15,-45.471,1
3.4546,0.764,1.647,-1.283,-227.416,-12.451,-49.987,1
3.461571,0.713,1.592,-1.339,-199.523,-22.888,-54.382,1
3.469084,0.644,1.527,-1.393,-189.941,-31.127,-57.922,1
3.476179,0.604,1.512,-1.469,-192.077,-39.184,-60.913,1
3.484523,0.574,1.531,-1.518,-189.697,-47.851,-64.331,1
3.491688,0.58,1.535,-1.581,-177.795,-57.312,-67.565,1
3.500081,0.573,1.531,-1.617,-157.958,-67.687,-71.166,1
3.508101,0.541,1.506,-1.633,-138.305,-77.697,-74.89,1
3.516278,0.5,1.494,-1.628,-121.765,-87.097,-79.101,1
3.524604,0.461,1.464,-1.568,-107.116,-97.106,-84.106,1
3.532225,0.41,1.428,-1.521,-104.675,-103.393,-88.439,1
3.540172,0.35,1.421,-1.473,-113.525,-109.985,-92.346,1
3.548599,0.312,1.433,-1.41,-121.398,-117.736,-96.801,1
3.556947,0.28,1.443,-1.34,-122.924,-124.694,-100.28,1
3.564904,0.24,1.45,-1.299,-121.093,-133.483,-104.248,1
3.572596,0.201,1.461,-1.252,-118.408,-140.991,-107.788,1
3.579544,0.125,1.461,-1.215,-114.929,-148.315,-112.182,1
3.587954,0.024,1.455,-1.175,-114.318,-155.761,-116.516,1
3.594843,-0.083,1.453,-1.117,-114.196,-162.292,-120.849,1
3.603281,-0.19,1.44,-1.081,-113.708,-169.006,-125.732,1
3.610038,-0.323,1.373,-1.033,-119.079,-174.926,-130.615,1
3.618519,-0.373,1.31,-1.019,-133.605,-179.504,-135.131,1
3.625302,-0.477,1.235,-0.975,-151.672,-183.959,-139.099,1
3.633732,-0.583,1.159,-0.972,-171.569,-189.819,-142.272,1
3.64212,-0.696,1.022,-0.979,-200.256,-194.824,-144.531,1
3.65057,-0.834,0.893,-0.949,-241.394,-202.453,-144.775,1
3.65864,-0.964,0.804,-0.905,-254.943,-211.914,-142.883,1
3.666734,-1.078,0.71,-0.833,-242.431,-225.524,-140.686,1
3.674794,-1.217,0.587,-0.732,-205.81,-240.905,-137.451,1
3.681763,-1.375,0.456,-0.658,-149.78,-258.361,-133.911,1
3.69001,-1.549,0.314,-0.606,-111.694,-272.521,-130.92,1
3.69708,-1.699,0.175,-0.559,-91.369,-284.24,-127.868,1
3.704897,-1.9,0.019,-0.514,-88.012,-293.579,-124.633,1
3.712981,-2.094,-0.084,-0.476,-97.412,-302.368,-120.239,1
3.721043,-2.261,-0.192,-0.439,-110.717,-310.791,-114.318,1
3.729695,-2.433,-0.271,-0.393,-118.835,-322.265,-105.773,1
3.737215,-2.566,-0.354,-0.342,-117.187,-333.007,-96.984,1
3.743823,-2.77,-0.434,-0.301,-108.215,-344.238,-87.524,1
3.753608,-2.969,-0.541,-0.262,-100.646,-355.346,-77.148,1
3.760272,-3.199,-0.601,-0.217,-91.308,-367.98,-65.002,1
3.768822,-3.452,-0.645,-0.157,-79.284,-380.493,-53.71,1
3.776869,-3.655,-0.728,-0.125,-63.781,-391.174,-42.907,1
3.783342,-3.94,-0.867,-0.076,-59.875,-402.343,-30.273,1
3.791725,-4.106,-0.989,-0.042,-70.129,-412.109,-12.939,1
3.799724,-4.369,-1.072,0.031,-86.73,-420.654,3.906,1
3.806508,-4.601,-1.152,0.095,-106.14,-428.1,23.742,1
3.813443,-4.888,-1.234,0.195,-128.417,-436.096,45.776,1
3.821653,-5.166,-1.369,0.306,-150.207,-440.002,67.565,1
3.828658,-5.48,-1.477,0.415,-185.913,-444.396,97.106,1
3.837143,-5.763,-1.609,0.604,-229.736,-443.603,132.751,1
3.843786,-6.149,-1.68,0.782,-275.939,-441.284,172.79,1
3.85182,-6.492,-1.697,1.062,-312.866,-432.861,217.041,1
3.858243,-6.901,-1.677,1.358,-324.34,-423.095,264.404,1
3.866211,-7.343,-1.77,1.637,-321.411,-408.63,313.964,1
3.874107,-7.353,-2.097,1.91,-364.868,-383.85,369.628,1
3.881262,-7.709,-2.087,2.227,-413.574,-353.271,419.067,1
3.889856,-8.241,-1.939,2.564,-437.194,-307.25,489.074,1
3.896409,-8.615,-1.91,2.903,-434.509,-258.178,549.072,1
3.905826,-9.082,-1.799,3.139,-444.274,-200.744,608.52,1
3.913608,-9.72,-1.591,3.313,-469.604,-119.567,674.621,1
3.921064,-10.292,-1.332,3.305,-508.178,-39.245,727.05,1
3.927962,-10.998,-0.915,3.147,-542.419,48.4,774.169,1
3.934903,-11.949,-0.478,2.852,-553.405,133.728,818.298,1
3.943237,-13.172,0.044,2.559,-535.644,206.054,849.792,1
3.949828,-14.095,0.425,2.185,-516.174,287.841,877.624,1
3.958196,-15.135,0.83,1.814,-505.554,368.103,897.033,1
3.965155,-15.999,1.283,1.466,-479.431,442.382,907.775,1
3.973645,-15.999,1.631,1.216,-439.514,511.657,912.963,1
3.980395,-15.999,1.916,0.889,-414.245,575.561,911.193,1
3.987385,-15.999,2.147,0.59,-413.757,637.084,902.038,1
3.995491,-15.999,2.368,0.284,-424.804,687.133,888.793,1
4.002106,-15.999,2.613,0.028,-436.523,743.591,866.455,1
4.010834,-15.999,2.66,-0.226,-432.495,796.63,838.439,1
4.017563,-15.999,2.806,-0.472,-463.867,844.543,803.588,1
4.024272,-15.999,2.863,-0.658,-528.686,895.141,759.643,1
4.03135,-15.999,2.891,-0.692,-580.017,953.369,707.763,1
4.039265,-15.999,2.7,-0.889,-612.793,1009.399,653.686,1
4.047433,-15.999,2.533,-1.198,-655.212,1057.251,591.003,1
4.055936,-15.999,2.657,-1.368,-680.602,1096.069,516.235,1
4.06302,-15.999,2.906,-1.71,-659.362,1122.253,418.579,1
4.07163,-15.999,3.0,-2.275,-598.51,1117.431,334.533,1
4.078241,-15.999,2.814,-2.834,-565.734,1102.294,254.394,1
4.086221,-15.999,2.697,-3.437,-611.755,1082.885,173.339,1
4.094675,-15.999,2.697,-3.916,-675.72,1062.011,84.045,1
4.101823,-15.999,2.481,-4.274,-740.417,1021.057,-12.634,1
4.110181,-15.999,2.145,-3.946,-733.703,975.585,-107.299,1
4.116893,-14.815,1.729,-3.519,-653.686,920.471,-187.744,1
4.125131,-13.395,1.356,-3.246,-539.245,859.863,-248.168,1
4.131998,-12.241,1.016,-3.148,-440.429,799.865,-291.442,1
4.140433,-11.087,0.574,-3.177,-383.239,743.835,-321.472,1
4.147186,-10.274,0.264,-3.177,-364.074,691.528,-344.36,1
4.155717,-9.384,-0.071,-3.093,-363.525,643.981,-362.487,1
4.163965,-8.496,-0.452,-3.05,-381.469,600.219,-377.624,1
4.171999,-7.55,-0.827,-3.03,-419.555,543.701,-394.775,1
4.180557,-7.016,-1.014,-2.97,-440.49,499.145,-406.005,1
4.187314,-6.413,-1.232,-2.841,-459.289,455.688,-414.916,1
4.19593,-5.676,-1.415,-2.719,-487.365,412.414,-419.799,1
4.202595,-5.125,-1.494,-2.546,-507.446,367.37,-422.424,1
4.209986,-4.592,-1.5,-2.391,-489.318,319.519,-420.41,1
4.218004,-4.069,-1.541,-2.294,-427.124,267.883,-413.33,1
4.226353,-3.686,-1.577,-2.182,-334.289,218.078,-401.306,1
4.23441,-3.413,-1.643,-2.063,-233.947,169.25,-382.263,1
4.242557,-3.059,-1.641,-1.912,-168.151,135.864,-364.99,1
4.250409,-2.785,-1.637,-1.788,-120.3,109.741,-346.923,1
4.258014,-2.446,-1.679,-1.695,-94.543,88.134,-328.674,1
4.265465,-2.111,-1.723,-1.572,-93.017,72.753,-310.546,1
4.273009,-1.895,-1.724,-1.491,-113.281,60.363,-293.029,1
4.280022,-1.651,-1.659,-1.347,-141.784,50.537,-276.367,1
4.289047,-1.468,-1.603,-1.252,-180.297,38.452,-257.324,1
4.295632,-1.321,-1.519,-1.162,-203.124,27.954,-241.516,1
4.303689,-1.199,-1.443,-1.092,-204.895,14.343,-225.28,1
4.312011,-1.107,-1.375,-1.019,-185.607,0.976,-209.472,1
4.318748,-1.025,-1.342,-0.959,-157.104,-11.718,-193.481,1
4.327198,-0.953,-1.261,-0.901,-119.75,-23.193,-179.382,1
4.33416,-0.924,-1.29,-0.891,-100.585,-32.409,-165.527,1
4.34352,-0.795,-1.276,-0.85,-89.477,-40.405,-152.282,1
4.3503,-0.726,-1.249,-0.764,-67.26,-47.668,-137.634,1
4.35887,-0.656,-1.224,-0.728,-44.555,-52.978,-125.671,1
4.365592,-0.548,-1.23,-0.681,-26.672,-55.725,-114.257,1
4.37406,-0.461,-1.216,-0.683,-18.005,-57.373,-104.431,1
4.382442,-0.42,-1.223,-0.655,-27.221,-58.166,-94.055,1
4.390891,-0.36,-1.203,-0.657,-46.752,-57.312,-82.458,1
4.398836,-0.307,-1.095,-0.609,-53.833,-56.213,-71.228,1
4.407275,-0.222,-1.071,-0.604,-57.189,-56.823,-62.255,1
4.415189,-0.213,-1.036,-0.585,-63.171,-55.847,-53.344,1
4.423147,-0.162,-1.006,-0.583,-64.392,-56.091,-42.907,1
4.430877,-0.09,-0.971,-0.546,-46.142,-57.678,-35.278,1
4.439136,-0.064,-0.989,-0.526,-22.827,-58.959,-27.77,1
4.447162,-0.031,-1.011,-0.516,-5.676,-59.387,-19.165,1
4.453946,-0.011,-1.021,-0.499,-1.525,-58.105,-12.023,1
4.463493,0.006,-1.021,-0.491,-2.929,-56.152,-5.432,1
4.471303,0.024,-0.997,-0.472,-8.056,-52.795,2.197,1
4.477822,0.047,-0.987,-0.466,-16.235,-49.804,8.483,1
4.486087,0.072,-0.975,-0.46,-30.09,-45.349,14.709,1
4.494332,0.081,-0.944,-0.458,-47.241,-40.588,20.751,1
4.500878,0.077,-0.897,-0.453,-65.185,-35.766,26.855,1
4.509298,0.06,-0.871,-0.453,-81.42,-31.738,32.897,1
4.517399,0.068,-0.833,-0.454,-84.533,-28.381,38.574,1
4.525396,0.122,-0.806,-0.433,-67.382,-27.709,43.823,1
4.533344,0.131,-0.785,-0.435,-30.822,-27.404,49.194,1
4.540058,0.136,-0.82,-0.435,-4.638,-28.076,53.161,1
4.548038,0.167,-0.839,-0.434,15.075,-25.939,57.617,1
4.554954,0.211,-0.856,-0.451,18.066,-26.184,61.828,1
4.562976,0.267,-0.834,-0.429,18.737,-21.85,66.772,1
4.570899,0.309,-0.801,-0.464,17.211,-20.08,70.861,1
4.577141,0.349,-0.767,-0.457,14.465,-16.662,74.646,1
4.584407,0.361,-0.747,-0.498,5.92,-12.939,78.613,1
4.593534,0.37,-0.716,-0.513,-11.84,-9.277,82.824,1
4.602848,0.401,-0.68,-0.538,-43.334,-3.845,87.28,1
4.609413,0.384,-0.635,-0.538,-77.453,2.075,91.125,1
4.617809,0.401,-0.575,-0.559,-100.341,6.225,94.848,1
4.624427,0.415,-0.519,-0.536,-109.924,9.094,97.9,1
4.631556,0.395,-0.477,-0.536,-107.666,10.864,101.44,1
4.639615,0.415,-0.431,-0.538,-91.552,11.474,104.187,1
4.646594,0.398,-0.398,-0.528,-67.382,10.498,106.75,1
4.654154,0.378,-0.399,-0.527,-47.973,10.253,108.581,1
4.662562,0.375,-0.396,-0.531,-31.127,10.375,111.206,1
4.669029,0.384,-0.387,-0.538,-21.301,11.169,113.647,1
4.677035,0.408,-0.37,-0.544,-17.7,12.634,116.027,1
4.68341,0.414,-0.339,-0.551,-18.005,14.099,118.713,1
4.691177,0.411,-0.304,-0.567,-22.277,15.93,120.849,1
4.699371,0.402,-0.27,-0.586,-27.648,17.395,122.802,1
4.70765,0.39,-0.246,-0.603,-37.536,18.371,124.755,1
4.715724,0.392,-0.221,-0.631,-46.936,21.118,126.525,1
4.72397,0.396,-0.206,-0.648,-55.48,21.728,128.417,1
4.730436,0.405,-0.179,-0.661,-61.34,23.315,130.432,1
4.738701,0.411,-0.165,-0.681,-64.208,23.803,132.385,1
4.745635,0.387,-0.139,-0.681,-63.842,24.353,133.911,1
4.752542,0.367,-0.125,-0.696,-58.898,23.925,135.742,1
4.761037,0.342,-0.106,-0.695,-50.109,22.949,137.329,1
4.767523,0.322,-0.1,-0.707,-38.391,21.911,138.977,1
4.775621,0.329,-0.09,-0.713,-25.329,20.446,140.747,1
4.782561,0.336,-0.079,-0.731,-11.474,18.676,142.395,1
4.790663,0.341,-0.072,-0.754,-0.671,16.601,144.592,1
4.797568,0.31,-0.069,-0.771,5.737,15.136,146.545,1
4.804955,0.343,-0.069,-0.788,7.873,13.183,149.23,1
4.812272,0.329,-0.068,-0.823,5.004,12.512,151.916,1
4.822074,0.304,-0.041,-0.833,-1.525,11.047,154.602,1
4.828816,0.263,0.016,-0.843,0.061,8.483,157.287,1
4.835726,0.251,0.041,-0.823,9.948,6.408,159.301,1
4.843919,0.248,0.072,-0.83,25.39,3.54,161.499,1
4.850728,0.252,0.096,-0.843,35.827,0.671,163.452,1
4.857367,0.26,0.125,-0.858,39.428,-1.281,164.978,1
4.865683,0.262,0.177,-0.86,39.978,-3.295,166.87,1
4.872615,0.287,0.226,-0.889,37.719,-5.371,167.907,1
4.879674,0.293,0.321,-0.866,39.733,-7.324,168.884,1
4.886655,0.32,0.352,-0.913,32.348,-9.826,168.212,1
4.894424,0.301,0.371,-0.884,17.7,-10.192,168.395,1
4.902268,0.252,0.409,-0.881,0.244,-10.375,168.395,1
4.908913,0.245,0.451,-0.857,-9.704,-11.901,167.663,1
4.916223,0.22,0.491,-0.826,-11.413,-12.695,167.175,1
4.924393,0.234,0.52,-0.817,-7.446,-14.953,166.259,1
4.931562,0.254,0.545,-0.802,0.183,-17.15,165.466,1
4.939541,0.266,0.558,-0.811,6.164,-19.287,164.733,1
4.946399,0.249,0.559,-0.812,10.498,-22.033,163.452,1
4.953224,0.231,0.566,-0.815,11.84,-24.108,162.353,1
4.961059,0.223,0.577,-0.821,10.314,-26.489,160.766,1
4.969044,0.238,0.59,-0.812,9.704,-28.015,159.179,1
4.976753,0.263,0.609,-0.818,10.681,-30.09,157.592,1
4.983459,0.312,0.654,-0.831,14.648,-32.287,156.188,1
4.991815,0.304,0.709,-0.852,16.418,-34.606,154.357,1
4.998628,0.286,0.746,-0.866,13.977,-36.682,152.404,1
5.007203,0.304,0.791,-0.864,9.46,-38.635,149.963,1
5.014045,0.321,0.84,-0.86,6.835,-40.893,147.46,1
5.020983,0.337,0.865,-0.849,6.591,-42.907,145.324,1
5.028395,0.343,0.875,-0.837,7.385,-45.471,142.761,1
5.036981,0.349,0.87,-0.82,8.3,-48.034,139.587,1
5.043581,0.359,0.848,-0.798,7.69,-50.72,136.962,1
5.051818,0.354,0.83,-0.779,5.065,-52.978,134.643,1
5.058336,0.401,0.827,-0.771,6.042,-55.114,132.568,1
5.066441,0.435,0.832,-0.777,10.375,-57.983,130.92,1
5.073206,0.452,0.829,-0.772,16.296,-60.791,129.455,1
5.080133,0.446,0.826,-0.768,22.277,-63.476,127.929,1
5.088469,0.415,0.824,-0.765,24.597,-65.246,127.197,1
5.095467,0.414,0.82,-0.758,25.329,-67.504,126.037,1
5.103585,0.414,0.809,-0.734,24.536,-69.335,124.999,1
5.111674,0.401,0.791,-0.712,22.644,-70.434,124.145,1
5.118276,0.407,0.762,-0.676,19.409,-71.533,123.352,1
5.125316,0.417,0.749,-0.638,14.465,-72.021,122.741,1
5.133465,0.423,0.739,-0.619,10.375,-72.937,122.497,1
5.140558,0.43,0.736,-0.592,10.375,-73.12,122.253,1
5.147607,0.463,0.742,-0.588,13.671,-73.791,122.314,1
5.155929,0.467,0.754,-0.592,15.869,-74.646,121.826,1
5.1627,0.424,0.76,-0.583,11.23,-74.707,121.154,1
5.169576,0.44,0.779,-0.579,5.065,-74.401,120.91,1
5.178058,0.474,0.79,-0.575,-1.525,-74.462,120.239,1
5.186178,0.462,0.795,-0.551,-6.103,-74.523,119.812,1
5.194244,0.419,0.796,-0.536,-12.207,-74.157,119.567,1
5.202645,0.4,0.806,-0.508,-12.573,-74.401,119.445,1
5.210512,0.396,0.811,-0.485,-7.263,-74.646,119.262,1
5.217167,0.416,0.814,-0.478,1.586,-75.378,119.201,1
5.22659,0.389,0.817,-0.476,8.361,-76.293,118.469,1
5.234515,0.335,0.825,-0.456,15.197,-77.026,117.614,1
5.241279,0.287,0.806,-0.438,22.094,-77.575,116.394,1
5.249834,0.256,0.78,-0.415,25.695,-77.697,115.356,1
5.257801,0.245,0.76,-0.393,26.0,-77.575,114.44,1
5.266114,0.239,0.745,-0.363,22.583,-77.026,114.257,1
5.273501,0.25,0.769,-0.35,14.892,-75.378,113.403,1
5.281393,0.24,0.811,-0.345,5.554,-73.73,112.548,1
5.289511,0.238,0.866,-0.347,-5.004,-72.082,111.755,1
5.297439,0.243,0.91,-0.344,-13.427,-70.678,110.9,1
5.306064,0.217,0.959,-0.345,-14.648,-70.007,110.046,1
5.313038,0.191,1.001,-0.34,-9.582,-69.763,108.581,1
5.320634,0.186,1.02,-0.335,1.22,-70.617,107.36,1
5.328891,0.176,1.025,-0.318,11.84,-71.594,105.957,1
5.33561,0.188,1.016,-0.303,23.986,-72.265,104.248,1
5.344315,0.205,1.007,-0.285,34.362,-72.57,102.966,1
5.352452,0.227,1.0,-0.262,42.663,-73.059,101.379,1
5.358734,0.235,1.02,-0.261,43.945,-72.875,99.853,1
5.36667,0.213,1.045,-0.268,37.475,-71.899,98.449,1
5.375104,0.198,1.069,-0.27,27.16,-70.8,96.496,1
5.381762,0.194,1.083,-0.263,15.808,-69.519,94.543,1
5.390006,0.182,1.085,-0.245,8.544,-68.298,92.712,1
5.396773,0.156,1.089,-0.246,2.319,-66.65,91.308,1
5.404762,0.176,1.107,-0.231,-0.793,-65.612,90.087,1
5.413544,0.199,1.119,-0.217,1.22,-64.819,88.439,1
5.421209,0.195,1.12,-0.206,4.638,-64.086,86.975,1
5.428002,0.169,1.115,-0.195,7.324,-63.293,85.388,1
5.43735,0.169,1.12,-0.17,10.07,-62.499,84.106,1
5.444,0.179,1.118,-0.156,14.16,-61.645,82.397,1
5.452135,0.168,1.111,-0.142,18.31,-60.791,80.688,1
5.460097,0.179,1.106,-0.137,20.385,-59.753,79.162,1
5.468303,0.21,1.108,-0.136,22.338,-58.715,77.88,1
5.476471,0.228,1.122,-0.138,25.756,-57.556,76.232,1
5.484432,0.224,1.13,-0.148,27.893,-56.518,75.134,1
5.492225,0.217,1.126,-0.164,25.695,-55.541,73.669,1
5.499275,0.215,1.144,-0.166,20.874,-53.955,72.082,1
5.507405,0.211,1.146,-0.17,17.333,-52.856,70.861,1
5.51598,0.191,1.152,-0.164,14.099,-51.513,69.335,1
5.522113,0.179,1.14,-0.161,9.826,-49.804,68.42,1
5.529955,0.186,1.118,-0.158,4.394,-48.339,67.26,1
5.53803,0.199,1.116,-0.149,-2.929,-46.142,66.162,1
5.54483,0.204,1.133,-0.151,-8.483,-44.738,65.124,1
5.552782,0.204,1.159,-0.138,-9.155,-43.457,64.331,1
5.560763,0.19,1.194,-0.136,-4.699,-43.029,62.683,1
5.567489,0.171,1.209,-0.143,3.479,-42.907,61.34,1
5.577251,0.157,1.206,-0.146,10.375,-42.846,59.509,1
5.583918,0.155,1.193,-0.15,14.221,-42.724,57.739,1
5.590445,0.147,1.18,-0.156,14.404,-42.358,56.152,1
5.598455,0.153,1.171,-0.161,12.39,-41.503,54.565,1
5.605333,0.147,1.163,-0.168,7.019,-40.588,53.1,1
5.613439,0.139,1.164,-0.175,-0.244,-39.306,51.391,1
5.621267,0.126,1.16,-0.179,-5.859,-38.269,49.682,1
5.629188,0.121,1.153,-0.18,-8.483,-37.597,48.217,1
5.63723,0.136,1.131,-0.171,-5.676,-36.987,46.569,1
5.645473,0.092,1.116,-0.166,-7.446,-36.132,45.41,1
5.653405,0.127,1.11,-0.162,-7.812,-35.766,44.189,1
5.661263,0.133,1.104,-0.145,-5.859,-35.156,43.212,1
5.669683,0.134,1.104,-0.146,-3.967,-34.423,42.785,1
5.677767,0.138,1.099,-0.145,-3.417,-33.691,42.175,1
5.685746,0.14,1.106,-0.142,-0.793,-33.264,41.381,1
5.693996,0.132,1.105,-0.15,2.38,-33.02,40.71,1
5.700657,0.129,1.096,-0.157,4.15,-32.897,39.855,1
5.70891,0.134,1.081,-0.166,5.371,-32.348,39.55,1
5.715568,0.139,1.073,-0.177,4.943,-31.86,38.513,1
5.723311,0.135,1.063,-0.185,3.662,-31.249,37.78,1
5.730219,0.134,1.068,-0.187,1.77,-31.005,37.597,1
5.738835,0.133,1.07,-0.193,-0.183,-30.334,36.682,1
5.745624,0.136,1.074,-0.192,-1.831,-30.517,36.254,1
5.752263,0.13,1.081,-0.19,-2.99,-30.273,35.766,1
5.760444,0.125,1.088,-0.191,-2.868,-30.212,35.278,1
5.768827,0.119,1.102,-0.189,-1.098,-30.151,34.484,1
5.775838,0.118,1.108,-0.187,1.037,-30.395,33.996,1
5.782773,0.124,1.111,-0.184,4.882,-30.7,32.836,1
5.791358,0.125,1.106,-0.188,9.277,-30.944,31.921,1
5.798061,0.128,1.098,-0.186,12.756,-31.127,31.127,1
5.805992,0.125,1.091,-0.185,15.258,-31.372,30.456,1
5.812952,0.129,1.079,-0.186,15.258,-31.127,29.541,1
5.821188,0.127,1.071,-0.191,13.061,-30.7,29.113,1
5.829081,0.126,1.065,-0.193,8.544,-30.212,28.442,1
5.835757,0.126,1.079,-0.186,3.723,-29.907,28.015,1
5.84272,0.117,1.093,-0.186,0.061,-29.479,27.587,1
5.851011,0.132,1.101,-0.175,1.22,-29.357,27.038,1
5.857655,0.06,1.105,-0.168,-0.183,-28.991,26.428,1
5.86484,0.076,1.104,-0.168,-0.732,-28.93,25.939,1
5.873243,0.085,1.095,-0.168,-0.549,-29.357,25.207,1
5.879929,0.077,1.093,-0.163,-0.183,-29.113,24.78,1
5.887926,0.074,1.099,-0.16,2.563,-29.235,24.047,1
5.895806,0.07,1.094,-0.164,6.835,-29.418,23.376,1
5.903963,0.073,1.097,-0.169,11.657,-29.846,22.766,1
5.910826,0.078,1.091,-0.176,17.089,-30.212,22.094,1
5.917787,0.088,1.095,-0.184,21.301,-30.456,21.362,1
5.924925,0.083,1.096,-0.191,24.169,-30.578,20.874,1
5.93331,0.08,1.097,-0.202,24.291,-30.578,20.202,1
5.939821,0.072,1.093,-0.207,23.071,-30.578,19.714,1
5.947488,0.077,1.082,-0.215,19.958,-29.968,19.165,1
5.954034,0.068,1.082,-0.215,16.845,-30.029,18.493,1
5.963847,0.064,1.086,-0.215,16.54,-30.151,18.554,1
5.972183,0.054,1.089,-0.216,17.272,-29.846,18.554,1
5.97916,0.043,1.092,-0.208,16.906,-29.479,17.883,1
5.986953,0.035,1.093,-0.206,15.075,-29.052,17.639,1
5.994714,0.036,1.095,-0.198,13.488,-28.686,17.15,1
6.002086,0.048,1.091,-0.201,11.535,-28.015,16.479,1
6.009811,0.057,1.097,-0.2,9.887,-27.709,15.686,1
6.018437,0.076,1.094,-0.215,8.422,-27.343,15.502,1
6.025489,0.104,1.098,-0.214,7.934,-26.733,14.709,1
6.033818,0.124,1.097,-0.236,5.737,-26.367,14.282,1
6.041701,0.125,1.096,-0.24,1.892,-26.611,14.038,1
6.050073,0.135,1.098,-0.249,-2.075,-26.306,13.61,1
6.058348,0.136,1.104,-0.262,-7.019,-26.916,13.183,1
6.064847,0.126,1.109,-0.259,-11.84,-26.855,12.817,1
6.073125,0.146,1.105,-0.27,-15.93,-27.526,12.329,1
6.081499,0.122,1.108,-0.259,-21.85,-27.893,11.84,1
6.088608,0.085,1.117,-0.258,-22.888,-28.625,11.047,1
6.096726,0.078,1.11,-0.246,-19.409,-29.235,10.62,1
6.104708,0.086,1.099,-0.246,-17.089,-30.517,9.582,1
6.113259,0.075,1.078,-0.226,-13.732,-31.433,8.666,1
6.121274,0.071,1.062,-0.23,-12.451,-32.165,7.629,1
6.127696,0.058,1.052,-0.213,-10.559,-32.714,6.896,1
6.136267,0.048,1.035,-0.217,-10.192,-33.386,5.859,1
6.142702,0.081,1.013,-0.211,-11.596,-34.179,4.821,1
6.150728,0.031,1.022,-0.195,-12.268,-33.874,4.089,1
6.157604,0.029,1.016,-0.202,-12.329,-35.095,3.173,1
6.166095,0.043,0.994,-0.196,-13.916,-34.912,2.746,1
6.172657,0.07,0.97,-0.197,-18.188,-35.217,2.136,1
6.180269,0.04,0.94,-0.187,-23.193,-35.217,2.319,1
6.18839,0.056,0.947,-0.179,-30.517,-34.851,2.624,1
6.194978,0.057,0.944,-0.165,-31.372,-35.522,2.563,1
6.203552,0.03,0.948,-0.146,-23.803,-35.461,2.746,1
6.211407,0.036,0.947,-0.142,-12.817,-36.743,3.051,1
6.219621,0.056,0.938,-0.131,-1.892,-37.109,2.929,1
6.227588,0.06,0.931,-0.131,7.324,-37.963,3.295,1
6.235561,0.054,0.916,-0.121,11.23,-37.597,3.54,1
6.243768,0.061,0.911,-0.118,12.39,-37.658,3.723,1
6.250356,0.068,0.9,-0.108,11.718,-36.865,3.784,1
6.257393,0.062,0.888,-0.111,8.361,-36.437,4.333,1
6.265831,0.061,0.862,-0.103,0.854,-35.095,5.493,1
6.272305,0.079,0.858,-0.102,-3.784,-34.362,5.676,1
6.280593,0.058,0.843,-0.079,-4.699,-34.057,6.408,1
6.288887,0.067,0.822,-0.079,-7.629,-33.02,7.873,1
6.297089,0.093,0.807,-0.065,-8.117,-33.081,8.85,1
6.303985,0.106,0.785,-0.051,-8.3,-33.02,11.23,1
6.313018,0.129,0.735,-0.049,-9.582,-33.02,13.671,1
6.319509,0.094,0.719,-0.032,-13.732,-32.409,16.357,1
6.32749,0.106,0.693,-0.046,-15.686,-31.616,19.348,1
6.334141,0.071,0.684,-0.03,-17.761,-30.7,21.728,1
6.341913,0.018,0.695,-0.012,-20.08,-28.564,24.23,1
6.349708,0.004,0.707,-0.008,-20.935,-26.733,25.817,1
6.35771,0.02,0.692,0.005,-20.568,-24.658,27.038,1
6.364266,0.032,0.673,0.021,-23.193,-22.827,28.747,1
6.372104,0.039,0.7,0.039,-26.123,-20.08,30.09,1
6.379032,0.032,0.712,0.03,-27.709,-18.676,31.311,1
6.388198,0.011,0.75,0.05,-26.062,-15.93,32.714,1
6.396227,-0.002,0.809,0.044,-19.47,-14.648,33.203,1
6.402859,-0.039,0.868,0.055,-5.798,-13.671,33.447,1
6.410885,-0.04,0.908,0.051,10.009,-12.573,34.301,1
6.418829,-0.037,0.955,0.045,18.798,-11.413,34.301,1
6.425411,-0.059,1.004,0.034,23.254,-9.521,34.24,1
6.433251,-0.065,1.062,0.022,24.902,-7.568,33.508,1
6.441195,-0.078,1.107,0.023,23.315,-4.882,32.165,1
6.449125,-0.054,1.135,0.01,17.028,-1.525,30.822,1
6.456034,-0.01,1.187,0.007,8.605,2.136,28.991,1
6.464057,-0.004,1.236,-0.002,4.028,5.371,26.733,1
6.470689,-0.023,1.268,-0.015,1.525,7.69,24.719,1
6.478223,-0.02,1.293,-0.038,1.22,9.521,22.521,1
6.486448,-0.019,1.303,-0.054,1.586,11.535,20.08,1
6.494224,-0.039,1.323,-0.083,2.38,12.573,17.517,1
6.502506,-0.03,1.351,-0.118,3.54,14.038,15.197,1
6.509994,-0.044,1.365,-0.157,4.516,14.16,12.512,1
6.518147,-0.054,1.382,-0.171,9.155,14.526,9.582,1
6.525722,-0.038,1.379,-0.212,14.282,14.221,6.042,1
6.534469,-0.036,1.371,-0.226,16.662,14.831,3.356,1
6.540617,-0.017,1.363,-0.258,17.883,14.953,0.915,1
6.548524,-0.01,1.353,-0.281,17.395,15.319,-1.464,1
6.558289,0.001,1.337,-0.298,14.038,15.93,-3.967,1
6.564876,0.007,1.327,-0.316,5.615,16.906,-6.469,1
6.572786,0.014,1.322,-0.324,-2.502,18.31,-8.728,1
6.579449,0.018,1.32,-0.331,-8.728,18.981,-10.803,1
6.586804,0.024,1.316,-0.33,-11.84,19.226,-12.207,1
6.594237,0.057,1.313,-0.344,-10.986,19.714,-13.793,1
6.601771,0.051,1.309,-0.364,-11.413,19.714,-15.38,1
6.610021,0.048,1.307,-0.377,-12.39,19.897,-16.784,1
6.616527,0.051,1.309,-0.399,-12.695,19.348,-18.066,1
6.623816,0.029,1.312,-0.42,-10.864,18.737,-19.409,1
6.631813,0.011,1.31,-0.447,-8.239,17.761,-20.69,1
6.640082,0.008,1.317,-0.463,-5.249,16.601,-21.728,1
6.646686,0.0,1.331,-0.481,-0.183,15.014,-22.949,1
6.653451,0.006,1.349,-0.492,6.713,12.695,-24.475,1
6.661493,0.036,1.389,-0.504,14.221,10.131,-25.756,1
6.66811,0.046,1.432,-0.519,23.864,6.652,-26.733,1
6.676102,0.072,1.473,-0.52,33.447,3.662,-28.137,1
6.683936,0.113,1.487,-0.553,39.55,0.854,-29.541,1
6.692226,0.13,1.503,-0.588,43.09,-0.671,-30.944,1
6.698753,0.183,1.52,-0.662,40.771,-3.295,-33.081,1
6.705352,0.147,1.511,-0.708,28.015,-4.089,-35.156,1
6.712952,0.162,1.5,-0.741,5.493,-4.272,-37.536,1
6.720887,0.171,1.527,-0.736,-16.479,-4.882,-39.611,1
6.728839,0.187,1.557,-0.722,-30.517,-5.065,-41.809,1
6.73696,0.197,1.577,-0.694,-37.597,-6.896,-43.701,1
6.743661,0.203,1.591,-0.667,-41.564,-8.117,-45.227,1
6.751232,0.199,1.626,-0.666,-46.264,-9.948,-47.18,1
6.759492,0.188,1.663,-0.669,-48.522,-12.023,-49.377,1
6.767397,0.164,1.708,-0.689,-47.607,-14.587,-51.94,1
6.775787,0.136,1.735,-0.705,-46.936,-18.005,-55.664,1
6.783615,0.124,1.734,-0.742,-48.278,-20.69,-59.082,1
6.793414,0.102,1.729,-0.745,-50.109,-23.559,-63.049,1
6.799946,0.08,1.702,-0.769,-54.016,-26.062,-67.443,1
6.807686,0.051,1.7,-0.776,-60.241,-27.709,-71.166,1
6.816667,0.025,1.71,-0.802,-68.298,-30.09,-75.439,1
6.825386,-0.012,1.727,-0.812,-74.157,-32.165,-80.017,1
6.832479,-0.035,1.716,-0.81,-84.167,-34.24,-85.144,1
6.839001,-0.05,1.708,-0.79,-93.872,-35.949,-88.928,1
6.847005,-0.063,1.705,-0.777,-98.693,-38.33,-92.102,1
6.855316,-0.076,1.691,-0.752,-101.745,-40.771,-95.275,1
6.861973,-0.103,1.649,-0.723,-105.041,-42.846,-97.9,1
6.870026,-0.124,1.601,-0.708,-110.595,-44.86,-100.097,1
6.878392,-0.146,1.551,-0.669,-115.295,-46.386,-101.44,1
6.88698,-0.172,1.508,-0.656,-115.234,-48.217,-102.539,1
6.8956,-0.189,1.458,-0.668,-118.774,-49.926,-104.003,1
6.904248,-0.192,1.408,-0.652,-126.098,-50.903,-104.858,1
6.910907,-0.182,1.377,-0.646,-132.873,-52.124,-105.712,1
6.918042,-0.199,1.358,-0.652,-137.878,-52.917,-106.079,1
6.926733,-0.203,1.331,-0.652,-145.202,-54.077,-106.689,1
6.934701,-0.178,1.323,-0.651,-154.296,-54.87,-106.994,1
6.943053,-0.158,1.337,-0.646,-157.104,-56.518,-107.055,1
6.950426,-0.146,1.352,-0.647,-154.907,-58.349,-107.36,1
6.958589,-0.125,1.37,-0.663,-149.719,-61.096,-108.276,1
6.965431,-0.122,1.393,-0.689,-146.423,-62.927,-109.802,1
6.973528,-0.157,1.416,-0.758,-148.437,-64.941,-111.45,1
6.98039,-0.207,1.442,-0.837,-161.193,-68.664,-114.746,1
6.988162,-0.236,1.451,-0.902,-172.424,-71.716,-117.736,1
6.996049,-0.183,1.433,-0.975,-185.18,-77.636,-121.398,1
7.005426,-0.223,1.425,-1.04,-189.819,-84.533,-124.877,1
7.012181,-0.257,1.395,-1.127,-191.101,-92.834,-128.845,1
7.020432,-0.282,1.354,-1.172,-191.223,-103.942,-133.178,1
7.028611,-0.327,1.292,-1.205,-189.88,-114.44,-136.779,1
7.038101,-0.393,1.204,-1.228,-188.842,-127.014,-140.747,1
7.044823,-0.436,1.11,-1.245,-192.321,-138.183,-143.676,1
7.053144,-0.507,1.001,-1.236,-198.852,-151.855,-146.301,1
7.061037,-0.586,0.916,-1.207,-201.171,-163.879,-147.644,1
7.069248,-0.649,0.832,-1.187,-199.584,-176.94,-148.254,1
7.078927,-0.759,0.742,-1.16,-197.509,-190.002,-148.559,1
7.087331,-0.929,0.632,-1.136,-193.664,-208.007,-148.132,1
7.095259,-1.084,0.533,-1.1,-184.814,-224.365,-147.094,1
7.103458,-1.229,0.45,-1.062,-171.203,-238.281,-145.751,1
7.11181,-1.404,0.361,-1.036,-154.785,-253.478,-144.653,1
7.118336,-1.565,0.274,-1.002,-133.483,-269.958,-142.7,1
7.126297,-1.726,0.191,-0.978,-118.957,-282.775,-141.113,1
7.135685,-1.874,0.092,-0.942,-101.135,-299.56,-138.305,1
7.141982,-2.066,-0.005,-0.912,-91.491,-314.331,-135.375,1
7.150335,-2.232,-0.087,-0.879,-83.923,-328.918,-131.225,1
7.158382,-2.404,-0.165,-0.838,-77.819,-343.749,-125.976,1
7.166494,-2.564,-0.227,-0.791,-65.49,-360.778,-119.75,1
7.174481,-2.755,-0.279,-0.745,-47.363,-376.342,-114.379,1
7.182427,-2.903,-0.324,-0.702,-27.221,-391.418,-109.558,1
7.189006,-3.139,-0.282,-0.628,2.014,-407.714,-106.811,1
7.196398,-3.418,-0.334,-0.593,27.465,-423.461,-104.736,1
7.204882,-3.649,-0.43,-0.576,35.339,-437.927,-101.989,1
7.211709,-3.816,-0.48,-0.58,27.893,-450.927,-97.595,1
7.218768,-4.041,-0.522,-0.576,12.695,-464.355,-91.247,1
7.227312,-4.297,-0.562,-0.54,-0.488,-477.539,-82.885,1
7.234042,-4.562,-0.579,-0.512,-12.756,-491.516,-73.425,1
7.24199,-4.844,-0.563,-0.47,-19.104,-505.737,-63.415,1
7.250572,-5.302,-0.543,-0.397,-21.362,-522.033,-52.978,1
7.257352,-5.816,-0.516,-0.324,-18.31,-541.442,-41.32,1
7.265822,-6.386,-0.564,-0.236,-20.568,-559.082,-30.456,1
7.272856,-6.894,-0.664,-0.119,-34.79,-574.096,-16.662,1
7.281421,-7.228,-0.795,-0.006,-62.194,-587.829,0.671,1
7.288299,-7.725,-0.893,0.132,-113.281,-596.252,24.047,1
7.296282,-8.255,-0.983,0.263,-192.443,-599.243,55.603,1
7.304315,-8.688,-1.092,0.484,-286.621,-599.304,97.167,1
7.311245,-8.935,-1.258,0.831,-366.638,-594.665,150.573,1
7.319762,-9.169,-1.425,1.2,-433.105,-580.322,214.477,1
7.326389,-9.375,-1.577,1.602,-475.707,-558.837,285.888,1
7.334359,-9.49,-1.968,2.096,-537.536,-518.92,367.187,1
7.34175,-9.924,-1.943,2.604,-593.383,-467.956,451.293,1
7.348424,-10.534,-1.908,3.114,-607.605,-404.235,537.048,1
7.357069,-10.955,-1.931,3.421,-621.643,-327.392,621.521,1
7.363808,-11.381,-1.915,3.633,-659.667,-235.9,704.956,1
7.370843,-12.172,-1.682,3.649,-698.852,-128.417,784.851,1
7.379074,-13.278,-1.241,3.565,-712.585,-13.061,855.773,1
7.3873,-14.636,-0.693,3.292,-710.144,108.947,916.442,1
7.394925,-15.993,0.011,2.83,-688.659,224.609,961.059,1
7.403321,-15.998,0.695,2.32,-630.188,334.472,991.699,1
7.409899,-15.999,1.317,1.834,-560.607,428.1,1010.925,1
7.41841,-15.999,1.949,1.427,-490.051,514.343,1021.911,1
7.425313,-15.999,2.326,1.037,-439.147,601.928,1026.428,1
7.433727,-15.999,2.614,0.629,-444.58,672.912,1023.437,1
7.440804,-15.999,3.745,-0.143,-544.189,747.741,999.877,1
7.448742,-15.999,3.748,-0.431,-556.03,819.58,967.956,1
7.455769,-15.999,4.08,-1.043,-585.632,880.187,914.855,1
7.46376,-15.999,3.978,-1.504,-635.986,981.018,842.956,1
7.471882,-15.999,3.768,-1.225,-716.979,1006.53,779.174,1
7.478534,-15.999,3.234,-1.445,-806.945,1116.699,686.035,1
7.487032,-15.999,3.029,-1.197,-886.596,1153.015,578.491,1
7.493757,-15.999,2.603,-1.125,-921.325,1231.506,470.153,1
7.501698,-15.999,2.497,-1.543,-961.975,1235.351,363.647,1
7.510047,-15.999,2.479,-1.414,-918.151,1265.014,229.919,1
7.517994,-15.999,2.569,-1.771,-774.047,1228.881,85.876,1
7.526444,-15.999,2.137,-1.886,-630.432,1198.425,-10.131,1
7.532977,-15.999,1.635,-2.321,-609.313,1136.474,-97.045,1
7.541317,-15.999,1.404,-2.37,-625.976,1097.961,-168.029,1
7.54916,-15.999,1.237,-2.48,-612.182,1042.114,-237.426,1
7.55721,-15.999,0.983,-2.49,-571.35,992.126,-298.767,1
7.565184,-15.999,0.569,-2.662,-556.701,934.143,-349.853,1
7.571947,-15.05,0.159,-2.641,-564.575,876.342,-394.409,1
7.58026,-13.806,-0.125,-2.723,-564.27,805.969,-439.086,1
7.588695,-12.498,-0.393,-2.812,-529.968,735.534,-470.886,1
7.59664,-11.131,-0.851,-2.972,-462.707,656.066,-494.14,1
7.605149,-10.092,-1.219,-3.115,-410.705,586.547,-504.333,1
7.612981,-9.363,-1.525,-3.218,-364.99,526.55,-506.469,1
7.621218,-8.563,-1.91,-3.375,-333.801,467.59,-502.685,1
7.629352,-7.664,-2.348,-3.466,-323.608,402.709,-492.248,1
7.637742,-6.477,-2.606,-3.416,-311.096,350.83,-478.881,1
7.645857,-5.548,-2.718,-3.283,-282.287,298.95,-462.28,1
7.652984,-4.789,-2.787,-3.113,-236.999,246.887,-438.232,1
7.661536,-3.98,-2.804,-2.975,-219.848,198.73,-411.071,1
7.669955,-3.453,-2.76,-2.744,-212.585,164.001,-386.474,1
7.676643,-2.992,-2.64,-2.534,-199.096,131.286,-361.45,1
7.684681,-2.628,-2.511,-2.311,-178.588,103.027,-337.097,1
7.692558,-2.366,-2.385,-2.141,-168.457,78.491,-313.537,1
7.700719,-2.185,-2.303,-2.0,-163.94,56.579,-290.832,1
7.707848,-1.959,-2.15,-1.836,-152.038,35.766,-268.859,1
7.717464,-1.809,-2.0,-1.666,-114.807,12.573,-245.239,1
7.724208,-1.655,-1.889,-1.507,-83.862,-5.187,-223.022,1
7.733059,-1.556,-1.783,-1.362,-73.608,-17.272,-205.749,1
7.739736,-1.467,-1.67,-1.238,-68.054,-26.0,-189.147,1
7.748048,-1.346,-1.548,-1.134,-62.683,-33.996,-174.377,1
7.755857,-1.227,-1.466,-1.036,-56.64,-40.893,-160.705,1
7.762862,-1.137,-1.387,-0.951,-54.931,-46.081,-147.094,1
7.771393,-1.056,-1.345,-0.89,-58.41,-50.964,-133.117,1
7.779747,-0.966,-1.29,-0.842,-60.18,-54.504,-121.337,1
7.787883,-0.905,-1.229,-0.787,-56.03,-57.983,-110.656,1
7.796296,-0.854,-1.178,-0.754,-49.072,-61.096,-98.876,1
7.803629,-0.812,-1.126,-0.72,-45.349,-63.598,-88.439,1
7.81173,-0.764,-1.094,-0.697,-46.142,-64.697,-80.139,1
7.821534,-0.69,-1.068,-0.676,-46.752,-65.795,-72.387,1
7.828804,-0.582,-1.05,-0.653,-42.907,-67.077,-63.476,1
7.838401,-0.476,-1.041,-0.642,-35.034,-68.298,-54.87,1
7.846413,-0.42,-1.04,-0.633,-29.541,-69.213,-46.691,1
7.854378,-0.357,-1.032,-0.614,-28.991,-68.542,-39.611,1
7.862384,-0.305,-1.015,-0.607,-29.968,-68.298,-33.081,1
7.870773,-0.235,-0.985,-0.593,-30.639,-67.565,-25.634,1
7.879116,-0.176,-0.956,-0.589,-32.104,-66.772,-19.714,1
7.887633,-0.169,-0.939,-0.565,-34.667,-65.429,-12.878,1
7.895192,-0.097,-0.916,-0.561,-34.362,-64.697,-7.08,1
7.903285,-0.049,-0.907,-0.528,-29.174,-64.697,-1.403,1
7.909738,-0.002,-0.905,-0.512,-19.775,-63.476,4.882,1
7.918298,0.032,-0.905,-0.499,-13.671,-63.293,10.07,1
7.926281,0.053,-0.906,-0.482,-11.84,-61.279,15.197,1
7.934633,0.089,-0.9,-0.464,-14.099,-59.082,20.385,1
7.94261,0.126,-0.882,-0.456,-16.723,-56.396,26.123,1
7.951995,0.156,-0.851,-0.444,-18.005,-53.894,30.7,1
7.960006,0.187,-0.82,-0.442,-19.836,-50.598,35.827,1
7.966654,0.208,-0.778,-0.444,-23.071,-47.851,39.794,1
7.975002,0.217,-0.74,-0.444,-28.076,-44.25,43.701,1
7.984433,0.243,-0.707,-0.449,-34.729,-41.442,47.119,1
7.991158,0.278,-0.678,-0.445,-44.006,-37.597,50.598,1
7.999478,0.301,-0.641,-0.454,-51.452,-34.301,53.344,1
8.006366,0.322,-0.6,-0.463,-55.541,-31.921,55.847,1
8.014429,0.34,-0.564,-0.465,-56.457,-29.846,58.105,1
8.022457,0.327,-0.516,-0.457,-53.161,-28.686,60.119,1
8.028998,0.342,-0.431,-0.462,-36.804,-27.343,59.814,1
8.037095,0.422,-0.447,-0.478,-31.066,-27.77,60.974,1
8.044098,0.456,-0.441,-0.478,-32.165,-25.207,62.561,1
8.052076,0.442,-0.404,-0.491,-36.865,-24.047,63.659,1
8.060064,0.451,-0.36,-0.474,-38.94,-21.057,64.208,1
8.068379,0.456,-0.34,-0.491,-44.006,-18.676,64.514,1
8.076695,0.455,-0.329,-0.485,-50.781,-15.563,64.514,1
8.084642,0.484,-0.31,-0.494,-57.983,-12.695,64.697,1
8.092675,0.504,-0.291,-0.485,-61.767,-10.07,65.246,1
8.100551,0.543,-0.276,-0.496,-61.523,-7.568,65.917,1
8.108796,0.576,-0.254,-0.498,-58.166,-6.286,66.101,1
8.116857,0.597,-0.245,-0.507,-52.062,-5.371,66.284,1
8.123938,0.597,-0.233,-0.501,-42.114,-5.554,66.65,1
8.132931,0.588,-0.228,-0.5,-32.714,-5.676,67.077,1
8.139578,0.562,-0.244,-0.497,-25.085,-6.042,67.626,1
8.148006,0.541,-0.253,-0.49,-19.104,-5.554,68.603,1
8.154586,0.52,-0.27,-0.48,-17.089,-4.577,69.641,1
8.162646,0.503,-0.289,-0.471,-19.409,-3.112,70.739,1
8.169615,0.478,-0.311,-0.461,-27.343,-0.427,72.57,1
8.178043,0.476,-0.324,-0.453,-34.118,1.953,73.73,1
8.185488,0.499,-0.32,-0.445,-40.344,4.943,75.683,1
8.193402,0.508,-0.309,-0.435,-38.574,6.896,77.331,1
8.199754,0.526,-0.301,-0.424,-34.79,7.934,78.796,1
8.207806,0.497,-0.327,-0.429,-31.005,9.46,80.444,1
8.214837,0.436,-0.337,-0.409,-28.686,10.681,81.604,1
8.223125,0.396,-0.34,-0.397,-29.724,12.145,83.679,1
8.229926,0.373,-0.351,-0.403,-29.235,12.878,86.303,1
8.237243,0.346,-0.359,-0.375,-24.963,13.0,88.684,1
8.245449,0.317,-0.37,-0.37,-15.441,12.695,91.491,1
8.25225,0.291,-0.395,-0.343,-2.258,12.329,94.604,1
8.260451,0.289,-0.426,-0.332,10.192,12.634,97.717,1
8.267567,0.287,-0.455,-0.314,24.78,13.61,102.111,1
8.275404,0.308,-0.465,-0.301,32.287,15.441,106.628,1
8.283442,0.288,-0.493,-0.306,40.466,16.906,110.412,1
8.290079,0.28,-0.531,-0.315,36.865,18.981,114.013,1
8.29859,0.282,-0.539,-0.309,24.841,21.972,118.103,1
8.306554,0.339,-0.55,-0.293,10.314,24.902,123.168,1
8.313119,0.32,-0.551,-0.312,-11.291,29.968,128.723,1
8.321485,0.256,-0.523,-0.296,-31.188,34.606,134.46,1
8.328096,0.217,-0.484,-0.3,-44.738,39.794,140.502,1
8.336017,0.222,-0.439,-0.301,-50.231,43.334,145.751,1
8.342997,0.265,-0.393,-0.289,-46.447,46.264,150.756,1
8.351041,0.202,-0.364,-0.302,-32.836,48.583,156.188,1
8.359402,0.186,-0.353,-0.31,-16.357,49.865,161.804,1
8.366035,0.155,-0.346,-0.317,-6.103,50.659,166.32,1
8.374543,0.12,-0.356,-0.322,-0.244,51.818,171.386,1
8.381117,0.123,-0.352,-0.348,1.708,53.649,175.964,1
8.389478,0.18,-0.338,-0.367,3.051,55.419,181.091,1
8.397589,0.197,-0.318,-0.388,6.408,57.861,186.706,1
8.404255,0.166,-0.285,-0.416,12.756,59.631,193.42,1
8.412203,0.133,-0.249,-0.43,20.385,60.729,199.584,1
8.420162,0.087,-0.224,-0.467,26.55,61.767,205.688,1
8.428516,-0.009,-0.201,-0.517,27.893,62.561,211.73,1
8.436793,-0.109,-0.179,-0.565,22.399,63.476,218.933,1
8.44363,-0.177,-0.152,-0.62,15.258,63.049,224.609,1
8.452434,-0.242,-0.099,-0.644,11.108,63.049,229.736,1
8.458943,-0.312,-0.048,-0.678,13.488,62.133,234.558,1
8.466841,-0.387,0.009,-0.701,21.24,61.035,239.135,1
8.473568,-0.455,0.063,-0.746,31.799,58.898,243.347,1
8.481483,-0.528,0.13,-0.788,42.236,56.701,247.192,1
8.488473,-0.604,0.196,-0.847,48.522,53.588,250.122,1
8.496573,-0.67,0.255,-0.875,52.978,50.292,253.356,1
8.503143,-0.682,0.319,-0.896,57.922,46.813,255.676,1
8.51061,-0.678,0.379,-0.905,67.077,42.419,258.178,1
8.518085,-0.69,0.45,-0.911,77.148,37.536,260.498,1
8.525855,-0.731,0.529,-0.915,82.519,32.348,262.512,1
8.534256,-0.788,0.61,-0.918,81.359,27.526,264.404,1
8.540862,-0.822,0.704,-0.912,75.5,22.644,265.441,1
8.548272,-0.865,0.803,-0.895,67.26,18.188,265.869,1
8.556542,-0.91,0.916,-0.887,57.495,14.099,265.808,1
8.563144,-0.962,0.979,-0.878,51.208,10.131,264.709,1
8.571058,-1.02,1.048,-0.863,43.701,7.263,263.732,1
8.577972,-1.002,1.12,-0.883,40.527,3.173,261.413,1
8.586296,-1.001,1.175,-0.867,40.771,0.305,259.338,1
8.594309,-0.953,1.222,-0.88,45.471,-3.051,256.835,1
8.602605,-1.035,1.29,-0.875,44.616,-5.859,254.028,1
8.609149,-0.989,1.311,-0.89,37.475,-8.789,250.549,1
8.617542,-0.952,1.353,-0.869,32.287,-9.948,247.009,1
8.624163,-0.95,1.39,-0.86,27.526,-10.681,243.896,1
8.632262,-0.926,1.416,-0.843,21.85,-10.742,240.6,1
8.640755,-0.876,1.427,-0.828,15.075,-9.704,236.938,1
8.647423,-0.833,1.435,-0.826,7.141,-8.911,234.436,1
8.654655,-0.809,1.44,-0.821,0.488,-7.568,231.567,1
8.66304,-0.779,1.44,-0.812,-4.272,-6.53,229.492,1
8.669925,-0.736,1.439,-0.802,-4.76,-5.615,227.233,1
8.678283,-0.695,1.45,-0.803,-1.953,-5.126,225.463,1
8.684842,-0.689,1.468,-0.805,2.624,-5.187,223.51,1
8.693289,-0.706,1.48,-0.822,4.882,-5.493,221.191,1
8.699718,-0.681,1.501,-0.813,2.075,-5.493,218.811,1
8.708212,-0.707,1.509,-0.812,0.305,-5.249,215.454,1
8.716386,-0.698,1.519,-0.804,-0.671,-5.615,211.975,1
8.724887,-0.684,1.525,-0.774,5.798,-6.347,208.923,1
8.731667,-0.658,1.523,-0.757,20.568,-8.544,204.833,1
8.73999,-0.643,1.504,-0.73,33.752,-10.437,201.782,1
8.748045,-0.622,1.474,-0.718,48.767,-13.488,197.875,1
8.754992,-0.61,1.434,-0.695,57.556,-15.869,194.641,1
8.763353,-0.602,1.4,-0.673,63.293,-18.005,191.833,1
8.770162,-0.587,1.382,-0.651,66.406,-19.836,188.781,1
8.778826,-0.592,1.355,-0.66,63.476,-20.996,185.913,1
8.78551,-0.546,1.389,-0.642,53.649,-22.216,182.678,1
8.793778,-0.576,1.368,-0.623,49.865,-22.094,179.565,1
8.801765,-0.548,1.356,-0.599,49.133,-24.414,175.842,1
8.80981,-0.537,1.328,-0.568,54.26,-25.329,173.034,1
8.817939,-0.52,1.29,-0.552,62.683,-27.526,170.593,1
8.824603,-0.457,1.292,-0.514,71.777,-29.052,168.395,1
8.831604,-0.458,1.286,-0.517,80.2,-30.7,166.015,1
8.839899,-0.482,1.268,-0.507,82.519,-32.226,163.757,1
8.846656,-0.454,1.257,-0.5,80.871,-33.142,161.682,1
8.854513,-0.456,1.225,-0.496,77.392,-34.24,159.729,1
8.861541,-0.425,1.232,-0.461,77.758,-35.583,157.592,1
8.869558,-0.44,1.234,-0.437,84.106,-36.987,155.273,1
8.878031,-0.438,1.22,-0.41,91.613,-38.696,153.015,1
8.885072,-0.416,1.191,-0.376,99.06,-39.672,150.878,1
8.893892,-0.399,1.168,-0.357,103.271,-40.405,149.108,1
8.900868,-0.4,1.156,-0.351,98.693,-40.1,146.789,1
8.908857,-0.419,1.154,-0.339,90.026,-39.306,145.263,1
8.915252,-0.417,1.157,-0.335,77.514,-37.414,143.31,1
8.923283,-0.416,1.164,-0.326,65.368,-35.522,141.296,1
8.931205,-0.427,1.174,-0.315,57.8,-33.691,138.977,1
8.939266,-0.459,1.176,-0.306,55.175,-32.226,137.329,1
8.947268,-0.501,1.177,-0.302,54.199,-31.005,136.352,1
8.953921,-0.529,1.199,-0.301,55.908,-30.334,135.009,1
8.962404,-0.547,1.218,-0.293,59.814,-29.357,133.667,1
8.969099,-0.566,1.22,-0.296,61.096,-28.747,132.263,1
8.976243,-0.604,1.237,-0.291,60.546,-28.259,131.286,1
8.984531,-0.641,1.257,-0.295,61.401,-27.404,130.065,1
8.992854,-0.649,1.278,-0.282,66.772,-27.16,127.868,1
9.000712,-0.628,1.283,-0.274,75.195,-26.916,125.793,1
9.008542,-0.649,1.269,-0.269,79.833,-26.489,123.718,1
9.015291,-0.613,1.26,-0.264,82.336,-26.062,120.91,1
9.023662,-0.574,1.236,-0.246,86.181,-25.512,118.591,1
9.030898,-0.551,1.2,-0.238,90.454,-25.024,115.234,1
9.039431,-0.522,1.167,-0.227,94.36,-25.085,112.67,1
9.046206,-0.403,1.139,-0.21,101.196,-25.451,110.351,1
9.053131,-0.442,1.14,-0.209,107.849,-24.963,107.971,1
9.061385,-0.477,1.12,-0.209,108.215,-24.719,105.895,1
9.069601,-0.521,1.112,-0.211,104.248,-24.23,103.637,1
9.076659,-0.522,1.098,-0.21,97.778,-23.437,100.952,1
9.083955,-0.521,1.073,-0.2,91.186,-22.705,98.51,1
9.092291,-0.504,1.032,-0.196,86.181,-21.911,96.374,1
9.099619,-0.554,1.002,-0.18,80.627,-21.606,95.458,1
9.106288,-0.515,0.969,-0.174,80.017,-21.423,94.055,1
9.113462,-0.533,0.968,-0.171,86.303,-20.751,93.139,1
9.121259,-0.515,0.976,-0.181,92.895,-21.362,91.552,1
9.128323,-0.582,0.929,-0.182,91.003,-20.568,91.369,1
9.136212,-0.566,0.887,-0.188,84.289,-19.104,91.674,1
9.142839,-0.666,0.861,-0.203,61.34,-16.906,92.346,1
9.149913,-0.686,0.867,-0.195,40.283,-12.756,92.407,1
9.158225,-0.77,0.908,-0.2,14.526,-8.85,92.407,1
9.164782,-0.597,0.949,-0.187,3.845,-5.615,90.759,1
9.171865,-0.67,0.923,-0.186,-0.854,-2.624,90.637,1
9.179674,-0.776,0.967,-0.22,-12.695,1.22,89.721,1
9.186523,-0.721,1.015,-0.219,-16.418,1.708,88.195,1
9.195365,-0.67,1.046,-0.204,-3.723,3.784,86.791,1
9.201963,-0.744,1.084,-0.239,12.939,3.356,84.228,1
9.208667,-0.755,1.104,-0.236,31.494,3.723,82.031,1
9.215521,-0.623,1.12,-0.248,58.654,1.525,78.918,1
9.224292,-0.746,1.105,-0.254,73.73,2.807,76.843,1
9.230946,-0.677,1.065,-0.282,75.622,2.075,75.683,1
9.237541,-0.731,1.037,-0.271,70.8,3.295,73.913,1
9.244198,-0.666,1.008,-0.274,62.744,5.004,73.242,1
9.252394,-0.683,1.001,-0.267,50.842,5.92,73.181,1
9.259238,-0.542,0.985,-0.24,53.466,6.469,72.082,1
9.266464,-0.675,0.959,-0.263,49.926,7.507,72.631,1
9.273304,-0.668,0.95,-0.254,55.114,7.446,71.777,1
9.281175,-0.849,0.939,-0.265,60.241,7.08,73.486,1
9.288924,-0.913,0.961,-0.269,60.607,6.652,74.096,1
9.295655,-0.864,0.987,-0.258,75.073,4.15,74.523,1
9.303924,-0.857,0.945,-0.235,91.613,1.708,76.721,1
9.312719,-0.82,0.932,-0.237,115.539,-0.549,77.148,1
9.319651,-0.8,0.904,-0.218,141.357,-3.906,77.941,1
9.326718,-0.8,0.86,-0.216,162.841,-5.981,79.589,1
9.333927,-0.824,0.869,-0.208,181.701,-8.911,80.383,1
9.34225,-0.802,0.826,-0.207,202.697,-12.207,80.688,1
9.35071,-0.812,0.787,-0.195,221.862,-14.526,81.726,1
9.359191,-0.768,0.716,-0.214,226.196,-17.333,83.19,1
9.36705,-0.796,0.722,-0.181,224.426,-16.967,84.777,1
9.373928,-0.806,0.714,-0.215,219.238,-19.958,83.862,1
9.382441,-0.846,0.663,-0.187,209.289,-20.751,84.045,1
9.38928,-0.944,0.671,-0.199,193.115,-20.812,84.228,1
9.397577,-1.045,0.68,-0.192,172.18,-21.301,84.35,1
9.40635,-1.132,0.708,-0.199,153.015,-21.118,83.496,1
9.414419,-1.124,0.719,-0.181,137.39,-22.338,82.58,1
9.421078,-1.015,0.749,-0.157,131.652,-22.705,80.627,1
9.429527,-0.934,0.762,-0.128,136.596,-24.475,78.308,1
9.436627,-0.894,0.775,-0.113,151.123,-26.123,75.439,1
9.4447,-0.908,0.786,-0.096,170.043,-29.235,72.204,1
9.452949,-0.907,0.795,-0.091,192.321,-31.494,69.091,1
9.460063,-0.906,0.78,-0.085,216.491,-34.973,64.941,1
9.468771,-0.875,0.766,-0.075,233.215,-37.353,61.95,1
9.475965,-0.875,0.752,-0.064,246.215,-39.611,58.959,1
9.483864,-0.874,0.732,-0.062,253.662,-41.198,55.969,1
9.491618,-0.899,0.719,-0.045,256.713,-42.541,52.795,1
9.500404,-0.904,0.709,-0.032,263.061,-43.945,50.17,1
9.508661,-0.913,0.699,-0.033,260.009,-44.555,46.63,1
9.515251,-0.952,0.677,0.011,247.497,-42.968,43.762,1
9.523393,-0.966,0.671,-0.005,234.68,-42.48,40.832,1
9.532155,-0.968,0.653,0.028,219.482,-40.222,37.78,1
9.539281,-0.958,0.636,0.011,199.768,-38.94,34.484,1
9.546276,-0.966,0.634,0.049,178.894,-36.315,31.372,1
9.553889,-0.919,0.608,0.041,158.142,-33.569,28.564,1
9.562169,-0.889,0.588,0.055,136.474,-30.944,25.634,1
9.570647,-0.858,0.568,0.052,118.408,-27.954,23.498,1
9.577207,-0.816,0.545,0.047,99.487,-25.817,21.057,1
9.585596,-0.811,0.522,0.036,84.106,-23.742,18.371,1
9.593814,-0.808,0.488,0.02,54.687,-20.08,15.686,1
9.600364,-0.805,0.452,0.006,22.583,-16.357,14.587,1
9.609233,-0.77,0.427,-0.011,-12.817,-13.183,13.916,1
9.617441,-0.725,0.381,-0.039,-49.011,-9.033,13.0,1
9.625429,-0.738,0.36,-0.045,-92.041,-6.347,12.573,1
9.632291,-0.742,0.326,-0.064,-128.295,-2.563,12.878,1
9.639324,-0.757,0.313,-0.071,-163.757,-0.549,13.305,1
9.647704,-0.794,0.296,-0.072,-194.335,3.173,13.61,1
9.656694,-0.824,0.305,-0.079,-222.228,5.676,13.854,1
9.663415,-0.834,0.293,-0.083,-249.45,9.46,14.343,1
9.671577,-0.855,0.291,-0.086,-268.859,12.207,13.549,1
9.679951,-0.881,0.29,-0.09,-285.217,15.197,13.366,1
9.686915,-0.913,0.291,-0.097,-298.156,17.333,12.329,1
9.695372,-0.915,0.286,-0.107,-308.349,19.775,11.047,1
9.701966,-0.902,0.288,-0.113,-311.767,20.69,9.704,1
9.710265,-0.874,0.271,-0.119,-311.401,21.545,8.361,1
9.718047,-0.849,0.276,-0.124,-305.236,20.996,7.263,1
9.72682,-0.835,0.275,-0.134,-292.114,19.775,6.164,1
9.734936,-0.827,0.294,-0.14,-265.319,16.662,5.187,1
9.74336,-0.837,0.306,-0.134,-230.224,12.756,4.455,1
9.749893,-0.877,0.312,-0.137,-183.959,7.751,3.845,1
9.758127,-0.916,0.307,-0.112,-131.591,2.746,3.662,1
9.766809,-0.96,0.305,-0.093,-67.565,-1.647,3.479,1
9.775284,-1.025,0.297,-0.073,-12.207,-3.845,3.295,1
9.781792,-1.132,0.298,-0.083,46.264,-6.896,2.319,1
9.789889,-1.185,0.29,-0.075,89.538,-7.812,2.502,1
9.79859,-1.174,0.261,-0.098,123.291,-9.338,2.807,1
9.805586,-1.071,0.205,-0.054,143.92,-8.239,4.211,1
9.81269,-0.916,0.172,-0.097,154.296,-6.53,7.019,1
9.821002,-0.892,0.173,-0.074,155.883,-6.164,9.643,1
9.827702,-0.91,0.173,-0.093,154.113,-4.089,12.145,1
9.83476,-0.97,0.194,-0.076,147.766,-3.112,14.221,1
9.843115,-1.022,0.208,-0.064,137.023,-0.488,15.014,1
9.851365,-0.997,0.208,-0.051,121.154,2.136,15.441,1
9.858043,-0.916,0.243,-0.087,108.093,3.784,16.235,1
9.865089,-0.833,0.186,-0.096,85.693,2.014,13.0,1
9.873671,-0.813,0.184,-0.028,62.438,8.85,14.648,1
9.880237,-0.719,0.146,-0.1,22.766,6.958,15.014,1
9.88687,-0.72,0.145,-0.02,-20.629,13.977,15.991,1
9.895179,-0.749,0.161,-0.059,-70.19,16.906,16.418,1
9.903273,-0.79,0.185,0.0,-106.445,22.155,16.54,1
9.911633,-0.82,0.198,-0.037,-151.672,27.893,15.808,1
9.92021,-0.92,0.203,-0.028,-187.683,32.836,15.38,1
9.927269,-0.958,0.195,-0.068,-216.43,35.156,14.221,1
9.933589,-0.975,0.17,-0.083,-245.971,37.353,14.16,1
9.941191,-0.961,0.16,-0.094,-276.611,39.367,14.343,1
9.948578,-0.959,0.13,-0.094,-305.786,41.564,15.624,1
9.956259,-0.906,0.115,-0.086,-327.209,44.311,17.578,1
9.964511,-0.774,0.108,-0.083,-342.224,46.325,20.507,1
9.972502,-0.63,0.108,-0.047,-344.116,48.706,24.291,1
9.979547,-0.499,0.106,-0.04,-332.458,51.147,28.137,1
9.987286,-0.446,0.101,-0.027,-314.514,52.49,31.616,1
9.99596,-0.431,0.127,-0.027,-288.818,53.649,34.179,1
