timestamp_s,ax,ay,az,gx,gy,gz,label
0.006344,-0.38,0.714,0.163,7.202,-4.882,20.507,1
0.014599,-0.419,0.712,0.191,3.601,-4.211,22.521,1
0.022585,-0.457,0.72,0.177,1.77,-4.882,23.193,1
0.029604,-0.451,0.7,0.21,0.854,-5.004,24.78,1
0.038148,-0.389,0.668,0.207,-3.967,-4.089,26.184,1
0.045265,-0.42,0.679,0.217,-6.286,-4.089,27.77,1
0.053818,-0.392,0.654,0.224,-4.028,-4.272,29.113,1
0.061846,-0.357,0.646,0.237,-1.098,-4.638,30.822,1
0.068817,-0.427,0.644,0.252,5.92,-4.943,32.043,1
0.077127,-0.46,0.6,0.27,10.131,-5.249,34.118,1
0.085049,-0.457,0.565,0.264,7.507,-4.089,36.071,1
0.092595,-0.47,0.544,0.253,4.455,-2.99,38.085,1
0.101191,-0.469,0.531,0.251,-1.708,-2.441,39.611,1
0.110883,-0.426,0.51,0.245,-8.972,-0.732,42.053,1
0.116826,-0.161,0.477,0.214,-12.695,-0.732,44.494,1
0.125705,0.062,0.437,0.222,-7.873,-2.38,45.349,1
0.132782,0.266,0.319,0.269,4.15,-0.671,46.142,1
0.141788,0.029,0.227,0.197,3.662,-0.671,49.682,1
0.149382,-0.15,0.182,0.187,-2.441,1.22,54.809,1
0.15653,-0.303,0.142,0.135,-19.836,1.892,61.401,1
0.164256,-0.355,0.104,0.096,-38.879,4.76,65.979,1
0.172558,-0.395,0.089,0.049,-60.18,5.493,70.373,1
0.181167,-0.437,0.073,0.026,-76.721,7.751,74.096,1
0.18957,-0.439,0.052,-0.005,-91.125,8.056,78.002,1
0.196411,-0.463,0.05,-0.012,-101.989,11.84,82.885,1
0.20563,-0.452,0.059,-0.036,-108.703,12.878,86.303,1
0.214444,-0.531,0.056,-0.043,-109.13,14.221,90.881,1
0.223148,-0.775,0.057,-0.013,-106.628,15.136,97.656,1
0.230067,-1.294,0.15,0.074,-97.839,21.118,102.416,1
0.238848,-2.027,0.232,0.026,-80.688,27.648,107.482,1
0.248529,-2.468,0.423,-0.165,-52.734,27.587,110.778,1
0.25669,-1.941,0.435,-0.269,-32.409,14.648,108.825,1
0.264133,-1.232,0.284,-0.152,-31.066,13.061,110.717,1
0.273356,-0.766,0.232,-0.195,-43.029,10.314,114.807,1
0.282158,-0.723,0.283,-0.168,-53.161,7.202,117.614,1
0.29093,-0.863,0.367,-0.176,-59.02,4.821,120.544,1
0.299406,-1.05,0.496,-0.195,-57.922,1.342,122.802,1
0.307512,-1.159,0.594,-0.237,-54.321,-3.906,123.596,1
0.315862,-1.225,0.658,-0.221,-55.664,-7.751,123.962,1
0.324322,-1.207,0.708,-0.198,-62.133,-10.131,124.45,1
0.331544,-1.276,0.786,-0.164,-67.077,-11.962,123.901,1
0.341582,-1.279,0.856,-0.104,-70.495,-11.108,122.985,1
0.348728,-1.13,0.939,-0.052,-74.34,-10.009,120.3,1
0.358021,-1.024,0.977,0.008,-76.11,-7.202,118.041,1
0.365844,-0.946,1.029,0.029,-72.998,-4.516,115.6,1
0.374911,-0.958,1.108,0.05,-59.875,-3.112,112.854,1
0.382448,-0.981,1.16,0.055,-30.944,-3.417,109.802,1
0.39157,-0.981,1.184,0.053,-1.159,-4.577,106.994,1
0.398831,-1.005,1.202,0.049,34.24,-6.53,103.515,1
0.406883,-1.01,1.199,0.043,61.767,-8.117,101.257,1
0.414931,-0.988,1.191,0.038,84.045,-9.582,98.449,1
0.424523,-0.989,1.17,0.029,103.393,-11.535,94.909,1
0.431427,-0.986,1.147,0.02,112.731,-12.634,91.796,1
0.440077,-0.965,1.136,0.013,112.304,-13.183,88.562,1
0.448646,-0.937,1.106,0.019,106.872,-13.305,85.571,1
0.45597,-0.916,1.083,0.011,96.13,-13.488,81.787,1
0.465037,-0.924,1.079,0.013,84.289,-13.732,78.002,1
0.473639,-0.937,1.072,0.002,77.27,-14.709,74.279,1
0.482147,-0.929,1.053,0.012,70.8,-15.624,70.861,1
0.489241,-0.929,1.035,0.016,62.927,-16.54,66.894,1
0.497508,-0.942,1.024,0.031,56.396,-17.456,63.415,1
0.504418,-0.941,1.02,0.029,51.574,-18.493,59.814,1
0.512859,-0.927,1.024,0.049,47.79,-19.287,55.969,1
0.520828,-0.909,1.021,0.06,45.471,-19.47,52.673,1
0.529481,-0.91,1.023,0.069,44.189,-20.202,48.767,1
0.538535,-0.907,1.016,0.076,41.87,-20.629,44.677,1
0.547132,-0.898,0.997,0.08,40.1,-20.751,41.137,1
0.556137,-0.897,0.976,0.086,33.691,-20.446,37.841,1
0.563524,-0.898,0.964,0.098,25.939,-19.714,34.79,1
0.571357,-0.905,0.953,0.099,17.089,-18.737,31.311,1
0.579041,-0.911,0.937,0.102,8.483,-17.822,28.381,1
0.586594,-0.921,0.926,0.103,0.427,-16.784,26.062,1
0.595782,-0.924,0.916,0.1,-5.004,-16.235,23.376,1
0.603497,-0.921,0.903,0.112,-4.272,-15.991,20.08,1
0.611752,-0.874,0.882,0.115,-2.014,-15.991,17.578,1
0.619815,-0.882,0.852,0.112,1.831,-15.93,14.709,1
0.627793,-0.878,0.841,0.109,5.126,-16.174,12.023,1
0.634494,-0.88,0.819,0.11,9.155,-16.235,9.46,1
0.642569,-0.896,0.787,0.112,11.84,-16.052,6.835,1
0.650889,-0.883,0.766,0.111,12.512,-15.808,4.333,1
0.657455,-0.895,0.737,0.109,11.779,-15.258,2.38,1
0.665375,-0.911,0.714,0.105,9.399,-14.831,0.366,1
0.674554,-0.916,0.68,0.1,5.249,-14.526,-1.22,1
0.683819,-0.925,0.662,0.11,1.892,-13.61,-2.624,1
0.691155,-0.938,0.639,0.095,0.549,-13.366,-3.906,1
0.700107,-0.944,0.621,0.099,1.586,-13.427,-4.821,1
0.707038,-0.96,0.615,0.093,5.676,-14.099,-5.798,1
0.715349,-0.98,0.612,0.098,14.038,-14.587,-6.774,1
0.722782,-1.004,0.593,0.084,21.85,-15.624,-7.751,1
0.731076,-1.002,0.57,0.098,28.747,-16.357,-8.056,1
0.738623,-0.979,0.546,0.093,35.339,-17.089,-8.483,1
0.747365,-0.996,0.543,0.095,40.527,-17.333,-8.789,1
0.756103,-0.995,0.526,0.101,44.982,-17.639,-8.789,1
0.764155,-1.002,0.521,0.103,49.438,-18.493,-8.666,1
0.77129,-0.999,0.501,0.106,51.818,-18.493,-8.85,1
0.779457,-0.981,0.489,0.108,51.574,-18.432,-8.605,1
0.786154,-0.974,0.476,0.119,50.048,-17.944,-8.117,1
0.795931,-0.958,0.467,0.121,49.438,-17.7,-7.751,1
0.80187,-0.947,0.475,0.122,52.062,-17.639,-7.629,1
0.810347,-0.917,0.467,0.121,53.955,-17.761,-7.934,1
0.819656,-0.875,0.432,0.121,49.865,-17.395,-7.629,1
0.828305,-0.915,0.437,0.137,48.583,-16.418,-6.896,1
0.834884,-0.883,0.427,0.14,50.964,-15.563,-6.835,1
0.843362,-0.868,0.426,0.139,54.626,-14.892,-6.896,1
0.852192,-0.853,0.429,0.139,59.448,-14.038,-7.324,1
0.858989,-0.861,0.441,0.143,67.382,-13.488,-7.812,1
0.868248,-0.848,0.425,0.139,74.462,-12.451,-8.605,1
0.874837,-0.861,0.43,0.145,81.359,-12.207,-9.216,1
0.885632,-0.857,0.412,0.139,87.036,-10.742,-9.948,1
0.893355,-0.863,0.391,0.133,85.876,-9.826,-10.62,1
0.901998,-0.889,0.384,0.133,82.458,-8.117,-11.047,1
0.908795,-0.892,0.377,0.129,76.416,-6.347,-11.474,1
0.917423,-0.92,0.378,0.124,69.885,-4.882,-12.084,1
0.924843,-0.942,0.375,0.118,61.645,-3.356,-12.817,1
0.932325,-0.933,0.371,0.118,53.466,-1.831,-13.183,1
0.942353,-0.927,0.365,0.116,44.677,-0.427,-13.854,1
0.949071,-0.839,0.279,0.078,30.517,1.647,-13.183,1
0.958549,-0.893,0.311,0.103,12.512,1.098,-12.939,1
0.966331,-0.901,0.321,0.088,2.99,3.845,-12.695,1
0.975631,-0.94,0.332,0.105,-4.028,4.699,-13.122,1
0.98293,-0.961,0.319,0.12,-6.042,7.324,-12.939,1
0.991785,-0.962,0.334,0.11,-6.164,10.498,-12.878,1
1.00069,-0.877,0.335,0.108,-0.793,12.084,-12.939,1
1.007849,-0.829,0.325,0.069,3.417,12.39,-13.0,1
1.015179,-0.87,0.344,0.082,8.605,12.39,-13.122,1
1.022789,-0.894,0.347,0.07,15.197,12.756,-13.671,1
1.029764,-0.888,0.339,0.065,19.653,12.329,-13.916,1
1.036739,-0.895,0.327,0.061,22.094,13.061,-13.977,1
1.045168,-0.903,0.312,0.053,21.24,13.122,-13.916,1
1.052203,-0.913,0.305,0.049,17.272,14.038,-13.671,1
1.0603,-0.924,0.295,0.043,10.009,14.648,-13.244,1
1.068877,-0.947,0.298,0.037,1.403,15.624,-12.695,1
1.075933,-0.956,0.291,0.028,-9.338,16.662,-11.718,1
1.084159,-0.973,0.294,0.031,-17.944,17.15,-10.559,1
1.091395,-0.991,0.293,0.019,-25.939,17.456,-9.704,1
1.10126,-1.003,0.3,0.024,-31.738,17.456,-8.544,1
1.10826,-1.015,0.309,0.026,-35.095,16.845,-6.835,1
1.115128,-1.048,0.322,0.031,-34.545,16.174,-5.737,1
1.123616,-1.07,0.329,0.038,-31.982,15.075,-4.455,1
1.130459,-1.059,0.326,0.036,-29.357,13.549,-3.234,1
1.138251,-1.044,0.328,0.048,-25.756,11.718,-1.464,1
1.146568,-1.034,0.339,0.057,-19.592,10.009,0.244,1
1.153632,-1.018,0.346,0.066,-9.765,8.178,1.647,1
1.161755,-1.0,0.359,0.076,3.112,6.103,2.99,1
1.168475,-0.977,0.363,0.084,17.883,3.601,4.15,1
1.176171,-0.947,0.363,0.095,32.836,1.403,5.065,1
1.182742,-0.914,0.352,0.109,45.593,-0.122,5.92,1
1.191698,-0.892,0.343,0.118,53.894,-1.159,6.713,1
1.198237,-0.858,0.334,0.126,59.509,-1.647,7.812,1
1.205183,-0.821,0.33,0.117,58.898,-1.159,8.483,1
1.213893,-0.84,0.322,0.105,55.908,-1.525,9.948,1
1.220717,-0.833,0.293,0.087,51.757,-2.502,10.925,1
1.228935,-0.934,0.327,0.169,49.011,-0.793,11.23,1
1.237329,-0.86,0.344,0.116,44.494,0.793,11.169,1
1.2438,-0.834,0.33,0.139,42.907,2.38,10.803,1
1.251956,-0.888,0.348,0.094,33.203,2.441,10.681,1
1.259946,-0.953,0.34,0.151,17.761,2.868,10.864,1
1.266529,-0.97,0.346,0.136,0.366,6.652,11.23,1
1.274563,-1.006,0.364,0.13,-20.385,6.469,11.23,1
1.281408,-1.05,0.402,0.164,-38.818,8.789,11.23,1
1.289373,-1.053,0.436,0.165,-55.48,9.033,10.864,1
1.297388,-1.038,0.472,0.198,-68.42,10.498,10.62,1
1.305726,-1.023,0.52,0.22,-77.941,11.047,10.681,1
1.3136,-1.011,0.562,0.264,-83.496,12.268,10.437,1
1.320569,-0.969,0.601,0.306,-87.707,13.488,10.559,1
1.328477,-0.92,0.648,0.363,-92.468,15.258,10.192,1
1.335441,-0.862,0.701,0.423,-97.229,18.737,10.192,1
1.344954,-0.831,0.758,0.478,-98.815,21.118,10.498,1
1.350652,-0.824,0.843,0.538,-93.017,23.193,10.131,1
1.3588,-0.919,0.932,0.607,-79.101,23.681,9.948,1
1.36729,-1.089,1.012,0.711,-58.715,23.437,8.178,1
1.3737,-1.195,1.043,0.828,-50.598,23.498,5.737,1
1.382998,-1.318,1.076,0.995,-61.462,26.306,1.831,1
1.390021,-1.282,1.078,1.122,-91.369,33.691,-2.685,1
1.398483,-1.187,1.139,1.267,-138.0,39.794,-8.544,1
1.405565,-1.074,1.296,1.468,-169.128,50.17,-14.953,1
1.414038,-1.0,1.43,1.604,-184.753,57.8,-24.475,1
1.421649,-1.085,1.569,1.779,-188.049,66.223,-33.935,1
1.431191,-1.083,1.695,1.962,-185.058,75.378,-45.959,1
1.438608,-1.118,1.79,2.125,-180.908,85.388,-57.128,1
1.445239,-1.125,1.87,2.248,-178.527,95.703,-69.702,1
1.453883,-1.205,1.934,2.38,-181.152,107.238,-82.946,1
1.462494,-1.329,1.977,2.472,-192.016,122.436,-99.06,1
1.468784,-1.456,2.017,2.539,-205.444,135.559,-113.22,1
1.477722,-1.602,2.053,2.556,-218.627,148.559,-128.051,1
1.485396,-1.732,2.079,2.552,-230.041,160.095,-143.066,1
1.493296,-1.9,2.107,2.518,-232.055,172.302,-160.278,1
1.502212,-2.061,2.113,2.459,-225.891,181.091,-174.987,1
1.510863,-2.261,2.114,2.389,-216.552,189.697,-190.917,1
1.518371,-2.426,2.121,2.324,-206.42,196.899,-204.101,1
1.526801,-2.564,2.128,2.229,-191.772,203.857,-218.933,1
1.53356,-2.701,2.146,2.141,-177.612,210.021,-230.957,1
1.541427,-2.838,2.159,2.029,-163.696,214.843,-242.98,1
1.550141,-2.948,2.176,1.935,-148.864,219.482,-254.821,1
1.556724,-3.088,2.171,1.805,-134.521,224.243,-265.991,1
1.565027,-3.259,2.154,1.662,-121.52,228.21,-279.602,1
1.574382,-3.386,2.126,1.537,-111.938,232.788,-290.222,1
1.58113,-3.535,2.063,1.355,-107.91,236.206,-301.269,1
1.589084,-3.678,1.999,1.182,-112.731,238.769,-314.086,1
1.597784,-3.734,1.945,1.055,-110.717,239.257,-324.157,1
1.606127,-3.836,1.85,0.891,-98.449,238.22,-334.96,1
1.614299,-3.905,1.768,0.779,-81.787,236.511,-343.261,1
1.622985,-3.982,1.651,0.649,-54.26,233.947,-351.501,1
1.629433,-3.981,1.52,0.559,-27.77,231.933,-356.018,1
1.637564,-3.949,1.393,0.461,-5.493,231.262,-358.093,1
1.6457,-3.943,1.296,0.373,16.784,230.041,-358.764,1
1.653972,-3.876,1.236,0.304,47.485,227.966,-357.788,1
1.660459,-3.816,1.197,0.235,85.51,227.172,-355.957,1
1.669143,-3.821,1.17,0.153,125.671,225.097,-353.759,1
1.678158,-3.682,1.077,0.103,170.959,228.637,-351.196,1
1.686685,-3.608,0.94,-0.024,182.006,232.91,-347.167,1
1.692961,-3.591,0.826,-0.072,160.339,238.891,-343.2,1
1.70066,-3.537,0.708,-0.148,114.318,244.812,-340.393,1
1.708694,-3.469,0.601,-0.188,48.217,248.229,-338.928,1
1.717092,-3.394,0.499,-0.193,-24.475,250.122,-338.806,1
1.724675,-3.192,0.435,-0.179,-105.346,248.291,-339.782,1
1.733446,-2.929,0.39,-0.179,-162.841,243.164,-341.857,1
1.741115,-2.742,0.369,-0.165,-209.838,232.482,-344.055,1
1.750379,-2.581,0.347,-0.144,-232.849,221.435,-346.191,1
1.757218,-2.439,0.309,-0.157,-247.68,206.665,-347.412,1
1.765778,-2.297,0.286,-0.191,-246.643,190.063,-347.961,1
1.774834,-2.15,0.245,-0.208,-227.355,172.485,-344.97,1
1.783717,-1.621,0.155,-0.299,-204.223,155.09,-340.82,1
1.792665,-1.505,0.081,-0.279,-185.241,139.953,-336.73,1
1.801087,-1.509,-0.003,-0.319,-167.846,131.103,-327.148,1
1.808725,-1.358,-0.025,-0.331,-147.033,121.154,-316.894,1
1.817428,-1.19,0.004,-0.387,-109.069,110.351,-303.283,1
1.825392,-1.159,0.133,-0.364,-36.01,99.06,-290.954,1
1.8333,-1.099,0.189,-0.468,43.518,90.209,-283.203,1
1.840511,-0.963,0.234,-0.519,129.028,83.068,-275.939,1
1.85063,-0.636,0.208,-0.649,176.818,77.88,-272.644,1
1.858558,-0.381,0.052,-0.744,177.551,78.002,-268.737,1
1.865682,-0.54,-0.037,-0.827,120.056,84.533,-263.427,1
1.875107,-0.608,-0.015,-0.893,17.944,89.416,-258.483,1
1.882155,-0.519,0.096,-0.908,-49.499,88.989,-257.507,1
1.890232,-0.571,0.27,-0.868,-69.03,82.763,-258.178,1
1.899412,-0.548,0.368,-0.894,-38.757,74.096,-259.399,1
1.906363,-0.486,0.393,-0.929,15.319,61.279,-260.681,1
1.915585,-0.474,0.345,-0.958,50.964,53.466,-260.925,1
1.922707,-0.494,0.265,-0.987,57.25,48.156,-260.253,1
1.932003,-0.495,0.221,-0.995,40.1,45.104,-259.826,1
1.939348,-0.526,0.206,-0.96,18.554,43.151,-258.972,1
1.946977,-0.541,0.19,-0.944,-2.99,39.916,-258.789,1
1.955318,-0.477,0.145,-0.938,-19.165,36.071,-258.239,1
1.963774,-0.501,0.106,-0.933,-33.203,32.226,-257.446,1
1.972794,-0.479,0.083,-0.913,-38.818,27.465,-256.469,1
1.980358,-0.527,0.07,-0.888,-31.372,21.85,-256.103,1
1.987813,-0.594,0.031,-0.848,-8.544,16.113,-255.798,1
1.997033,-0.653,-0.027,-0.816,19.348,12.573,-255.493,1
2.0044,-0.709,-0.142,-0.782,38.391,9.948,-255.187,1
2.013663,-0.812,-0.291,-0.786,30.761,10.009,-253.967,1
2.021367,-0.848,-0.454,-0.699,-6.958,13.183,-252.38,1
2.030571,-0.917,-0.567,-0.665,-40.344,15.624,-249.877,1
2.037781,-0.876,-0.664,-0.599,-60.18,16.418,-246.398,1
2.046225,-0.851,-0.779,-0.562,-69.091,16.479,-241.577,1
2.055569,-0.929,-0.922,-0.497,-71.105,15.502,-235.473,1
2.061526,-0.896,-1.053,-0.448,-72.692,15.38,-229.187,1
2.070199,-0.903,-1.166,-0.389,-68.908,13.793,-222.473,1
2.077811,-0.997,-1.3,-0.333,-60.791,13.61,-214.538,1
2.086205,-0.907,-1.406,-0.263,-44.128,13.671,-206.603,1
2.094631,-0.986,-1.667,-0.193,-47.058,13.671,-195.861,1
2.10285,-1.091,-1.798,0.002,-50.842,19.714,-185.058,1
2.111946,-1.137,-1.954,0.073,-67.81,26.855,-172.424,1
2.118962,-1.235,-2.056,0.247,-76.171,32.958,-160.339,1
2.128009,-1.245,-2.152,0.38,-72.57,40.161,-144.042,1
2.136581,-1.25,-2.294,0.536,-52.307,46.691,-127.502,1
2.144837,-1.252,-2.462,0.698,-31.616,55.969,-108.703,1
2.152052,-1.267,-2.706,0.772,-41.015,69.824,-88.806,1
2.161567,-1.389,-2.85,0.909,-55.114,83.923,-68.359,1
2.171076,-1.431,-2.929,1.028,-61.645,101.196,-42.297,1
2.178429,-1.45,-3.041,1.139,-50.231,117.065,-18.615,1
2.186331,-1.71,-3.102,1.163,-45.166,130.737,2.563,1
2.196608,-1.777,-3.267,1.217,-57.25,153.808,29.541,1
2.205233,-1.898,-3.408,1.203,-96.862,174.987,56.335,1
2.212488,-2.18,-3.327,1.233,-124.084,196.411,78.491,1
2.220645,-2.389,-3.301,1.206,-127.807,216.979,104.187,1
2.228632,-2.638,-3.307,1.226,-108.215,234.13,128.112,1
2.237838,-2.871,-3.278,1.233,-74.462,251.647,158.813,1
2.245295,-3.261,-3.305,1.112,-27.343,268.31,186.462,1
2.252529,-3.67,-3.254,0.953,7.019,281.738,216.796,1
2.26118,-4.02,-3.164,0.777,60.424,295.837,255.249,1
2.27032,-4.558,-3.086,0.512,102.844,306.152,295.898,1
2.277203,-5.073,-3.042,0.273,98.449,317.688,332.763,1
2.28605,-5.78,-3.024,0.024,52.368,330.932,369.323,1
2.294043,-6.307,-2.988,-0.117,-31.677,355.468,411.56,1
2.301995,-7.02,-2.809,-0.28,-70.373,377.319,452.514,1
2.310232,-7.77,-2.64,-0.388,-44.189,391.662,488.647,1
2.317894,-8.689,-2.529,-0.584,18.737,398.315,528.442,1
2.326451,-9.624,-2.47,-0.767,95.581,396.667,573.791,1
2.333575,-10.745,-2.387,-0.956,184.204,384.826,633.361,1
2.341664,-11.945,-2.228,-1.101,258.056,364.318,688.659,1
2.349402,-13.407,-2.068,-1.257,314.209,336.73,748.962,1
2.357376,-14.777,-1.851,-1.368,338.195,303.222,810.729,1
2.366399,-15.999,-1.519,-1.459,357.971,257.019,882.446,1
2.373341,-15.999,-1.087,-1.529,383.728,206.665,941.406,1
2.381175,-15.999,-0.583,-1.387,421.325,148.62,996.765,1
2.390145,-15.999,-0.104,-1.3,469.665,83.862,1047.729,1
2.399577,-15.999,0.623,-1.146,524.292,-9.155,1099.487,1
2.406791,-15.999,1.217,-0.843,610.29,-113.159,1141.662,1
2.415969,-15.999,1.763,-0.637,707.214,-239.379,1167.541,1
2.424751,-15.999,2.166,-0.355,793.518,-364.624,1172.729,1
2.432198,-15.999,2.629,0.145,892.7,-526.855,1156.921,1
2.439522,-15.999,2.813,0.801,1001.464,-705.261,1105.224,1
2.448484,-15.999,2.513,1.562,1047.424,-856.994,1037.353,1
2.457375,-15.999,2.671,2.842,1114.99,-1012.634,930.175,1
2.465597,-15.999,2.937,3.616,1202.758,-1128.967,805.358,1
2.473169,-15.999,3.198,3.953,1275.146,-1236.145,616.455,1
2.481377,-15.999,2.92,4.079,1249.877,-1289.611,434.326,1
2.488855,-15.999,2.771,4.293,1168.823,-1297.546,231.018,1
2.497422,-15.999,2.945,3.999,1126.281,-1285.4,67.138,1
2.506518,-15.999,3.097,3.741,1188.476,-1250.976,-124.999,1
2.514625,-15.999,2.367,3.714,1252.136,-1188.232,-289.489,1
2.522101,-15.999,0.939,3.279,1147.033,-1064.27,-455.566,1
2.530489,-15.999,0.074,3.333,865.783,-932.678,-552.917,1
2.537459,-15.999,-0.157,3.463,544.25,-809.875,-605.651,1
2.546048,-15.999,-0.014,3.452,329.956,-714.721,-626.953,1
2.553642,-15.999,0.184,3.315,256.042,-635.864,-635.009,1
2.562921,-15.483,0.118,3.311,268.493,-580.932,-639.648,1
2.571491,-14.296,-0.261,3.288,287.109,-520.996,-641.601,1
2.579376,-13.082,-0.759,3.213,286.926,-457.092,-637.207,1
2.589115,-11.074,-1.134,3.083,274.963,-392.395,-625.854,1
2.597671,-10.132,-1.475,3.017,271.972,-340.209,-607.055,1
2.606061,-9.308,-1.757,2.923,251.586,-280.7,-581.909,1
2.614653,-8.479,-1.92,2.847,224.243,-230.529,-555.542,1
2.6218,-7.598,-2.079,2.778,207.702,-186.889,-531.188,1
2.630588,-6.799,-2.138,2.704,198.181,-139.526,-501.77,1
2.639061,-6.099,-2.23,2.539,190.063,-101.928,-476.196,1
2.647826,-5.322,-2.352,2.369,171.752,-61.706,-445.556,1
2.655864,-4.782,-2.373,2.212,164.611,-31.005,-418.334,1
2.664571,-4.366,-2.319,2.045,175.292,-1.953,-385.375,1
2.67169,-4.058,-2.28,1.944,201.66,24.719,-352.416,1
2.6818,-3.723,-2.309,1.804,212.585,48.461,-323.73,1
2.690132,-3.436,-2.3,1.645,185.363,77.087,-290.71,1
2.698968,-3.167,-2.22,1.508,142.333,102.844,-259.582,1
2.706421,-2.872,-2.114,1.334,103.271,122.375,-230.773,1
2.716955,-2.573,-2.024,1.156,72.021,137.39,-204.589,1
2.724352,-2.341,-1.892,1.023,45.593,147.583,-180.969,1
2.732797,-2.148,-1.777,0.915,31.249,155.639,-159.545,1
2.741379,-1.93,-1.677,0.83,19.897,160.888,-142.7,1
2.749492,-1.788,-1.584,0.76,11.413,165.588,-124.45,1
2.757985,-1.709,-1.491,0.704,8.544,168.09,-110.412,1
2.7659,-1.594,-1.423,0.636,5.371,170.837,-95.275,1
2.773786,-1.458,-1.379,0.581,0.976,172.363,-82.336,1
2.781525,-1.301,-1.34,0.52,-4.943,174.499,-68.054,1
2.790139,-1.163,-1.315,0.453,-12.817,175.231,-55.786,1
2.798693,-0.969,-1.299,0.388,-26.489,176.574,-42.236,1
2.808013,-0.828,-1.246,0.324,-46.142,177.734,-28.381,1
2.816489,-0.704,-1.166,0.28,-53.527,176.025,-17.15,1
2.824228,-0.565,-1.087,0.285,-41.381,172.79,-4.943,1
2.833211,-0.427,-1.073,0.27,-34.118,168.945,7.507,1
2.842424,-0.352,-1.042,0.333,-31.982,168.273,19.592,1
2.849122,-0.312,-0.959,0.36,-23.071,167.907,28.991,1
2.858321,-0.3,-0.854,0.384,-3.845,167.48,38.269,1
2.866711,-0.281,-0.783,0.372,24.353,166.564,49.072,1
2.873835,-0.273,-0.708,0.345,51.635,165.405,60.485,1
2.882521,-0.264,-0.641,0.295,69.824,163.146,70.19,1
2.892003,-0.208,-0.571,0.241,81.237,161.621,81.665,1
2.8993,-0.134,-0.476,0.189,86.242,157.897,91.43,1
2.906684,-0.025,-0.384,0.153,87.097,156.799,99.487,1
2.916061,0.004,-0.315,0.105,84.411,153.137,106.628,1
2.923641,-0.03,-0.25,0.108,77.209,149.902,114.624,1
2.932743,-0.029,-0.172,0.089,70.922,145.874,120.849,1
2.939531,-0.028,-0.095,0.111,72.57,141.479,127.075,1
2.947574,-0.031,-0.039,0.11,80.871,137.084,132.202,1
2.955568,-0.052,0.005,0.129,93.322,133.605,136.779,1
2.962548,-0.071,0.036,0.127,104.614,129.76,141.479,1
2.972013,-0.127,0.087,0.151,112.365,127.624,146.667,1
2.980037,-0.217,0.158,0.148,117.797,124.877,153.381,1
2.988441,-0.317,0.213,0.165,120.422,123.535,158.691,1
2.995609,-0.354,0.264,0.173,121.337,122.375,164.001,1
3.00434,-0.319,0.298,0.181,121.032,120.91,169.189,1
3.01033,-0.279,0.339,0.208,121.765,120.666,173.706,1
3.021007,-0.269,0.395,0.23,123.535,120.727,178.161,1
3.028283,-0.351,0.441,0.247,122.924,121.398,182.983,1
3.035704,-0.435,0.498,0.252,113.647,122.436,187.683,1
3.044231,-0.48,0.534,0.267,99.487,123.962,190.856,1
3.053457,-0.498,0.592,0.279,85.937,125.732,194.702,1
3.061049,-0.527,0.667,0.31,85.51,126.953,197.448,1
3.068495,-0.567,0.729,0.319,95.031,126.831,199.829,1
3.077443,-0.59,0.783,0.334,110.595,127.563,203.552,1
3.085578,-0.614,0.798,0.317,119.14,126.77,206.359,1
3.093266,-0.609,0.808,0.328,117.37,127.99,210.388,1
3.100037,-0.654,0.821,0.283,109.008,128.784,213.317,1
3.107323,-0.7,0.84,0.321,86.853,131.835,215.576,1
3.114718,-0.75,0.856,0.324,55.664,136.047,217.651,1
3.122422,-0.859,0.92,0.342,24.536,140.991,218.749,1
3.130243,-0.925,0.987,0.379,3.112,145.812,219.238,1
3.13923,-0.983,1.073,0.429,-2.197,148.254,219.055,1
3.147236,-1.0,1.155,0.503,7.019,151.0,218.139,1
3.154253,-0.917,1.168,0.553,23.254,153.503,217.102,1
3.163238,-0.977,1.206,0.6,29.663,158.691,217.529,1
3.172476,-1.02,1.228,0.609,24.719,163.757,217.712,1
3.179606,-1.069,1.271,0.637,12.756,172.058,217.773,1
3.186689,-1.143,1.353,0.64,9.521,178.527,217.407,1
3.19572,-1.204,1.413,0.623,14.221,184.204,216.247,1
3.203244,-1.319,1.439,0.566,8.911,190.734,214.477,1
3.212117,-1.372,1.488,0.534,-0.61,196.777,212.402,1
3.220956,-1.431,1.579,0.496,-2.136,202.209,208.862,1
3.228934,-1.532,1.666,0.484,8.3,205.993,205.322,1
3.235749,-1.612,1.741,0.467,25.573,210.449,200.988,1
3.244203,-1.664,1.797,0.396,36.193,213.806,198.181,1
3.251554,-1.766,1.842,0.32,43.823,216.247,194.702,1
3.258522,-1.824,1.871,0.245,46.874,219.055,191.711,1
3.266435,-1.833,1.915,0.166,48.522,221.008,187.866,1
3.273414,-1.804,1.955,0.077,52.856,222.839,184.143,1
3.282777,-1.94,1.989,-0.027,48.095,223.632,179.992,1
3.290011,-1.925,2.039,-0.109,37.841,226.44,175.353,1
3.298098,-1.908,2.086,-0.236,29.907,226.928,170.166,1
3.307321,-1.883,2.134,-0.348,23.559,226.989,163.94,1
3.315123,-1.792,2.178,-0.471,22.399,224.853,157.165,1
3.321719,-1.825,2.241,-0.595,23.559,222.167,150.207,1
3.330623,-1.827,2.287,-0.715,25.268,218.2,141.662,1
3.339831,-1.666,2.281,-0.833,27.526,212.402,132.751,1
3.34737,-1.641,2.264,-0.937,26.977,206.726,123.901,1
3.354776,-1.497,2.234,-1.041,23.376,201.904,116.699,1
3.364579,-1.491,2.235,-1.141,17.578,195.861,109.069,1
3.3729,-1.358,2.191,-1.222,11.901,189.453,102.294,1
3.381292,-1.233,2.154,-1.291,4.577,182.067,94.116,1
3.389932,-1.205,2.139,-1.335,0.61,173.095,85.998,1
3.397757,-0.988,2.069,-1.362,4.577,163.391,78.552,1
3.404911,-1.026,2.045,-1.354,7.019,155.273,72.204,1
3.41264,-0.93,1.961,-1.388,6.286,148.132,66.467,1
3.420172,-0.838,1.923,-1.359,4.333,138.671,60.485,1
3.427982,-0.813,1.888,-1.371,1.831,131.408,55.541,1
3.435849,-0.651,1.829,-1.357,-1.892,122.741,50.415,1
3.444219,-0.825,1.829,-1.307,-3.723,116.149,45.837,1
3.45193,-0.685,1.765,-1.308,-2.746,107.788,41.259,1
3.46119,-0.63,1.706,-1.249,-2.319,97.961,36.376,1
3.468963,-0.613,1.66,-1.201,2.502,90.454,32.531,1
3.476651,-0.532,1.52,-1.116,4.272,82.153,28.564,1
3.484511,-0.458,1.509,-1.011,8.605,76.049,26.733,1
3.493418,-0.454,1.441,-0.999,10.375,67.687,23.864,1
3.501136,-0.395,1.335,-0.842,0.793,63.537,22.46,1
3.510322,-0.393,1.294,-0.799,-14.587,60.424,20.812,1
3.517776,-0.335,1.214,-0.678,-28.137,55.664,19.775,1
3.526308,-0.354,1.233,-0.604,-28.381,54.87,19.287,1
3.533957,-0.357,1.215,-0.589,-26.794,49.133,17.639,1
3.543055,-0.363,1.182,-0.497,-26.733,48.4,16.845,1
3.55081,-0.386,1.181,-0.498,-29.052,45.776,15.014,1
3.559544,-0.396,1.166,-0.42,-25.634,42.419,13.244,1
3.566585,-0.376,1.148,-0.415,-20.812,40.466,11.413,1
3.575107,-0.392,1.143,-0.381,-17.15,37.536,9.582,1
3.585608,-0.403,1.128,-0.357,-14.343,35.949,7.751,1
3.593067,-0.414,1.118,-0.333,-12.695,32.958,5.432,1
3.601199,-0.442,1.1,-0.302,-12.512,31.677,3.967,1
3.610447,-0.473,1.072,-0.277,-19.592,30.334,2.075,1
3.618664,-0.481,1.055,-0.256,-27.282,29.052,0.732,1
3.625578,-0.47,1.031,-0.233,-35.705,28.259,-0.61,1
3.634188,-0.474,1.013,-0.213,-38.452,27.404,-1.525,1
3.640757,-0.456,0.987,-0.211,-39.001,25.939,-2.258,1
3.650245,-0.494,0.948,-0.21,-44.555,25.207,-2.075,1
3.658845,-0.514,1.005,-0.212,-42.48,25.451,-3.662,1
3.667604,-0.518,0.999,-0.188,-20.324,19.653,-4.943,1
3.674767,-0.499,0.958,-0.193,-2.441,18.554,-5.432,1
3.682746,-0.511,0.924,-0.21,5.187,14.953,-6.225,1
3.691607,-0.515,0.897,-0.195,5.737,14.77,-6.53,1
3.699072,-0.502,0.88,-0.206,2.929,13.122,-7.019,1
3.708469,-0.505,0.855,-0.194,-0.122,12.329,-6.896,1
3.716377,-0.493,0.843,-0.208,-3.723,11.169,-6.652,1
3.725834,-0.474,0.828,-0.195,-5.31,9.399,-6.225,1
3.733252,-0.464,0.816,-0.196,-6.53,7.873,-5.676,1
3.741117,-0.453,0.812,-0.187,-5.798,5.92,-4.943,1
3.749898,-0.439,0.799,-0.179,-5.126,3.845,-4.272,1
3.758536,-0.428,0.788,-0.165,-4.211,1.892,-3.417,1
3.765825,-0.413,0.782,-0.154,-3.234,0.244,-2.99,1
3.776226,-0.404,0.769,-0.139,-2.441,-1.037,-2.075,1
3.785555,-0.399,0.766,-0.126,-2.685,-2.624,-1.037,1
3.792631,-0.393,0.765,-0.117,-4.028,-3.723,-0.183,1
3.801959,-0.39,0.766,-0.101,-4.272,-5.065,0.976,1
3.809094,-0.387,0.766,-0.092,-3.417,-6.408,2.075,1
3.817076,-0.389,0.768,-0.078,-2.746,-7.568,3.051,1
3.82656,-0.385,0.77,-0.064,-2.38,-8.544,4.089,1
3.83554,-0.392,0.787,-0.046,-1.77,-9.521,5.249,1
3.842606,-0.417,0.811,-0.019,0.122,-10.864,6.286,1
3.849843,-0.436,0.832,0.002,1.281,-11.352,6.774,1
3.858881,-0.455,0.835,0.008,-0.793,-12.084,7.141,1
3.865877,-0.451,0.842,0.03,-5.187,-12.023,7.446,1
3.874294,-0.437,0.844,0.037,-9.094,-12.329,7.812,1
3.88296,-0.445,0.83,0.054,-15.258,-12.39,8.789,1
3.891744,-0.447,0.885,0.053,-12.878,-11.535,7.934,1
3.898759,-0.46,0.91,0.088,-3.173,-13.732,7.385,1
3.907347,-0.456,0.894,0.084,7.934,-12.939,7.324,1
3.915391,-0.451,0.877,0.086,9.338,-13.854,6.896,1
3.922853,-0.457,0.869,0.096,6.896,-12.756,6.958,1
3.932626,-0.462,0.884,0.096,3.906,-12.817,6.835,1
3.940356,-0.459,0.887,0.108,3.234,-12.207,6.896,1
3.947954,-0.456,0.892,0.106,3.234,-12.145,6.408,1
3.955601,-0.462,0.896,0.113,2.929,-11.901,6.53,1
3.962322,-0.457,0.896,0.117,2.563,-11.535,6.591,1
3.971273,-0.451,0.898,0.118,2.258,-11.23,6.408,1
3.980094,-0.448,0.898,0.119,2.136,-10.864,6.286,1
3.988481,-0.439,0.895,0.122,2.38,-10.314,6.103,1
3.997017,-0.432,0.887,0.133,2.441,-10.192,6.225,1
4.00458,-0.429,0.879,0.135,2.319,-9.704,6.286,1
4.013213,-0.432,0.881,0.135,2.746,-8.972,6.53,1
4.021544,-0.436,0.888,0.137,3.601,-8.605,6.713,1
4.028355,-0.44,0.89,0.138,3.784,-8.3,6.896,1
4.037441,-0.438,0.887,0.137,3.54,-7.812,7.019,1
4.045424,-0.436,0.892,0.135,3.112,-7.202,6.896,1
4.052038,-0.441,0.89,0.139,3.051,-6.896,6.774,1
4.059395,-0.439,0.893,0.133,2.99,-6.652,6.591,1
4.068183,-0.448,0.89,0.134,3.234,-6.164,6.53,1
4.075239,-0.442,0.886,0.125,3.234,-5.92,6.591,1
4.082823,-0.446,0.882,0.121,3.601,-5.615,6.591,1
4.090718,-0.444,0.882,0.111,4.821,-5.554,6.591,1
4.099728,-0.441,0.874,0.106,6.469,-5.615,6.896,1
4.108566,-0.452,0.871,0.104,7.141,-5.432,6.958,1
4.116993,-0.442,0.87,0.1,5.859,-5.187,7.263,1
4.125332,-0.446,0.865,0.097,3.54,-5.004,7.324,1
4.133711,-0.445,0.865,0.092,2.319,-5.187,7.568,1
4.141349,-0.449,0.867,0.088,1.77,-5.004,7.69,1
4.148224,-0.451,0.866,0.09,1.22,-5.249,7.69,1
4.15548,-0.453,0.868,0.091,1.403,-5.065,8.056,1
4.162697,-0.453,0.869,0.096,1.098,-5.432,7.995,1
4.171429,-0.457,0.874,0.098,1.159,-5.249,8.361,1
4.18077,-0.448,0.87,0.1,2.197,-5.493,8.3,1
4.187967,-0.445,0.853,0.107,0.976,-5.676,8.544,1
4.196115,-0.437,0.835,0.112,-2.197,-4.943,8.666,1
4.203658,-0.444,0.817,0.131,-11.413,-4.394,10.559,1
4.214369,-0.44,0.864,0.108,-14.648,-3.784,9.338,1
4.2218,-0.463,0.877,0.15,-4.272,-3.967,9.338,1
4.230524,-0.44,0.848,0.121,-2.807,-4.089,9.643,1
4.237852,-0.46,0.855,0.139,-5.432,-3.662,9.582,1
4.246247,-0.465,0.858,0.135,-7.751,-2.746,10.009,1
4.254772,-0.464,0.873,0.138,-7.751,-2.441,10.07,1
4.263496,-0.472,0.874,0.137,-7.141,-2.136,9.948,1
4.272144,-0.475,0.872,0.141,-7.629,-1.647,10.009,1
4.281084,-0.463,0.866,0.134,-8.728,-0.732,10.07,1
4.287444,-0.5,0.869,0.13,-12.084,-0.244,10.009,1
4.294756,-0.491,0.867,0.133,-14.648,0.0,10.07,1
4.303487,-0.48,0.861,0.124,-18.432,1.342,10.192,1
4.312774,-0.495,0.87,0.124,-23.803,1.892,10.253,1
4.321892,-0.506,0.887,0.12,-23.986,1.953,10.498,1
4.330511,-0.472,0.852,0.133,-26.855,1.77,12.145,1
4.337671,-0.537,0.958,0.133,-29.357,3.295,11.169,1
4.347834,-0.541,0.987,0.174,-16.235,2.136,11.047,1
4.3548,-0.49,0.999,0.177,0.427,2.014,10.498,1
4.363085,-0.476,1.023,0.19,11.779,2.197,10.559,1
4.370647,-0.493,1.08,0.142,23.437,1.647,9.338,1
4.380948,-0.545,1.111,0.245,11.718,1.525,8.361,1
4.387987,-0.546,1.073,0.222,-1.647,5.432,8.178,1
4.398201,-0.52,1.234,0.268,-12.451,8.728,6.164,1
4.405832,-0.521,1.314,0.291,-12.573,6.408,3.662,1
4.414342,-0.468,1.377,0.368,-9.887,8.666,0.976,1
4.422951,-0.433,1.373,0.409,-19.592,10.864,-2.807,1
4.430524,-0.401,1.438,0.495,-30.517,16.54,-6.469,1
4.439162,-0.428,1.491,0.568,-31.188,16.967,-9.826,1
4.447843,-0.443,1.53,0.659,-24.108,22.277,-13.732,1
4.456249,-0.459,1.589,0.731,-16.235,23.925,-18.005,1
4.464881,-0.474,1.61,0.817,-7.812,28.015,-22.338,1
4.472083,-0.514,1.616,0.888,-14.221,33.569,-27.221,1
4.48125,-0.506,1.656,0.991,-33.996,42.541,-32.531,1
4.490108,-0.527,1.673,1.045,-44.982,47.485,-37.17,1
4.498781,-0.551,1.664,1.153,-48.4,55.358,-42.602,1
4.506651,-0.573,1.64,1.228,-55.847,62.561,-48.217,1
4.515475,-0.606,1.649,1.331,-65.063,70.861,-52.734,1
4.524087,-0.633,1.651,1.417,-67.871,78.613,-58.044,1
4.53307,-0.643,1.632,1.542,-62.927,88.134,-62.866,1
4.540089,-0.608,1.635,1.635,-58.715,96.984,-67.077,1
4.549402,-0.678,1.65,1.716,-55.664,108.947,-70.861,1
4.557791,-0.74,1.656,1.762,-65.185,120.727,-75.622,1
4.565296,-0.759,1.674,1.794,-83.923,132.873,-80.261,1
4.574414,-0.776,1.717,1.81,-100.708,144.897,-86.059,1
4.582605,-0.823,1.743,1.841,-106.262,157.165,-92.712,1
4.590161,-0.871,1.759,1.848,-110.961,168.029,-99.365,1
4.59944,-0.919,1.779,1.881,-114.135,178.283,-105.346,1
4.609033,-0.971,1.8,1.914,-117.065,190.246,-112.487,1
4.615969,-1.032,1.839,1.943,-122.131,203.674,-119.323,1
4.625026,-1.171,1.928,1.93,-120.849,213.806,-126.22,1
4.63356,-1.301,2.019,1.92,-115.295,223.144,-133.972,1
4.640622,-1.479,2.078,1.877,-106.933,233.459,-144.042,1
4.650038,-1.591,2.055,1.838,-118.53,246.032,-153.93,1
4.659183,-1.694,2.085,1.733,-150.512,258.422,-164.123,1
4.666034,-1.889,2.197,1.649,-164.184,266.296,-174.072,1
4.674844,-1.999,2.263,1.529,-159.484,271.057,-185.974,1
4.681603,-2.153,2.333,1.436,-145.507,273.559,-195.861,1
4.690063,-2.219,2.332,1.302,-127.563,276.062,-205.322,1
4.697699,-2.318,2.312,1.156,-123.962,277.16,-214.111,1
4.704939,-2.401,2.275,1.009,-129.089,280.151,-222.778,1
4.713076,-2.409,2.248,0.875,-145.385,281.372,-232.849,1
4.722158,-2.452,2.245,0.741,-157.836,282.226,-241.821,1
4.729232,-2.51,2.244,0.553,-169.25,279.541,-252.868,1
4.739384,-2.552,2.235,0.411,-176.513,275.573,-263.122,1
4.747807,-2.583,2.211,0.23,-183.41,269.775,-274.658,1
4.755127,-2.586,2.2,0.072,-189.331,260.803,-286.071,1
4.766091,-2.575,2.177,-0.112,-185.363,251.281,-296.386,1
4.773174,-2.613,2.119,-0.278,-177.612,236.45,-309.448,1
4.782263,-2.605,2.047,-0.437,-172.668,222.106,-319.885,1
4.791359,-2.605,1.975,-0.575,-165.344,206.237,-329.65,1
4.80124,-2.614,1.914,-0.683,-157.226,189.697,-338.378,1
4.8096,-2.612,1.833,-0.791,-150.878,172.546,-346.618,1
4.817659,-2.589,1.758,-0.836,-145.08,155.273,-353.759,1
4.826353,-2.603,1.687,-0.853,-132.385,140.441,-359.619,1
4.835088,-2.561,1.607,-0.92,-119.75,127.136,-364.196,1
4.842683,-2.546,1.502,-0.964,-108.398,112.121,-368.041,1
4.851637,-2.47,1.401,-1.027,-103.393,100.28,-370.544,1
4.858941,-2.448,1.303,-1.059,-106.445,86.242,-372.558,1
4.868263,-2.407,1.195,-1.077,-111.083,72.509,-374.145,1
4.875431,-2.38,1.101,-1.071,-117.248,61.096,-374.572,1
4.884772,-2.344,0.991,-1.045,-126.22,48.156,-373.962,1
4.892575,-2.296,0.874,-1.008,-133.361,35.461,-372.802,1
4.901662,-2.254,0.778,-0.963,-135.375,24.597,-371.093,1
4.909756,-2.213,0.671,-0.911,-133.85,13.977,-368.652,1
4.916323,-2.187,0.576,-0.87,-130.187,2.136,-365.478,1
4.924301,-2.135,0.478,-0.83,-125.366,-6.835,-361.938,1
4.933131,-2.108,0.387,-0.792,-120.117,-15.747,-358.398,1
4.941282,-2.001,0.291,-0.739,-110.595,-24.536,-353.637,1
4.950081,-1.933,0.204,-0.694,-96.679,-32.836,-348.205,1
4.959142,-1.871,0.108,-0.659,-84.533,-38.452,-342.651,1
4.966506,-1.808,0.007,-0.621,-76.049,-43.64,-335.51,1
4.974378,-1.744,-0.051,-0.606,-78.125,-46.081,-329.589,1
4.983791,-1.692,-0.081,-0.58,-79.345,-48.95,-322.998,1
4.991786,-1.645,-0.157,-0.584,-80.505,-51.086,-317.138,1
5.000957,-1.563,-0.22,-0.583,-88.745,-52.856,-308.715,1
5.008867,-1.484,-0.27,-0.627,-99.487,-54.443,-302.001,1
5.017686,-1.361,-0.281,-0.649,-109.497,-58.227,-294.921,1
5.026843,-1.291,-0.247,-0.672,-100.158,-62.499,-288.452,1
5.034567,-1.242,-0.244,-0.683,-72.448,-69.152,-283.02,1
5.044068,-1.171,-0.29,-0.726,-40.039,-75.073,-278.564,1
5.051898,-1.14,-0.3,-0.751,-12.573,-79.711,-275.451,1
5.062696,-1.124,-0.348,-0.746,14.77,-82.519,-272.644,1
5.072209,-1.126,-0.446,-0.781,21.972,-83.557,-268.92,1
5.0793,-1.057,-0.541,-0.76,7.141,-82.458,-265.808,1
5.088899,-1.003,-0.611,-0.742,-12.084,-80.444,-262.329,1
5.09624,-0.912,-0.7,-0.736,-26.916,-79.162,-258.605,1
5.104699,-0.843,-0.74,-0.706,-38.696,-78.063,-254.211,1
5.112834,-0.837,-0.816,-0.684,-43.457,-78.735,-249.328,1
5.122956,-0.804,-0.891,-0.653,-45.654,-77.941,-244.689,1
5.131701,-0.824,-0.948,-0.631,-46.63,-78.002,-239.379,1
5.139091,-0.849,-0.989,-0.614,-41.564,-77.148,-234.252,1
5.148741,-0.879,-1.062,-0.633,-39.245,-78.735,-229.675,1
5.15669,-0.878,-1.056,-0.584,-37.109,-77.392,-225.463,1
5.16494,-0.866,-1.102,-0.568,-48.95,-78.613,-222.045,1
5.173663,-0.934,-1.13,-0.528,-47.18,-77.758,-216.613,1
5.182839,-0.985,-1.225,-0.506,-54.077,-79.833,-211.12,1
5.190185,-1.078,-1.192,-0.442,-50.17,-79.589,-205.505,1
5.198371,-1.022,-1.234,-0.426,-23.01,-83.618,-200.622,1
5.206523,-1.117,-1.287,-0.349,-1.831,-86.181,-195.983,1
5.214822,-1.062,-1.373,-0.326,16.235,-86.669,-190.551,1
5.222935,-1.032,-1.495,-0.208,16.479,-88.378,-185.913,1
5.231985,-1.072,-1.569,-0.151,34.484,-85.937,-177.734,1
5.240751,-1.023,-1.675,-0.1,49.194,-85.815,-169.128,1
5.249395,-1.017,-1.794,-0.015,58.776,-82.946,-159.79,1
5.258962,-1.01,-1.961,0.076,52.246,-77.636,-148.559,1
5.265907,-0.993,-2.107,0.141,33.752,-70.8,-134.826,1
5.275494,-0.915,-2.23,0.221,29.846,-67.565,-122.619,1
5.282496,-0.855,-2.41,0.369,37.17,-60.668,-105.834,1
5.290575,-0.764,-2.577,0.421,38.391,-54.199,-89.355,1
5.297937,-0.757,-2.728,0.523,30.7,-46.142,-71.472,1
5.307622,-0.75,-2.831,0.573,22.827,-34.484,-49.072,1
5.3148,-0.787,-2.897,0.642,15.991,-23.559,-25.695,1
5.322429,-0.864,-2.938,0.703,14.709,-12.939,-5.065,1
5.330359,-0.928,-2.999,0.767,16.052,-2.075,16.235,1
5.339143,-0.968,-3.031,0.853,28.503,9.704,37.963,1
5.34622,-1.054,-3.097,0.914,42.724,21.972,60.852,1
5.354922,-1.184,-3.134,0.955,49.682,37.78,88.867,1
5.363209,-1.411,-3.111,0.953,55.297,54.077,117.492,1
5.372388,-1.664,-3.089,0.938,59.02,70.129,146.911,1
5.379145,-1.891,-3.085,0.895,53.039,84.96,173.4,1
5.386892,-2.156,-3.062,0.881,34.301,100.28,199.279,1
5.398733,-2.426,-2.988,0.846,38.635,115.112,226.135,1
5.405613,-2.752,-2.945,0.774,55.908,130.554,263.549,1
5.41304,-3.068,-2.797,0.738,85.327,144.714,297.424,1
5.420978,-3.45,-2.904,0.638,92.285,151.977,329.345,1
5.428876,-3.857,-2.87,0.573,92.956,165.039,362.976,1
5.438101,-4.419,-2.829,0.415,100.708,172.546,397.338,1
5.444799,-4.997,-2.803,0.302,108.093,181.701,439.941,1
5.45243,-5.598,-2.751,0.125,102.661,188.049,478.21,1
5.460795,-6.294,-2.669,0.015,94.604,194.274,517.334,1
5.468989,-7.161,-2.55,-0.163,87.097,199.279,557.922,1
5.477945,-8.043,-2.406,-0.277,85.998,203.796,606.323,1
5.485399,-9.017,-2.25,-0.452,88.439,204.895,649.414,1
5.494271,-10.293,-2.068,-0.611,107.421,200.683,701.11,1
5.502796,-11.649,-1.877,-0.754,132.08,193.115,747.497,1
5.509689,-12.896,-1.712,-0.906,169.494,175.659,803.894,1
5.518056,-14.52,-1.485,-1.083,189.453,152.893,860.473,1
5.52724,-15.944,-1.315,-1.196,195.068,128.234,909.301,1
5.53512,-15.999,-1.003,-1.304,209.533,95.275,965.698,1
5.543494,-15.999,-0.722,-1.377,239.562,56.091,1012.756,1
5.550502,-15.999,-0.371,-1.37,291.015,8.361,1058.715,1
5.558737,-15.999,-0.101,-1.384,352.355,-63.293,1109.191,1
5.567676,-15.999,0.358,-1.316,416.259,-135.375,1147.949,1
5.575167,-15.999,0.93,-1.098,493.225,-225.097,1177.124,1
5.582893,-15.999,1.398,-0.814,543.701,-334.411,1198.12,1
5.592157,-15.999,1.866,-0.518,544.433,-429.626,1203.247,1
5.599428,-15.999,2.44,-0.029,538.635,-521.484,1200.012,1
5.608541,-15.999,2.896,0.48,558.715,-640.625,1185.119,1
5.616066,-15.999,3.271,1.017,649.841,-773.803,1150.268,1
5.625224,-15.999,3.54,2.122,754.699,-907.104,1108.886,1
5.631471,-15.999,4.591,3.439,1016.052,-1050.476,1016.296,1
5.640742,-15.999,5.345,3.891,1359.985,-1197.387,859.436,1
5.649808,-15.999,5.189,4.166,1674.255,-1339.355,622.924,1
5.656871,-15.999,4.182,4.0,1728.454,-1426.025,293.212,1
5.664563,-15.999,3.572,4.208,1523.803,-1398.376,-19.226,1
5.673893,-15.999,2.856,4.275,1310.18,-1304.626,-234.924,1
5.681703,-15.999,2.054,4.328,1140.197,-1158.447,-424.316,1
5.691905,-15.999,1.235,3.862,981.567,-1018.493,-544.372,1
5.699704,-15.999,0.688,3.484,739.868,-848.937,-649.719,1
5.708309,-15.999,0.353,2.969,586.242,-738.525,-694.763,1
5.715015,-15.999,0.298,2.941,467.712,-651.916,-721.679,1
5.723798,-15.999,0.151,2.827,363.342,-555.236,-735.534,1
5.729963,-15.953,0.037,2.795,280.883,-491.821,-736.267,1
5.738908,-14.982,-0.046,2.89,229.98,-427.551,-728.393,1
5.747762,-13.861,-0.249,2.745,192.871,-376.647,-713.684,1
5.755366,-12.829,-0.455,2.753,202.636,-331.909,-695.617,1
5.763687,-11.708,-0.544,2.703,199.89,-282.226,-669.677,1
5.772158,-10.482,-0.801,2.624,201.416,-240.966,-648.559,1
5.781049,-9.369,-1.034,2.514,177.795,-189.636,-622.314,1
5.788951,-8.233,-1.218,2.335,137.023,-146.179,-595.52,1
5.795397,-7.458,-1.326,2.17,111.45,-114.013,-570.495,1
5.805528,-6.48,-1.474,1.963,106.14,-84.96,-543.09,1
5.813089,-5.86,-1.549,1.8,120.483,-58.593,-513.549,1
5.82222,-5.536,-1.546,1.585,135.864,-38.208,-488.403,1
5.830624,-5.293,-1.462,1.452,162.414,-19.226,-458.801,1
5.839411,-5.008,-1.458,1.289,190.612,-2.685,-432.556,1
5.846124,-4.631,-1.483,1.157,198.669,16.723,-402.832,1
5.856254,-4.244,-1.504,1.003,182.556,34.118,-377.807,1
5.865112,-3.85,-1.52,0.923,149.658,50.72,-350.402,1
5.873439,-3.398,-1.559,0.806,108.947,67.687,-320.617,1
5.882505,-2.953,-1.569,0.731,80.993,76.721,-299.621,1
5.891404,-2.638,-1.564,0.66,60.791,83.374,-275.756,1
5.899758,-2.215,-1.544,0.604,56.64,87.524,-253.173,1
5.906569,-1.95,-1.532,0.544,62.927,90.148,-230.834,1
5.91689,-1.715,-1.492,0.489,64.514,92.041,-212.646,1
5.924491,-1.516,-1.426,0.432,60.852,94.665,-189.331,1
5.932397,-1.339,-1.333,0.388,57.373,96.008,-170.227,1
5.940904,-1.191,-1.252,0.344,55.908,96.435,-154.785,1
5.951279,-1.028,-1.163,0.3,56.823,95.764,-137.695,1
5.958713,-0.869,-1.103,0.255,54.87,94.909,-121.887,1
5.966555,-0.742,-1.059,0.243,50.72,93.933,-108.764,1
5.975178,-0.602,-0.983,0.217,48.4,92.651,-96.679,1
5.983979,-0.518,-0.928,0.21,47.912,90.454,-83.435,1
5.992983,-0.428,-0.872,0.187,50.964,87.524,-71.166,1
6.002056,-0.353,-0.815,0.183,57.861,84.777,-61.096,1
6.008721,-0.275,-0.769,0.171,71.655,80.932,-49.56,1
6.018002,-0.2,-0.735,0.162,80.505,77.758,-41.381,1
6.024649,-0.13,-0.696,0.148,85.571,74.829,-32.897,1
6.034339,-0.075,-0.671,0.146,87.28,72.57,-25.878,1
6.041312,0.005,-0.652,0.132,87.524,70.068,-19.104,1
6.049863,0.092,-0.617,0.129,88.317,66.589,-11.474,1
6.057994,0.187,-0.574,0.119,94.299,62.683,-5.187,1
6.065462,0.296,-0.514,0.13,108.215,57.617,1.647,1
6.072839,0.351,-0.49,0.125,120.361,52.856,7.385,1
6.080499,0.408,-0.459,0.135,129.943,48.461,11.84,1
6.089266,0.437,-0.437,0.134,133.911,44.799,16.113,1
6.096519,0.474,-0.409,0.142,134.399,41.992,19.775,1
6.104964,0.494,-0.357,0.14,136.474,39.855,22.644,1
6.11297,0.525,-0.317,0.138,145.69,36.376,25.573,1
6.120121,0.579,-0.304,0.119,155.883,33.569,27.648,1
6.129091,0.634,-0.308,0.113,158.63,31.921,29.418,1
6.137144,0.669,-0.31,0.112,152.343,31.677,31.982,1
6.144078,0.694,-0.309,0.126,140.258,31.921,34.118,1
6.15323,0.699,-0.313,0.15,127.685,32.714,36.499,1
6.160007,0.684,-0.319,0.193,118.408,33.813,39.306,1
6.169353,0.696,-0.315,0.23,114.746,35.461,42.419,1
6.176479,0.687,-0.326,0.245,115.722,36.132,45.41,1
6.182764,0.661,-0.334,0.245,115.356,36.926,47.973,1
6.19084,0.63,-0.351,0.243,111.938,36.682,50.781,1
6.197606,0.628,-0.366,0.252,105.468,36.987,53.283,1
6.206681,0.661,-0.369,0.275,99.609,36.743,55.664,1
6.213901,0.696,-0.365,0.32,98.754,36.437,57.312,1
6.221237,0.781,-0.364,0.359,102.294,36.376,59.692,1
6.229941,0.844,-0.355,0.409,108.52,36.499,61.706,1
6.237028,0.933,-0.318,0.444,119.201,37.109,63.903,1
6.243861,0.954,-0.279,0.483,127.563,36.743,65.49,1
6.251048,0.96,-0.252,0.509,134.521,38.085,67.016,1
6.259541,0.973,-0.237,0.521,131.896,39.428,67.81,1
6.26682,0.964,-0.22,0.543,119.384,42.541,68.42,1
6.275858,0.975,-0.167,0.546,103.942,45.349,68.481,1
6.282947,0.963,-0.101,0.557,94.238,47.424,68.359,1
6.291605,0.991,-0.041,0.552,94.177,48.767,67.382,1
6.298353,1.035,0.001,0.551,102.05,49.987,66.345,1
6.306711,1.092,0.028,0.521,111.511,50.17,65.185,1
6.314652,1.132,0.045,0.509,118.53,50.842,63.598,1
6.321312,1.162,0.068,0.499,118.957,52.368,62.194,1
6.330138,1.177,0.103,0.488,115.356,54.443,60.791,1
6.338605,1.197,0.136,0.482,106.933,57.128,58.593,1
6.344596,1.228,0.169,0.474,99.06,59.387,56.762,1
6.35327,1.255,0.203,0.47,94.97,61.401,54.565,1
6.362031,1.281,0.241,0.452,96.435,63.049,52.551,1
6.370661,1.295,0.262,0.428,99.975,64.147,50.659,1
6.38058,1.296,0.271,0.402,101.318,65.368,49.255,1
6.387158,1.274,0.292,0.376,101.318,66.345,48.095,1
6.396039,1.235,0.309,0.351,103.149,67.993,46.508,1
6.404942,1.196,0.328,0.33,105.468,69.396,45.166,1
6.411804,1.152,0.341,0.3,105.895,71.655,44.128,1
6.420349,1.115,0.342,0.264,102.844,74.035,42.907,1
6.427354,1.081,0.349,0.23,97.778,76.293,41.748,1
6.434811,1.047,0.355,0.202,93.078,78.308,40.649,1
6.442355,1.019,0.366,0.184,89.843,80.2,40.161,1
6.451082,0.983,0.378,0.159,87.768,81.481,39.55,1
6.459968,0.935,0.383,0.138,89.05,82.946,38.818,1
6.467165,0.898,0.386,0.113,94.055,83.496,38.757,1
6.474662,0.87,0.391,0.086,102.172,83.312,38.818,1
6.483497,0.837,0.388,0.077,110.168,83.923,39.245,1
6.490415,0.798,0.389,0.056,116.821,84.411,39.611,1
6.499425,0.771,0.386,0.04,118.225,85.083,39.978,1
6.506411,0.751,0.371,0.016,115.905,86.303,40.283,1
6.51587,0.714,0.353,0.0,108.703,88.5,41.015,1
6.523454,0.686,0.328,-0.037,99.487,90.148,41.748,1
6.532513,0.657,0.34,-0.053,91.43,92.712,42.236,1
6.540337,0.628,0.331,-0.084,88.134,93.749,42.297,1
6.547411,0.601,0.322,-0.1,88.439,94.909,42.663,1
6.55576,0.579,0.315,-0.116,91.43,95.336,42.846,1
6.56326,0.568,0.309,-0.13,97.29,95.52,43.273,1
6.570016,0.556,0.301,-0.144,105.041,95.397,44.006,1
6.578214,0.553,0.297,-0.158,115.234,95.275,45.227,1
6.584823,0.55,0.287,-0.187,126.586,94.543,46.447,1
6.593102,0.549,0.272,-0.209,136.962,93.933,48.034,1
6.600141,0.546,0.248,-0.242,143.737,93.383,50.048,1
6.608638,0.547,0.217,-0.279,144.592,93.017,51.879,1
6.615789,0.545,0.188,-0.317,138.183,93.261,54.443,1
6.624633,0.547,0.165,-0.347,128.173,93.2,56.823,1
6.631466,0.573,0.161,-0.376,117.614,92.834,59.631,1
6.638697,0.589,0.174,-0.384,110.839,91.491,63.049,1
6.646245,0.6,0.196,-0.385,114.501,89.599,66.162,1
6.655244,0.593,0.219,-0.382,127.014,86.547,68.969,1
6.663782,0.573,0.24,-0.375,145.874,82.763,71.655,1
6.671776,0.559,0.24,-0.371,165.405,78.979,75.073,1
6.680054,0.536,0.216,-0.359,179.382,75.439,78.796,1
6.687348,0.504,0.201,-0.364,176.208,74.584,83.068,1
6.696902,0.479,0.196,-0.376,161.621,74.707,86.242,1
6.702585,0.458,0.208,-0.392,141.845,75.134,89.172,1
6.711223,0.437,0.233,-0.408,121.032,75.622,92.041,1
6.718523,0.43,0.26,-0.426,102.722,76.11,94.116,1
6.727447,0.417,0.297,-0.44,91.064,75.622,95.825,1
6.735151,0.384,0.32,-0.453,86.791,74.951,97.29,1
6.741824,0.375,0.333,-0.455,88.012,73.242,98.937,1
6.749518,0.378,0.35,-0.464,94.726,71.105,100.769,1
6.757323,0.385,0.371,-0.452,106.323,68.237,102.783,1
6.764471,0.39,0.386,-0.445,121.093,64.941,105.651,1
6.77196,0.379,0.39,-0.43,137.634,60.913,108.276,1
6.779687,0.372,0.393,-0.412,153.198,57.739,111.816,1
6.78784,0.326,0.396,-0.407,161.499,54.748,115.112,1
6.797344,0.285,0.402,-0.412,159.912,53.039,118.469,1
6.805361,0.241,0.425,-0.418,150.146,51.025,122.131,1
6.812797,0.215,0.449,-0.417,137.756,49.987,125.488,1
6.82074,0.2,0.469,-0.423,126.586,48.4,128.051,1
6.828108,0.189,0.489,-0.419,116.577,47.119,130.859,1
6.836337,0.184,0.508,-0.407,108.764,45.898,133.361,1
6.843033,0.166,0.525,-0.397,104.736,44.799,135.437,1
6.850692,0.139,0.534,-0.376,102.416,43.701,137.817,1
6.859743,0.125,0.552,-0.378,100.83,42.724,140.136,1
6.866915,0.111,0.571,-0.37,101.44,40.527,142.639,1
6.87389,0.078,0.609,-0.358,106.811,37.902,145.507,1
6.881471,0.052,0.629,-0.35,112.731,35.4,147.338,1
6.890299,0.005,0.647,-0.345,122.924,31.555,150.207,1
6.89859,-0.053,0.645,-0.345,129.028,27.77,152.709,1
6.905669,-0.101,0.63,-0.342,130.615,24.536,155.822,1
6.914509,-0.169,0.617,-0.348,128.662,20.568,159.24,1
6.92145,-0.237,0.599,-0.34,126.22,17.578,162.719,1
6.930722,-0.282,0.594,-0.327,124.511,15.38,166.015,1
6.938375,-0.306,0.591,-0.333,121.032,12.634,170.532,1
6.945523,-0.374,0.613,-0.35,109.252,12.023,173.828,1
6.953294,-0.447,0.638,-0.395,87.158,11.352,176.757,1
6.962082,-0.5,0.683,-0.402,61.218,11.108,179.504,1
6.969855,-0.526,0.769,-0.423,37.353,11.657,182.678,1
6.979005,-0.519,0.864,-0.426,28.869,10.375,184.326,1
6.986606,-0.521,0.975,-0.407,36.743,7.934,184.814,1
6.995428,-0.508,1.064,-0.385,54.138,4.272,184.204,1
7.002392,-0.512,1.104,-0.366,68.176,1.525,182.861,1
7.011536,-0.504,1.13,-0.346,75.317,-1.403,181.701,1
7.018767,-0.491,1.183,-0.324,77.636,-3.845,179.809,1
7.027188,-0.479,1.262,-0.317,72.875,-6.347,177.185,1
7.034821,-0.46,1.324,-0.305,68.115,-7.995,174.438,1
7.042262,-0.43,1.386,-0.275,62.744,-9.948,170.41,1
7.049876,-0.391,1.431,-0.254,60.119,-11.23,166.442,1
7.057784,-0.362,1.458,-0.229,56.823,-12.878,162.536,1
7.065864,-0.347,1.492,-0.199,55.725,-13.854,158.996,1
7.074175,-0.31,1.526,-0.174,60.241,-15.441,156.066,1
7.083091,-0.33,1.577,-0.145,71.838,-18.188,152.343,1
7.092302,-0.302,1.602,-0.131,80.505,-19.775,147.949,1
7.100927,-0.312,1.607,-0.118,80.322,-22.338,143.432,1
7.108273,-0.319,1.599,-0.078,73.486,-22.583,139.77,1
7.117262,-0.287,1.604,-0.056,65.49,-22.888,136.779,1
7.125532,-0.313,1.588,-0.021,57.556,-23.559,133.728,1
7.133601,-0.283,1.624,0.007,48.4,-21.789,130.187,1
7.142028,-0.302,1.63,0.035,41.87,-22.46,127.441,1
7.148906,-0.284,1.629,0.039,38.696,-20.935,123.718,1
7.156515,-0.312,1.677,0.066,37.719,-21.057,120.605,1
7.165749,-0.331,1.718,0.068,41.931,-21.118,116.699,1
7.173377,-0.364,1.732,0.081,43.395,-21.911,111.877,1
7.18088,-0.368,1.709,0.091,30.151,-20.874,106.14,1
7.190696,-0.365,1.702,0.107,19.104,-19.592,102.172,1
7.197974,-0.354,1.692,0.108,7.202,-17.822,96.557,1
7.207665,-0.354,1.686,0.123,5.676,-17.089,91.003,1
7.21603,-0.322,1.609,0.121,-0.915,-15.686,87.646,1
7.223047,-0.303,1.621,0.104,6.103,-15.624,81.848,1
7.232043,-0.332,1.588,0.11,18.493,-15.991,77.697,1
7.239416,-0.321,1.532,0.076,26.55,-16.845,73.852,1
7.248871,-0.279,1.543,0.101,43.151,-18.127,70.312,1
7.255891,-0.421,1.438,0.084,43.701,-19.47,68.481,1
7.264531,-0.383,1.426,0.076,36.071,-18.188,64.758,1
7.270986,-0.453,1.454,0.117,35.766,-19.47,61.584,1
7.280035,-0.454,1.432,0.123,34.973,-18.859,58.227,1
7.287188,-0.446,1.418,0.116,29.418,-19.104,55.175,1
7.295197,-0.442,1.395,0.133,20.812,-18.127,52.246,1
7.302198,-0.407,1.379,0.134,13.061,-16.845,49.682,1
7.311138,-0.375,1.345,0.135,9.704,-16.479,47.424,1
7.318004,-0.362,1.32,0.137,10.009,-15.991,45.349,1
7.32581,-0.366,1.302,0.139,12.695,-15.808,43.457,1
7.33452,-0.367,1.284,0.147,15.136,-15.319,41.87,1
7.341294,-0.404,1.171,0.157,7.08,-15.319,41.503,1
7.350138,-0.338,1.228,0.158,-0.366,-11.535,38.818,1
7.35835,-0.349,1.253,0.16,9.887,-13.732,36.437,1
7.364774,-0.381,1.228,0.161,28.93,-13.305,35.095,1
7.373666,-0.41,1.202,0.144,33.996,-14.099,33.264,1
7.380791,-0.416,1.179,0.16,33.264,-13.549,31.311,1
7.389818,-0.414,1.151,0.149,25.146,-12.817,29.174,1
7.39904,-0.441,1.143,0.157,17.456,-12.023,27.648,1
7.406257,-0.45,1.125,0.153,8.239,-10.864,25.939,1
7.414865,-0.397,1.151,0.174,-4.821,-8.666,24.719,1
7.423702,-0.418,1.142,0.143,-4.394,-9.521,23.193,1
7.431493,-0.414,1.127,0.167,2.685,-9.399,21.606,1
7.438675,-0.428,1.125,0.147,4.272,-9.46,20.568,1
7.446668,-0.422,1.126,0.157,5.493,-9.521,19.165,1
7.455841,-0.42,1.112,0.16,7.263,-9.033,17.639,1
7.464271,-0.417,1.098,0.161,7.141,-8.361,16.418,1
7.471416,-0.419,1.09,0.164,7.019,-7.934,15.014,1
7.479606,-0.42,1.082,0.165,6.469,-7.08,13.916,1
7.488687,-0.434,1.08,0.162,6.408,-6.958,12.756,1
7.496734,-0.428,1.07,0.158,6.225,-6.225,11.657,1
7.504163,-0.429,0.978,0.152,-2.441,-6.164,11.962,1
7.51226,-0.414,1.04,0.153,-6.958,-4.15,9.887,1
7.518687,-0.436,1.067,0.164,0.732,-5.676,9.033,1
7.527055,-0.434,1.049,0.166,6.408,-4.882,8.178,1
7.534914,-0.435,1.038,0.16,4.577,-4.211,7.202,1
7.542238,-0.43,1.038,0.165,3.356,-3.845,6.225,1
7.549644,-0.429,1.027,0.163,2.502,-3.173,5.615,1
7.557652,-0.434,1.022,0.158,1.831,-2.929,4.577,1
7.566164,-0.433,1.016,0.155,1.464,-2.197,4.089,1
7.575587,-0.431,1.011,0.15,1.342,-1.831,3.173,1
7.582132,-0.43,0.994,0.146,1.281,-1.342,2.197,1
7.590671,-0.426,0.988,0.144,1.098,-1.098,1.953,1
7.598244,-0.423,0.982,0.137,0.732,-0.671,1.159,1
7.606288,-0.424,0.98,0.136,0.305,-0.61,1.22,1
7.613912,-0.417,0.963,0.128,0.061,-0.244,0.549,1
7.622366,-0.416,0.947,0.124,-1.403,0.061,0.061,1
7.631074,-0.411,0.932,0.123,-3.601,0.305,-0.183,1
7.638769,-0.417,0.91,0.12,-6.652,0.244,-0.305,1
7.647626,-0.456,0.887,0.117,-10.375,0.976,-0.427,1
7.65666,-0.409,0.889,0.139,-20.874,3.112,0.0,1
7.665118,-0.417,0.885,0.118,-19.714,2.014,-0.122,1
7.672189,-0.445,0.871,0.149,-10.559,1.464,0.183,1
7.680746,-0.462,0.85,0.143,-5.615,1.159,0.793,1
7.68848,-0.453,0.799,0.166,-10.498,1.403,2.075,1
7.69621,-0.443,0.817,0.18,-16.662,2.38,1.953,1
7.705423,-0.47,0.829,0.223,-15.991,2.197,2.258,1
7.712877,-0.468,0.818,0.267,-13.732,2.929,2.99,1
7.721796,-0.477,0.789,0.318,-19.042,3.723,3.906,1
7.730032,-0.479,0.805,0.391,-27.343,6.225,4.76,1
7.739284,-0.482,0.818,0.465,-33.081,7.934,5.615,1
7.746253,-0.488,0.845,0.545,-36.682,9.826,6.225,1
7.75375,-0.517,0.875,0.636,-41.32,12.39,6.958,1
7.763043,-0.495,0.921,0.746,-51.33,16.052,6.774,1
7.770068,-0.491,0.979,0.885,-81.176,22.827,5.92,1
7.7784,-0.532,1.11,1.044,-89.782,30.273,5.126,1
7.786961,-0.485,1.175,1.17,-84.899,35.827,2.746,1
7.793897,-0.474,1.233,1.29,-75.683,42.724,0.732,1
7.80267,-0.456,1.261,1.428,-69.702,50.415,-1.464,1
7.809697,-0.448,1.284,1.509,-68.115,61.279,-4.272,1
7.818413,-0.458,1.303,1.568,-72.937,70.861,-6.591,1
7.826369,-0.497,1.339,1.628,-78.063,80.81,-9.338,1
7.834806,-0.522,1.383,1.687,-80.2,91.369,-12.39,1
7.841946,-0.554,1.41,1.719,-79.711,102.6,-16.54,1
7.849202,-0.585,1.42,1.736,-80.566,113.342,-20.08,1
7.85846,-0.625,1.427,1.738,-84.899,124.084,-23.803,1
7.866223,-0.679,1.44,1.719,-91.979,136.596,-28.076,1
7.875095,-0.729,1.441,1.695,-100.585,146.911,-32.287,1
7.882879,-0.796,1.455,1.655,-113.464,159.24,-37.353,1
7.891356,-0.845,1.47,1.616,-122.863,169.189,-42.297,1
7.898472,-0.919,1.494,1.554,-131.225,178.71,-46.997,1
7.907716,-0.994,1.518,1.489,-138.549,188.354,-53.161,1
7.916476,-1.065,1.567,1.394,-141.967,197.326,-59.448,1
7.924292,-1.122,1.598,1.313,-141.052,204.406,-66.406,1
7.933458,-1.204,1.641,1.225,-138.183,209.411,-72.509,1
7.943074,-1.271,1.655,1.136,-137.146,215.698,-80.932,1
7.949086,-1.339,1.681,1.069,-144.714,220.214,-87.951,1
7.958425,-1.389,1.685,1.004,-162.292,224.853,-94.909,1
7.965894,-1.448,1.736,0.939,-189.697,229.98,-103.82,1
7.97531,-1.491,1.805,0.854,-214.66,234.191,-113.22,1
7.983212,-1.554,1.89,0.798,-247.253,237.853,-125.122,1
7.99081,-1.603,2.013,0.668,-267.578,239.074,-139.221,1
8.00003,-1.621,2.107,0.583,-268.554,236.938,-152.221,1
8.008056,-1.639,2.195,0.47,-256.591,232.788,-164.733,1
8.015838,-1.672,2.241,0.362,-236.816,226.257,-179.626,1
8.023757,-1.711,2.262,0.24,-224.365,221.008,-192.199,1
8.03201,-1.752,2.244,0.101,-221.801,214.233,-206.298,1
8.04123,-1.82,2.246,-0.011,-230.346,206.97,-220.214,1
8.049213,-1.813,2.243,-0.122,-235.107,199.401,-231.75,1
8.05627,-1.858,2.221,-0.211,-236.145,190.734,-243.225,1
8.064189,-1.859,2.206,-0.289,-232.36,179.26,-255.554,1
8.073742,-1.897,2.193,-0.342,-221.13,168.701,-265.625,1
8.083519,-1.996,2.173,-0.438,-200.439,153.93,-278.198,1
8.090772,-2.026,2.131,-0.482,-188.171,142.822,-286.499,1
8.101608,-2.044,2.094,-0.527,-178.71,131.652,-295.715,1
8.108581,-2.083,2.04,-0.597,-171.386,117.309,-304.992,1
8.11655,-2.094,1.982,-0.618,-168.518,107.971,-311.401,1
8.125666,-2.086,1.949,-0.658,-165.954,97.717,-317.016,1
8.132402,-2.133,1.943,-0.691,-153.015,87.951,-322.631,1
8.141684,-2.095,1.892,-0.749,-137.268,76.049,-328.247,1
8.149155,-2.131,1.846,-0.799,-125.854,65.551,-333.251,1
8.156364,-2.123,1.805,-0.867,-117.248,56.335,-336.975,1
8.165716,-2.145,1.763,-0.931,-106.018,47.485,-340.759,1
8.172326,-2.175,1.714,-0.986,-94.726,37.536,-344.177,1
8.179515,-2.226,1.677,-1.042,-76.477,28.442,-346.74,1
8.189519,-2.223,1.587,-1.079,-53.222,18.066,-349.182,1
8.198845,-2.286,1.509,-1.131,-20.629,8.056,-351.806,1
8.205539,-2.272,1.407,-1.188,-9.643,0.122,-353.82,1
8.214651,-2.316,1.291,-1.222,-19.226,-5.493,-355.224,1
8.221733,-2.297,1.186,-1.259,-37.353,-9.887,-355.957,1
8.230372,-2.263,1.125,-1.283,-53.588,-16.967,-355.957,1
8.239569,-2.197,1.04,-1.331,-56.274,-24.047,-355.407,1
8.248512,-2.154,0.965,-1.35,-46.386,-33.813,-354.186,1
8.256136,-2.083,0.849,-1.361,-31.433,-43.09,-351.989,1
8.264778,-2.03,0.74,-1.356,-24.414,-49.255,-349.609,1
8.272465,-1.963,0.61,-1.347,-22.949,-55.297,-346.435,1
8.281122,-1.877,0.505,-1.311,-30.212,-60.913,-343.383,1
8.289741,-1.79,0.426,-1.279,-35.827,-65.124,-340.209,1
8.29851,-1.73,0.361,-1.238,-37.841,-70.861,-336.608,1
8.307256,-1.587,0.293,-1.183,-32.287,-75.683,-332.824,1
8.315111,-1.513,0.233,-1.138,-27.526,-80.505,-328.491,1
8.324639,-1.479,0.183,-1.064,-26.428,-83.801,-325.317,1
8.33283,-1.439,0.139,-1.011,-28.198,-85.632,-322.936,1
8.339671,-1.358,0.075,-0.925,-28.442,-87.707,-320.617,1
8.3492,-1.288,0.03,-0.886,-33.447,-88.134,-319.274,1
8.358148,-1.227,0.017,-0.819,-47.79,-87.707,-316.772,1
8.366086,-1.163,0.014,-0.8,-63.049,-88.134,-314.575,1
8.373259,-1.072,0.023,-0.777,-67.321,-89.05,-312.805,1
8.384162,-1.088,0.029,-0.748,-63.476,-93.627,-311.95,1
8.390641,-1.088,0.024,-0.676,-48.339,-95.52,-311.889,1
8.400081,-1.083,0.019,-0.664,-33.874,-98.083,-312.133,1
8.410249,-1.117,-0.02,-0.618,-23.437,-99.853,-313.232,1
8.418784,-1.183,-0.096,-0.572,-22.216,-99.792,-314.27,1
8.427456,-1.182,-0.177,-0.543,-30.578,-98.51,-314.27,1
8.434432,-1.206,-0.237,-0.496,-48.4,-97.229,-313.293,1
8.442997,-1.211,-0.293,-0.486,-72.753,-96.008,-311.218,1
8.453532,-1.191,-0.344,-0.421,-94.848,-96.496,-308.166,1
8.461169,-1.162,-0.392,-0.395,-107.238,-97.534,-303.833,1
8.470271,-1.164,-0.436,-0.339,-109.191,-101.013,-298.339,1
8.479019,-1.162,-0.482,-0.291,-98.205,-103.332,-292.846,1
8.487451,-1.183,-0.547,-0.232,-83.557,-106.079,-287.841,1
8.496069,-1.218,-0.632,-0.207,-77.026,-105.59,-283.02,1
8.50482,-1.276,-0.759,-0.181,-85.632,-104.919,-276.855,1
8.513312,-1.257,-0.865,-0.166,-109.436,-101.623,-269.836,1
8.521358,-1.31,-0.928,-0.13,-136.169,-100.524,-261.657,1
8.530607,-1.342,-0.966,-0.083,-145.568,-99.853,-254.76,1
8.539621,-1.374,-1.017,-0.031,-135.559,-101.318,-246.032,1
8.548344,-1.361,-1.16,0.005,-108.764,-101.928,-237.426,1
8.55672,-1.336,-1.295,0.034,-88.378,-102.478,-228.881,1
8.565992,-1.383,-1.413,0.068,-78.735,-101.135,-219.177,1
8.575023,-1.369,-1.531,0.11,-68.786,-99.121,-208.923,1
8.583432,-1.334,-1.647,0.164,-45.654,-99.548,-198.791,1
8.592757,-1.255,-1.761,0.234,-20.019,-98.693,-187.622,1
8.601725,-1.165,-1.858,0.311,-0.488,-97.534,-175.842,1
8.60854,-1.361,-1.928,0.425,35.217,-95.336,-164.489,1
8.619027,-0.641,-2.143,0.458,53.71,-92.529,-151.55,1
8.626235,-1.091,-2.387,0.79,30.09,-85.937,-135.62,1
8.635404,-0.954,-2.492,0.798,16.418,-71.96,-119.201,1
8.642439,-0.897,-2.545,1.042,14.892,-68.054,-105.285,1
8.650299,-0.888,-2.657,1.189,26.0,-55.358,-89.05,1
8.659365,-0.762,-2.733,1.363,48.034,-47.912,-71.044,1
8.668214,-0.726,-2.823,1.525,71.594,-35.644,-53.894,1
8.675072,-0.655,-2.914,1.628,89.721,-22.521,-33.874,1
8.682756,-0.646,-2.984,1.717,94.665,-7.446,-15.563,1
8.692521,-0.683,-2.981,1.75,94.543,7.446,2.38,1
8.698645,-0.716,-3.041,1.756,68.786,26.428,22.827,1
8.707989,-0.741,-3.009,1.776,31.921,45.043,41.564,1
8.718847,-0.81,-2.888,1.791,18.432,61.523,59.814,1
8.726315,-0.964,-2.794,1.745,15.319,83.618,87.036,1
8.734227,-1.108,-2.712,1.723,11.962,100.341,104.858,1
8.742028,-1.302,-2.6,1.659,9.399,118.041,125.183,1
8.749566,-1.468,-2.495,1.603,6.835,134.948,142.639,1
8.756889,-1.727,-2.373,1.507,4.821,150.817,159.423,1
8.766099,-2.014,-2.25,1.449,4.638,166.87,175.842,1
8.773352,-2.315,-2.146,1.41,3.906,184.265,191.833,1
8.780998,-2.738,-2.011,1.319,0.549,207.519,209.411,1
8.788472,-3.016,-1.882,1.249,0.0,226.684,224.365,1
8.797215,-3.305,-1.773,1.156,3.356,246.459,239.379,1
8.804837,-3.632,-1.642,1.025,4.76,268.859,257.629,1
8.814375,-3.96,-1.551,0.915,0.854,288.208,273.559,1
8.821845,-4.394,-1.438,0.78,-8.789,311.95,292.114,1
8.832108,-4.857,-1.305,0.679,-17.028,332.58,307.739,1
8.839312,-5.389,-1.185,0.555,-23.071,356.689,326.049,1
8.846528,-5.93,-1.087,0.436,-32.287,382.324,344.726,1
8.855131,-6.35,-1.009,0.325,-50.537,404.785,360.229,1
8.863887,-6.972,-0.958,0.238,-73.059,428.771,375.244,1
8.871357,-7.687,-0.922,0.144,-92.834,455.139,390.686,1
8.879746,-8.425,-0.901,0.073,-108.093,487.548,409.484,1
8.88675,-9.162,-0.855,-0.031,-101.135,515.014,425.72,1
8.896525,-10.115,-0.836,-0.181,-68.237,541.992,447.387,1
8.903994,-11.078,-0.849,-0.352,-23.559,560.852,471.008,1
8.913025,-12.035,-0.846,-0.486,45.288,575.012,505.493,1
8.920696,-13.14,-0.822,-0.658,124.084,580.688,544.25,1
8.927852,-14.12,-0.793,-0.846,236.083,573.669,600.463,1
8.936603,-15.222,-0.724,-1.025,340.759,555.236,660.034,1
8.94325,-15.999,-0.611,-1.237,437.622,522.949,729.309,1
8.952252,-15.999,-0.518,-1.405,523.681,467.712,817.077,1
8.960445,-15.999,-0.334,-1.661,568.847,407.165,894.653,1
8.967122,-15.999,0.043,-1.697,608.276,332.641,969.726,1
8.976313,-15.999,0.464,-1.488,646.85,248.413,1040.1,1
8.985276,-15.999,0.893,-1.505,670.165,141.113,1112.609,1
8.993107,-15.999,1.471,-1.284,676.757,20.385,1170.471,1
9.001578,-15.999,2.001,-1.01,691.589,-82.153,1208.068,1
9.008401,-15.999,2.544,-0.785,716.064,-221.252,1234.008,1
9.017697,-15.999,2.875,-0.384,762.939,-346.313,1242.431,1
9.025104,-15.999,3.104,0.17,831.542,-486.938,1234.863,1
9.031995,-15.999,3.314,1.058,916.076,-662.78,1207.946,1
9.041369,-15.999,3.755,2.064,1112.609,-819.213,1148.01,1
9.049749,-15.999,3.973,3.02,1351.684,-993.774,1035.888,1
9.058076,-15.999,3.811,3.933,1548.889,-1178.588,831.481,1
9.065609,-15.999,3.186,4.09,1533.386,-1293.579,624.511,1
9.074494,-15.999,2.995,4.018,1400.634,-1355.895,384.399,1
9.083123,-15.999,2.899,4.034,1329.04,-1362.609,189.147,1
9.09191,-15.999,2.602,3.72,1271.789,-1330.444,-28.686,1
9.10041,-15.999,2.203,3.362,1165.771,-1238.647,-227.111,1
9.109217,-15.999,1.59,3.109,970.764,-1118.957,-389.16,1
9.117613,-15.999,0.891,2.633,722.045,-989.379,-499.938,1
9.124815,-15.999,0.645,2.433,452.209,-888.183,-565.673,1
9.133876,-15.999,0.533,2.613,252.136,-803.588,-589.233,1
9.141326,-15.999,0.518,2.567,109.497,-742.065,-593.627,1
9.149817,-15.999,0.643,2.764,39.55,-685.424,-585.266,1
9.159174,-15.431,0.695,2.645,57.861,-639.587,-572.143,1
9.166664,-14.755,0.738,2.703,125.488,-606.14,-563.72,1
9.175011,-13.607,0.617,2.604,221.191,-559.57,-561.157,1
9.183257,-12.351,0.272,2.615,251.892,-507.446,-560.974,1
9.191734,-11.234,-0.086,2.465,226.257,-453.124,-555.969,1
9.200917,-9.941,-0.312,2.519,171.203,-401.672,-545.105,1
9.20952,-8.898,-0.421,2.456,143.615,-353.759,-531.677,1
9.217182,-7.908,-0.614,2.387,137.146,-315.856,-514.953,1
9.226003,-6.961,-0.752,2.256,144.775,-268.127,-495.361,1
9.235228,-6.189,-0.861,2.041,145.324,-234.985,-478.21,1
9.242105,-5.571,-0.995,1.887,145.874,-201.599,-462.341,1
9.251257,-5.021,-1.111,1.741,141.235,-168.701,-445.007,1
9.261087,-4.56,-1.297,1.612,133.544,-133.361,-425.17,1
9.26988,-4.296,-1.377,1.429,121.215,-105.773,-403.564,1
9.27821,-4.097,-1.416,1.314,121.948,-81.42,-379.15,1
9.286329,-3.79,-1.432,1.197,133.972,-64.758,-357.849,1
9.294444,-3.466,-1.497,1.113,138.122,-45.41,-332.885,1
9.303397,-3.096,-1.564,1.01,114.257,-26.794,-308.044,1
9.309581,-2.786,-1.567,0.946,84.594,-12.268,-286.865,1
9.318078,-2.511,-1.555,0.891,59.875,-0.671,-266.296,1
9.325943,-2.262,-1.545,0.858,38.085,9.887,-243.408,1
9.333509,-2.038,-1.517,0.834,23.437,17.089,-224.975,1
9.342957,-1.826,-1.474,0.828,13.916,23.193,-207.397,1
9.350282,-1.594,-1.402,0.811,9.826,30.029,-188.476,1
9.358525,-1.397,-1.347,0.793,8.544,34.79,-172.973,1
9.366599,-1.222,-1.29,0.769,8.117,39.733,-158.691,1
9.373724,-1.059,-1.237,0.736,8.789,43.64,-145.141,1
9.381387,-0.889,-1.182,0.716,13.916,47.363,-131.225,1
9.388044,-0.75,-1.13,0.689,26.123,50.048,-118.225,1
9.398156,-0.669,-1.071,0.647,39.062,51.452,-105.224,1
9.405888,-0.668,-1.02,0.617,45.776,53.771,-91.308,1
9.413089,-0.647,-0.981,0.6,39.062,56.518,-78.491,1
9.423318,-0.612,-0.941,0.587,27.526,59.265,-67.932,1
9.430341,-0.559,-0.884,0.579,13.732,62.072,-56.396,1
9.439659,-0.52,-0.835,0.578,5.493,64.025,-47.485,1
9.446281,-0.458,-0.781,0.572,2.136,65.673,-37.536,1
9.454939,-0.392,-0.727,0.561,8.3,66.101,-28.076,1
9.465544,-0.32,-0.697,0.548,18.31,65.612,-20.263,1
9.474461,-0.236,-0.685,0.541,31.005,65.002,-10.986,1
9.48284,-0.141,-0.687,0.536,38.879,63.72,-0.793,1
9.49031,-0.07,-0.678,0.526,38.513,63.659,6.591,1
9.501212,-0.008,-0.658,0.523,35.4,62.988,14.77,1
9.508091,0.052,-0.634,0.527,32.47,61.645,23.742,1
9.51574,0.114,-0.603,0.535,31.86,60.241,29.968,1
9.523488,0.179,-0.571,0.541,31.982,59.02,35.949,1
9.530984,0.257,-0.53,0.559,33.447,57.739,41.687,1
9.538242,0.323,-0.497,0.569,37.658,55.603,47.18,1
9.545944,0.357,-0.446,0.586,45.776,54.077,52.124,1
9.553661,0.386,-0.398,0.595,54.626,52.368,56.945,1
9.561168,0.384,-0.358,0.604,61.584,50.354,61.95,1
9.570289,0.394,-0.318,0.609,65.002,49.194,66.711,1
9.579409,0.426,-0.294,0.616,62.499,48.767,72.082,1
9.587112,0.451,-0.256,0.62,52.062,49.621,76.477,1
9.596002,0.501,-0.229,0.618,37.414,51.208,81.848,1
9.603485,0.496,-0.169,0.609,31.494,52.062,86.364,1
9.612406,0.507,-0.117,0.603,31.555,52.612,90.759,1
9.620096,0.502,-0.095,0.577,28.381,53.283,94.848,1
9.627754,0.514,-0.104,0.56,17.883,54.504,98.205,1
9.635275,0.551,-0.1,0.536,3.356,55.969,101.44,1
9.643253,0.591,-0.077,0.529,-8.85,56.762,104.431,1
9.65202,0.624,-0.048,0.521,-14.831,57.556,107.543,1
9.659416,0.651,-0.027,0.518,-16.052,57.495,109.68,1
9.667929,0.636,-0.008,0.52,-15.075,58.532,112.121,1
9.675794,0.666,0.011,0.501,-14.831,59.143,114.868,1
9.683597,0.653,0.027,0.503,-14.404,60.058,117.065,1
9.691222,0.654,0.041,0.498,-11.291,60.913,119.873,1
9.699496,0.661,0.059,0.491,-5.92,61.279,122.558,1
9.707078,0.648,0.073,0.483,0.915,61.828,124.999,1
9.7159,0.682,0.087,0.483,13.916,62.499,127.929,1
9.723536,0.662,0.102,0.476,27.648,61.767,130.432,1
9.731911,0.654,0.09,0.472,38.513,61.462,133.85,1
9.739072,0.642,0.09,0.463,43.579,61.523,136.169,1
9.74804,0.637,0.094,0.46,46.142,60.974,139.404,1
9.755293,0.613,0.102,0.46,45.654,61.889,142.089,1
9.76232,0.576,0.106,0.446,43.151,62.377,144.348,1
9.771541,0.546,0.1,0.436,38.879,63.171,146.301,1
9.778347,0.533,0.079,0.427,28.32,64.697,149.78,1
9.787092,0.481,0.088,0.418,16.54,66.833,153.32,1
9.796214,0.407,0.096,0.41,4.882,69.03,157.104,1
9.804044,0.378,0.106,0.405,-2.258,71.228,160.888,1
9.811465,0.37,0.146,0.405,-4.455,72.692,164.978,1
9.820224,0.346,0.172,0.404,-0.122,73.73,168.212,1
9.827751,0.322,0.196,0.404,9.521,74.035,172.668,1
9.833827,0.306,0.218,0.416,16.052,74.401,176.086,1
9.841799,0.257,0.254,0.413,27.587,73.852,179.992,1
9.848842,0.248,0.292,0.411,39.123,73.364,184.265,1
9.856661,0.183,0.344,0.43,47.973,73.364,187.438,1
9.86381,0.111,0.374,0.421,49.194,73.364,190.551,1
9.872281,0.047,0.397,0.425,44.494,75.256,193.115,1
9.878877,0.026,0.378,0.41,29.418,77.148,195.617,1
9.886746,-0.04,0.424,0.4,14.282,80.81,198.181,1
9.894811,-0.076,0.458,0.391,1.281,83.007,200.378,1
9.903091,-0.141,0.483,0.387,-6.652,85.754,202.209,1
9.913107,-0.194,0.504,0.368,-14.099,88.5,204.223,1
9.91982,-0.209,0.51,0.352,-16.723,91.369,206.176,1
9.928265,-0.236,0.502,0.333,-15.441,92.895,208.251,1
9.936947,-0.26,0.474,0.323,-10.375,94.909,210.51,1
9.944032,-0.288,0.448,0.308,-6.53,96.618,213.134,1
9.951447,-0.289,0.418,0.287,-6.713,98.327,215.82,1
9.960142,-0.269,0.378,0.281,-6.469,100.524,218.261,1
9.968116,-0.298,0.348,0.26,-11.169,102.478,221.13,1
9.977281,-0.392,0.311,0.246,-17.822,106.079,224.06,1
9.982787,-0.375,0.271,0.22,-28.503,110.168,226.989,1
9.992092,-0.365,0.268,0.2,-41.015,112.792,230.163,1
9.999651,-0.482,0.28,0.202,-48.95,116.455,232.421,1
