timestamp_s,ax,ay,az,gx,gy,gz,label
0.006174,0.084,0.983,0.171,5.92,9.826,7.934,1
0.013463,0.085,0.986,0.169,5.737,9.643,7.446,1
0.020016,0.082,0.989,0.168,7.141,9.155,7.385,1
0.028006,0.077,0.992,0.168,8.117,8.789,6.896,1
0.034718,0.075,0.991,0.166,8.972,8.544,6.408,1
0.042904,0.075,0.99,0.165,9.399,8.3,6.53,1
0.050065,0.081,0.986,0.163,9.216,8.056,6.225,1
0.05745,0.086,0.982,0.158,9.094,7.69,6.103,1
0.065088,0.092,0.977,0.156,9.155,6.896,6.53,1
0.071606,0.098,0.963,0.149,9.826,5.859,6.958,1
0.078581,0.095,0.96,0.155,9.399,5.31,7.385,1
0.085557,0.084,0.967,0.161,9.643,4.333,7.568,1
0.093417,0.065,0.979,0.165,9.765,3.906,7.568,1
0.100438,0.047,0.986,0.167,10.314,3.173,7.629,1
0.107355,0.035,0.988,0.164,10.375,2.868,7.324,1
0.115826,0.031,0.987,0.163,9.643,2.319,6.958,1
0.12244,0.027,0.998,0.16,8.544,1.892,6.652,1
0.130695,0.021,1.008,0.161,7.995,1.647,6.408,1
0.137381,0.022,1.021,0.16,7.812,1.22,5.92,1
0.145591,0.022,1.026,0.151,8.85,0.549,5.493,1
0.152069,0.023,1.031,0.153,9.399,-0.061,5.004,1
0.159833,0.031,1.035,0.144,10.498,-0.549,4.638,1
0.167227,0.034,1.032,0.142,11.84,-1.525,4.15,1
0.174392,0.033,1.03,0.141,12.756,-2.441,3.906,1
0.182928,0.031,1.027,0.148,12.512,-3.234,3.54,1
0.190009,0.034,1.024,0.148,11.779,-3.906,3.173,1
0.196969,0.033,1.033,0.152,11.23,-4.943,2.807,1
0.204145,0.031,1.034,0.155,11.291,-5.554,2.136,1
0.212733,0.029,1.029,0.158,11.474,-5.859,1.892,1
0.219222,0.027,1.021,0.157,10.803,-6.164,1.22,1
0.227553,0.021,1.012,0.157,9.826,-6.958,0.976,1
0.235517,0.021,1.007,0.161,8.361,-7.446,0.61,1
0.24202,0.02,1.011,0.157,7.446,-7.995,0.244,1
0.250201,0.026,1.007,0.158,6.286,-8.239,-0.244,1
0.258587,0.029,1.011,0.164,5.92,-8.666,-0.549,1
0.265654,0.039,1.002,0.155,6.347,-9.521,-0.793,1
0.272672,0.047,0.996,0.153,7.446,-10.803,-1.037,1
0.279898,0.05,0.996,0.16,8.544,-11.291,-1.281,1
0.288396,0.053,0.992,0.169,10.131,-12.329,-1.464,1
0.295165,0.057,0.986,0.187,9.521,-12.939,-1.77,1
0.303163,0.058,0.98,0.206,6.896,-13.183,-1.708,1
0.309739,0.058,0.978,0.205,3.54,-13.0,-1.892,1
0.316757,0.054,0.979,0.207,1.037,-12.939,-1.953,1
0.325221,0.05,0.97,0.203,-0.183,-12.878,-1.831,1
0.332249,0.053,0.961,0.193,-0.366,-13.244,-1.525,1
0.339306,0.046,0.959,0.187,1.098,-13.977,-1.281,1
0.347701,0.047,0.961,0.188,3.173,-14.587,-0.976,1
0.356228,0.041,0.961,0.196,5.371,-15.258,-0.976,1
0.362658,0.041,0.965,0.207,7.141,-15.502,-0.854,1
0.371088,0.037,0.973,0.219,7.934,-15.991,-0.732,1
0.377852,0.034,0.973,0.231,7.812,-16.113,-0.732,1
0.38492,0.031,0.973,0.233,6.652,-15.93,-0.793,1
0.393341,0.028,0.973,0.234,5.371,-15.686,-0.549,1
0.399861,0.026,0.98,0.235,4.882,-15.624,-0.671,1
0.408242,0.033,0.976,0.242,4.333,-15.869,-0.854,1
0.416679,0.029,0.974,0.247,3.723,-15.624,-0.793,1
0.424509,0.033,0.976,0.249,-1.098,-15.258,-0.793,1
0.431609,0.035,0.986,0.265,-4.516,-15.258,-1.159,1
0.438999,0.041,0.986,0.266,-7.263,-14.831,-1.037,1
0.447467,0.042,0.981,0.25,-9.704,-14.587,-1.098,1
0.455409,0.047,0.971,0.23,-10.864,-14.892,-1.098,1
0.46209,0.042,0.977,0.218,-10.131,-15.197,-0.976,1
0.470511,0.037,0.982,0.223,-6.774,-15.808,-1.22,1
0.477584,0.033,0.987,0.226,-2.868,-16.235,-1.525,1
0.486041,0.029,0.981,0.229,-0.183,-16.723,-1.892,1
0.492629,0.031,0.981,0.229,0.854,-16.845,-1.831,1
0.501111,0.039,0.981,0.231,0.0,-16.967,-2.136,1
0.507755,0.034,0.985,0.24,-1.342,-16.967,-2.319,1
0.514902,0.039,0.988,0.25,-3.112,-16.723,-2.38,1
0.523574,0.041,0.994,0.238,-4.272,-16.662,-2.807,1
0.53022,0.046,0.99,0.232,-3.967,-16.967,-2.685,1
0.537278,0.047,0.985,0.228,-3.601,-17.089,-3.051,1
0.545623,0.052,0.982,0.229,-2.99,-17.517,-2.929,1
0.554162,0.054,0.977,0.241,-3.906,-17.517,-3.173,1
0.56072,0.059,0.978,0.248,-6.042,-17.15,-3.295,1
0.57049,0.062,0.984,0.248,-7.812,-16.906,-3.112,1
0.577199,0.06,0.981,0.236,-9.033,-16.662,-3.295,1
0.583787,0.056,0.978,0.226,-8.789,-16.418,-3.173,1
0.592232,0.052,0.968,0.215,-7.69,-16.845,-2.807,1
0.599919,0.052,0.964,0.21,-6.53,-17.456,-2.746,1
0.606469,0.05,0.968,0.21,-3.845,-17.883,-2.868,1
0.614267,0.051,0.974,0.216,-0.671,-18.371,-2.807,1
0.622581,0.049,0.97,0.215,0.366,-18.92,-2.685,1
0.629935,0.062,0.994,0.252,3.234,-19.348,-2.929,1
0.636764,0.051,0.991,0.261,5.065,-18.981,-2.99,1
0.644659,0.055,0.995,0.268,4.028,-19.042,-3.234,1
0.652731,0.061,0.99,0.295,2.624,-18.249,-3.417,1
0.660646,0.061,0.983,0.288,0.488,-17.456,-3.601,1
0.667549,0.053,0.979,0.283,-2.563,-16.418,-3.662,1
0.676052,0.044,0.979,0.272,-3.906,-15.747,-4.028,1
0.683685,0.039,0.98,0.266,-4.15,-15.258,-3.967,1
0.690204,0.034,0.978,0.259,-2.685,-15.014,-3.845,1
0.698277,0.038,0.961,0.248,-1.77,-14.831,-3.784,1
0.705218,0.042,0.954,0.244,-1.403,-15.197,-3.234,1
0.712813,0.048,0.959,0.247,-0.549,-15.258,-2.929,1
0.719776,0.049,0.966,0.26,0.122,-15.197,-2.868,1
0.728495,0.055,0.976,0.267,1.159,-15.258,-2.99,1
0.735314,0.058,0.981,0.274,1.892,-15.075,-3.234,1
0.742138,0.061,0.98,0.283,2.075,-14.892,-3.295,1
0.750006,0.063,0.977,0.285,2.197,-14.404,-3.356,1
0.757292,0.059,0.966,0.285,1.525,-13.977,-3.479,1
0.766599,0.058,0.955,0.285,-0.122,-13.427,-3.173,1
0.774608,0.056,0.958,0.287,-1.281,-12.634,-3.356,1
0.78122,0.049,0.958,0.289,-1.525,-11.657,-2.99,1
0.789795,0.044,0.956,0.288,-0.793,-11.413,-2.868,1
0.796177,0.034,0.957,0.278,0.122,-11.047,-2.502,1
0.804411,0.038,0.953,0.274,0.366,-10.986,-2.319,1
0.811027,0.035,0.954,0.272,0.915,-10.62,-1.953,1
0.819458,0.041,0.956,0.277,0.732,-10.498,-1.77,1
0.826133,0.04,0.962,0.287,-0.305,-10.192,-1.892,1
0.834634,0.044,0.964,0.294,-2.319,-9.582,-1.77,1
0.842834,0.049,0.97,0.297,-5.31,-8.972,-1.647,1
0.849416,0.054,0.976,0.294,-7.019,-8.178,-1.525,1
0.857921,0.059,0.977,0.291,-6.652,-8.117,-1.77,1
0.864685,0.062,0.969,0.284,-4.882,-7.812,-1.77,1
0.87165,0.06,0.959,0.285,-3.784,-7.751,-1.708,1
0.880076,0.063,0.951,0.287,-3.662,-7.263,-1.525,1
0.887129,0.062,0.946,0.282,-3.967,-6.774,-1.22,1
0.895362,0.055,0.947,0.278,-3.784,-6.713,-1.037,1
0.903689,0.049,0.955,0.276,-2.99,-6.225,-1.098,1
0.9125,0.043,0.95,0.263,-1.22,-5.859,-0.976,1
0.919579,0.041,0.952,0.265,1.037,-5.92,-0.671,1
0.926467,0.034,0.951,0.258,2.868,-6.103,-0.61,1
0.9352,0.035,0.95,0.261,3.295,-5.859,-0.366,1
0.941735,0.032,0.951,0.272,2.563,-5.676,-0.183,1
0.949713,0.031,0.961,0.275,1.403,-5.249,0.183,1
0.956734,0.035,0.966,0.279,0.122,-5.004,-0.061,1
0.964662,0.037,0.975,0.28,-1.22,-4.211,0.183,1
0.973387,0.041,0.98,0.283,-1.22,-4.089,0.183,1
0.980118,0.043,0.982,0.279,-0.732,-3.845,-0.183,1
0.987142,0.044,0.99,0.277,0.0,-3.234,-0.305,1
0.994913,0.044,0.988,0.27,0.366,-2.929,-0.183,1
1.003617,0.047,0.984,0.262,0.305,-2.685,-0.366,1
1.012031,0.053,0.981,0.255,-0.122,-2.868,-0.427,1
1.01912,0.054,0.983,0.247,-0.488,-2.563,-0.488,1
1.027129,0.052,0.979,0.236,-0.854,-2.746,-0.549,1
1.034126,0.053,0.981,0.227,-0.305,-2.929,-0.427,1
1.041353,0.05,0.98,0.235,1.159,-3.479,-0.671,1
1.04986,0.049,0.982,0.242,2.38,-3.356,-0.915,1
1.056902,0.05,0.978,0.251,3.051,-3.479,-0.976,1
1.063546,0.048,0.971,0.252,3.417,-3.417,-0.854,1
1.071474,0.046,0.969,0.255,2.746,-2.99,-0.915,1
1.078646,0.051,0.967,0.265,2.075,-2.746,-0.854,1
1.086929,0.054,0.967,0.265,1.647,-2.075,-0.793,1
1.093353,0.046,0.966,0.268,1.403,-2.014,-0.61,1
1.102046,0.056,0.962,0.272,0.549,-1.708,-0.366,1
1.109215,0.053,0.963,0.27,-1.22,-1.77,-0.183,1
1.117585,0.049,0.962,0.267,-2.136,-0.854,-0.122,1
1.124468,0.051,0.962,0.269,-3.967,-0.732,0.0,1
1.13239,0.047,0.966,0.277,-6.408,-0.183,-0.061,1
1.140277,0.048,0.973,0.269,-8.117,0.427,-0.061,1
1.147621,0.046,0.973,0.261,-7.873,0.671,0.183,1
1.154062,0.046,0.976,0.26,-5.981,0.61,0.0,1
1.161648,0.038,0.976,0.26,-3.601,0.732,0.061,1
1.168667,0.034,0.974,0.26,-0.793,0.488,0.061,1
1.17703,0.035,0.968,0.252,1.586,0.793,0.061,1
1.183578,0.035,0.966,0.253,3.112,0.732,0.183,1
1.190201,0.033,0.965,0.256,3.723,0.61,0.122,1
1.197887,0.035,0.969,0.264,3.173,0.793,0.244,1
1.204475,0.037,0.974,0.27,2.197,1.342,0.244,1
1.211438,0.039,0.972,0.266,2.075,1.647,0.061,1
1.219535,0.041,0.975,0.26,2.38,1.525,0.305,1
1.226155,0.04,0.97,0.257,2.624,2.014,0.122,1
1.232946,0.036,0.958,0.261,2.319,1.953,0.427,1
1.241747,0.036,0.954,0.26,1.831,2.38,0.793,1
1.248299,0.036,0.959,0.257,0.671,2.502,0.854,1
1.254922,0.035,0.959,0.254,0.183,2.685,0.915,1
1.262692,0.038,0.961,0.259,-0.488,2.807,1.098,1
1.269348,0.034,0.966,0.252,-0.549,2.868,1.22,1
1.276731,0.033,0.966,0.251,0.183,3.051,1.403,1
1.28447,0.032,0.968,0.252,0.732,3.356,1.281,1
1.291632,0.033,0.97,0.248,1.708,3.662,1.281,1
1.299374,0.032,0.968,0.246,2.38,3.417,1.22,1
1.306388,0.028,0.97,0.236,3.051,3.295,1.22,1
1.314121,0.025,0.969,0.233,3.662,3.356,1.159,1
1.321047,0.028,0.965,0.227,4.15,3.234,1.403,1
1.329273,0.028,0.959,0.228,3.234,2.929,1.525,1
1.335816,0.028,0.961,0.223,2.014,2.868,1.647,1
1.342918,0.032,0.972,0.224,1.403,2.624,1.708,1
1.350934,0.033,0.975,0.231,0.793,2.746,1.892,1
1.358604,0.036,0.98,0.232,-0.122,3.051,1.953,1
1.366935,0.039,0.979,0.228,-0.671,3.173,1.953,1
1.374704,0.039,0.979,0.228,-1.098,3.295,1.525,1
1.381386,0.04,0.979,0.222,-0.61,2.868,1.586,1
1.388445,0.041,0.98,0.221,-0.305,3.051,1.281,1
1.395166,0.039,0.979,0.222,0.854,2.685,1.647,1
1.403018,0.036,0.98,0.221,1.281,2.746,1.464,1
1.409353,0.036,0.984,0.216,1.281,2.502,1.464,1
1.417667,0.037,0.98,0.217,1.342,2.319,1.525,1
1.424394,0.037,0.983,0.219,1.586,2.014,1.525,1
1.431151,0.032,0.989,0.222,2.136,1.831,1.22,1
1.439055,0.037,0.991,0.222,2.563,1.403,1.037,1
1.44561,0.041,0.99,0.223,2.929,1.525,0.915,1
1.452649,0.045,0.983,0.227,2.38,1.342,0.854,1
1.460043,0.045,0.986,0.231,1.037,1.22,0.549,1
1.468713,0.045,0.987,0.238,-0.488,1.647,0.61,1
1.475645,0.044,0.989,0.234,-1.342,1.647,0.488,1
1.484055,0.045,0.986,0.239,-2.319,2.014,0.61,1
1.490482,0.051,0.985,0.235,-3.417,2.075,0.427,1
1.497161,0.048,0.985,0.24,-4.15,2.197,0.305,1
1.504638,0.045,0.983,0.243,-4.699,2.441,0.183,1
1.512935,0.045,0.983,0.242,-4.76,2.563,0.183,1
1.519953,0.043,0.983,0.238,-3.723,2.441,0.183,1
1.526714,0.043,0.984,0.232,-2.014,2.38,0.0,1
1.534823,0.036,0.978,0.235,-0.61,1.892,-0.122,1
1.542148,0.034,0.978,0.237,0.915,1.831,-0.061,1
1.550251,0.037,0.97,0.24,2.197,1.586,-0.183,1
1.557238,0.036,0.978,0.236,2.929,1.586,-0.061,1
1.564086,0.033,0.982,0.243,3.845,1.586,-0.305,1
1.572439,0.032,0.973,0.253,3.479,1.586,-0.244,1
1.580581,0.036,0.969,0.259,1.831,2.014,-0.305,1
1.587201,0.04,0.968,0.261,0.183,2.38,-0.366,1
1.59448,0.04,0.965,0.26,-1.22,2.807,-0.305,1
1.602747,0.039,0.966,0.259,-1.892,2.99,-0.061,1
1.609065,0.042,0.967,0.263,-2.563,3.417,0.061,1
1.617032,0.041,0.969,0.262,-2.929,3.54,0.0,1
1.623736,0.043,0.973,0.261,-2.868,3.723,-0.061,1
1.632286,0.046,0.97,0.258,-2.136,3.723,0.122,1
1.638983,0.045,0.973,0.252,-1.464,4.028,0.122,1
1.647564,0.044,0.968,0.251,-0.366,4.028,0.122,1
1.654711,0.043,0.967,0.248,0.732,3.906,0.061,1
1.661743,0.041,0.967,0.247,1.464,3.662,0.488,1
1.67013,0.041,0.966,0.251,2.441,3.784,0.366,1
1.677588,0.038,0.967,0.257,2.99,3.723,0.488,1
1.684224,0.039,0.967,0.261,2.746,3.967,0.549,1
1.691222,0.038,0.965,0.264,2.685,4.089,0.549,1
1.699283,0.041,0.962,0.262,2.014,4.455,0.61,1
1.706371,0.044,0.966,0.263,1.098,4.699,0.549,1
1.71411,0.04,0.965,0.268,0.0,4.882,0.732,1
1.721844,0.049,0.965,0.267,-0.793,5.554,0.793,1
1.729254,0.044,0.971,0.27,-1.647,5.615,0.732,1
1.737561,0.048,0.973,0.262,-1.586,5.737,0.854,1
1.744111,0.046,0.977,0.262,-1.403,6.042,0.732,1
1.752839,0.045,0.972,0.25,-0.915,6.103,0.915,1
1.759431,0.046,0.975,0.243,-0.061,5.798,0.793,1
1.768166,0.051,0.973,0.236,0.976,5.676,0.793,1
1.775265,0.049,0.976,0.241,2.441,5.493,0.976,1
1.781716,0.048,0.98,0.249,4.15,5.371,0.854,1
1.790716,0.043,0.978,0.255,4.943,5.493,0.549,1
1.797466,0.05,0.979,0.257,4.699,5.615,0.549,1
1.805699,0.051,0.986,0.265,4.333,5.737,0.488,1
1.812046,0.051,0.985,0.271,3.417,6.225,0.305,1
1.818942,0.053,0.984,0.283,1.403,6.713,-0.183,1
1.827638,0.06,0.989,0.291,-0.305,7.263,0.061,1
1.834749,0.061,0.999,0.292,-2.197,7.873,-0.244,1
1.8414,0.068,1.0,0.289,-2.868,8.605,-0.488,1
1.849462,0.064,1.002,0.288,-2.99,8.789,-0.732,1
1.856248,0.073,1.0,0.298,-3.112,9.399,-0.793,1
1.864307,0.076,1.019,0.302,-3.54,10.131,-0.915,1
1.871386,0.088,1.032,0.294,-3.234,10.681,-1.22,1
1.879676,0.099,1.055,0.291,-1.77,11.23,-1.525,1
1.886472,0.118,1.078,0.279,0.549,10.925,-2.197,1
1.893742,0.133,1.114,0.274,3.662,11.23,-3.051,1
1.902691,0.158,1.159,0.276,5.615,11.84,-3.967,1
1.90912,0.194,1.207,0.272,6.469,12.878,-5.737,1
1.917561,0.229,1.275,0.272,5.859,13.244,-7.263,1
1.923731,0.262,1.345,0.284,4.455,14.038,-9.521,1
1.931595,0.298,1.397,0.288,3.601,15.197,-12.145,1
1.938324,0.335,1.425,0.27,4.211,15.991,-15.014,1
1.946636,0.354,1.425,0.257,5.126,16.845,-17.944,1
1.953478,0.351,1.404,0.23,2.99,17.7,-20.568,1
1.961643,0.357,1.406,0.203,-2.136,18.371,-23.132,1
1.968497,0.355,1.418,0.207,-9.033,19.47,-25.329,1
1.975563,0.41,1.441,0.2,-16.723,20.324,-27.77,1
1.983604,0.541,1.466,0.221,-26.123,21.362,-31.066,1
1.992488,0.665,1.515,0.274,-34.057,23.254,-35.278,1
2.000574,0.664,1.564,0.333,-42.907,25.268,-39.978,1
2.007211,0.681,1.595,0.356,-54.077,27.16,-44.677,1
2.015169,0.697,1.617,0.376,-64.941,28.93,-49.499,1
2.023366,0.689,1.642,0.403,-73.547,31.311,-54.992,1
2.031779,0.686,1.67,0.422,-78.125,33.447,-59.387,1
2.038901,0.678,1.706,0.439,-82.702,35.217,-63.781,1
2.047117,0.687,1.725,0.452,-86.059,36.437,-67.871,1
2.053869,0.688,1.731,0.457,-90.209,37.475,-72.143,1
2.063085,0.669,1.726,0.452,-93.994,39.184,-75.866,1
2.069907,0.561,1.75,0.455,-96.679,41.809,-80.261,1
2.077879,0.373,1.78,0.484,-92.895,45.41,-83.251,1
2.084588,0.18,1.805,0.461,-83.251,49.743,-84.411,1
2.092851,0.171,1.823,0.367,-75.927,50.292,-85.144,1
2.099413,0.379,1.836,0.313,-75.988,50.964,-87.402,1
2.107805,0.593,1.886,0.306,-81.237,52.001,-90.942,1
2.114432,0.665,1.937,0.322,-91.064,54.931,-96.496,1
2.122347,0.682,2.024,0.359,-103.759,57.495,-101.745,1
2.129398,0.723,2.178,0.407,-114.99,59.875,-108.703,1
2.137365,0.754,2.304,0.446,-122.619,61.95,-117.126,1
2.146048,0.737,2.357,0.479,-124.694,63.537,-126.037,1
2.152915,0.747,2.354,0.483,-121.643,64.453,-134.704,1
2.159437,0.735,2.32,0.442,-112.854,67.016,-143.493,1
2.167465,0.679,2.232,0.297,-91.552,63.903,-150.878,1
2.174453,0.465,2.211,0.34,-77.758,63.659,-156.066,1
2.181194,0.297,2.171,0.246,-63.598,64.025,-162.048,1
2.189148,0.145,2.129,0.262,-61.401,60.852,-168.273,1
2.196187,0.094,2.083,0.293,-58.715,61.279,-173.95,1
2.203915,0.115,2.046,0.308,-58.654,58.654,-180.541,1
2.212343,0.129,1.963,0.375,-52.856,58.654,-186.096,1
2.220805,0.113,1.854,0.395,-45.837,57.8,-191.589,1
2.227451,0.043,1.703,0.408,-33.081,58.593,-196.777,1
2.23553,-0.014,1.599,0.35,-22.277,57.678,-200.195,1
2.242872,-0.057,1.5,0.388,-8.361,55.358,-203.247,1
2.249496,-0.074,1.403,0.44,16.357,54.809,-205.505,1
2.257872,-0.05,1.424,0.439,43.457,52.673,-206.665,1
2.264451,-0.076,1.384,0.465,78.308,51.391,-208.74,1
2.272576,-0.062,1.188,0.376,96.496,53.283,-209.289,1
2.279532,-0.032,1.006,0.25,84.594,55.908,-209.411,1
2.286701,-0.043,0.888,0.207,58.349,59.814,-208.801,1
2.294879,-0.003,0.784,0.087,25.268,64.025,-207.153,1
2.301754,-0.047,0.846,0.135,4.76,62.927,-206.298,1
2.310237,0.001,0.878,0.128,-1.586,65.002,-203.674,1
2.316929,-0.007,0.926,0.142,6.774,60.729,-204.223,1
2.3253,-0.059,0.915,0.146,33.081,60.913,-204.101,1
2.33195,-0.029,0.897,0.109,55.358,56.335,-203.308,1
2.34015,-0.01,0.866,0.147,74.646,55.969,-202.148,1
2.346628,0.015,0.818,0.102,82.58,54.992,-200.744,1
2.355104,0.035,0.743,0.095,68.054,53.527,-196.716,1
2.361699,0.061,0.722,0.098,57.434,55.297,-195.373,1
2.36992,0.039,0.663,0.1,49.255,54.138,-193.786,1
2.376935,0.025,0.587,0.09,39.001,53.649,-190.856,1
2.386604,0.043,0.504,0.065,18.493,52.368,-187.316,1
2.392108,0.057,0.449,0.067,-0.915,51.025,-184.875,1
2.40172,0.051,0.381,0.034,-22.399,48.339,-181.396,1
2.408262,0.044,0.309,0.029,-46.447,45.043,-176.513,1
2.416306,0.04,0.262,0.001,-60.302,40.466,-171.752,1
2.422876,0.03,0.2,-0.007,-65.673,35.339,-167.175,1
2.431621,0.01,0.158,-0.005,-70.8,28.198,-161.682,1
2.438577,-0.064,0.116,0.028,-70.922,25.512,-156.066,1
2.447381,-0.035,0.084,0.018,-67.871,21.301,-149.963,1
2.453983,-0.027,0.11,0.057,-47.424,17.883,-143.188,1
2.460973,0.09,0.126,0.059,-20.507,14.892,-140.258,1
2.469764,0.207,0.111,0.084,4.821,13.732,-138.366,1
2.476494,0.267,0.093,0.059,33.752,13.366,-135.803,1
2.483088,0.285,0.081,0.062,62.255,12.329,-132.385,1
2.490866,0.236,0.077,0.042,91.613,12.329,-127.258,1
2.498853,0.132,0.084,0.031,121.643,12.451,-122.009,1
2.505287,-0.082,0.138,-0.02,150.146,16.174,-112.915,1
2.513924,0.202,0.157,-0.176,162.536,14.709,-109.436,1
2.520507,0.185,0.179,-0.174,168.334,13.122,-108.154,1
2.529741,0.287,0.19,-0.257,171.203,14.648,-104.125,1
2.5366,0.405,0.162,-0.273,164.489,15.747,-101.379,1
2.543119,0.357,0.123,-0.317,149.292,20.568,-99.792,1
2.550896,0.36,0.094,-0.422,115.661,27.709,-98.327,1
2.559578,0.325,0.063,-0.5,68.603,32.104,-96.435,1
2.566332,0.372,0.096,-0.555,7.934,42.358,-94.299,1
2.574243,0.485,0.125,-0.649,-41.259,47.912,-94.97,1
2.58261,0.487,0.166,-0.649,-74.584,52.429,-96.313,1
2.590814,0.443,0.181,-0.674,-88.378,54.504,-97.473,1
2.59741,0.429,0.185,-0.665,-87.158,53.71,-98.815,1
2.606294,0.407,0.16,-0.651,-72.998,51.818,-99.853,1
2.613461,0.388,0.114,-0.61,-52.551,47.973,-100.524,1
2.62177,0.401,0.05,-0.558,-27.832,44.494,-100.463,1
2.6285,0.404,-0.009,-0.522,-3.54,40.588,-99.609,1
2.637369,0.376,-0.06,-0.471,9.948,38.818,-97.9,1
2.644352,0.359,-0.117,-0.44,14.526,37.78,-96.252,1
2.65316,0.363,-0.171,-0.395,12.329,37.414,-94.421,1
2.660234,0.333,-0.202,-0.357,3.173,37.353,-91.857,1
2.66902,0.305,-0.242,-0.312,-10.742,39.794,-90.393,1
2.677645,0.327,-0.282,-0.292,-30.273,41.687,-88.5,1
2.685632,0.32,-0.312,-0.254,-44.677,44.616,-87.158,1
2.692364,0.34,-0.33,-0.224,-53.527,46.264,-85.815,1
2.701063,0.361,-0.356,-0.187,-54.138,49.072,-84.472,1
2.709306,0.338,-0.403,-0.188,-53.283,50.903,-82.519,1
2.715882,0.281,-0.445,-0.169,-51.696,53.833,-80.322,1
2.724172,0.174,-0.47,-0.166,-50.476,56.03,-78.063,1
2.731216,0.178,-0.52,-0.147,-48.645,59.204,-74.707,1
2.73904,0.162,-0.557,-0.154,-47.668,62.011,-71.533,1
2.74733,0.099,-0.634,-0.163,-49.194,65.795,-67.687,1
2.755785,0.08,-0.719,-0.184,-61.828,70.983,-63.354,1
2.76371,0.069,-0.797,-0.189,-75.073,75.073,-58.471,1
2.772367,0.051,-0.837,-0.198,-85.144,80.383,-52.673,1
2.780758,0.013,-0.889,-0.195,-88.867,84.472,-46.997,1
2.787347,-0.04,-0.937,-0.196,-87.463,88.806,-40.893,1
2.796035,-0.092,-0.999,-0.211,-85.205,92.346,-34.973,1
2.80454,-0.158,-1.022,-0.199,-77.087,97.412,-26.672,1
2.812335,-0.177,-1.092,-0.23,-67.81,100.463,-19.409,1
2.81943,-0.229,-1.163,-0.23,-63.293,104.797,-11.535,1
2.828087,-0.262,-1.223,-0.275,-58.166,109.619,-1.22,1
2.836525,-0.33,-1.263,-0.271,-59.814,114.074,8.3,1
2.843517,-0.407,-1.294,-0.296,-66.467,119.323,18.31,1
2.850581,-0.496,-1.296,-0.298,-72.631,123.474,28.137,1
2.858856,-0.567,-1.317,-0.331,-76.904,129.455,39.306,1
2.867648,-0.663,-1.315,-0.325,-80.139,134.033,49.377,1
2.87601,-0.791,-1.317,-0.348,-79.711,139.77,61.462,1
2.884274,-0.869,-1.344,-0.369,-69.458,142.395,72.509,1
2.892306,-0.993,-1.354,-0.361,-55.603,146.118,86.425,1
2.90124,-1.023,-1.384,-0.398,-36.071,146.789,99.67,1
2.907897,-1.219,-1.385,-0.384,-19.287,150.085,115.722,1
2.917458,-1.332,-1.425,-0.453,-9.399,150.878,130.615,1
2.924041,-1.465,-1.399,-0.464,-3.234,153.503,145.629,1
2.932478,-1.552,-1.366,-0.495,1.708,153.198,161.926,1
2.939612,-1.693,-1.351,-0.536,13.488,155.151,180.664,1
2.947947,-1.807,-1.318,-0.576,18.31,154.846,197.937,1
2.956285,-1.916,-1.304,-0.611,23.071,155.395,215.576,1
2.963428,-2.022,-1.321,-0.641,23.254,155.151,238.098,1
2.972569,-2.121,-1.34,-0.656,22.827,155.517,258.544,1
2.979671,-2.246,-1.355,-0.678,22.46,155.029,279.968,1
2.988446,-2.412,-1.334,-0.692,25.329,155.151,302.124,1
2.995298,-2.559,-1.358,-0.728,28.869,153.747,329.895,1
3.003804,-2.748,-1.353,-0.766,31.555,152.221,355.224,1
3.012541,-2.868,-1.319,-0.77,50.964,147.949,382.751,1
3.019143,-3.283,-1.363,-0.85,74.096,141.113,414.733,1
3.027715,-3.556,-1.374,-0.909,99.975,134.277,444.946,1
3.035082,-3.833,-1.316,-0.964,130.004,122.741,476.928,1
3.041939,-4.181,-1.335,-1.0,171.508,107.421,507.324,1
3.050435,-4.574,-1.248,-1.033,202.819,89.477,539.917,1
3.05879,-4.994,-1.052,-1.119,260.986,64.208,570.8,1
3.06564,-5.468,-0.921,-1.127,337.036,25.268,606.201,1
3.073653,-5.932,-0.843,-1.205,382.202,-13.244,634.948,1
3.08211,-6.581,-0.644,-1.178,417.114,-54.504,660.583,1
3.089287,-7.209,-0.493,-1.217,431.701,-100.097,682.128,1
3.097245,-7.916,-0.301,-1.182,437.744,-154.724,700.988,1
3.106041,-8.568,-0.133,-1.225,427.062,-198.791,714.111,1
3.112642,-9.228,0.021,-1.195,408.264,-243.957,723.632,1
3.12098,-9.881,0.202,-1.15,395.324,-288.208,729.98,1
3.127979,-10.564,0.435,-1.071,394.897,-332.214,732.849,1
3.136202,-11.29,0.641,-1.001,407.348,-379.333,731.811,1
3.144849,-11.848,0.797,-0.88,420.776,-427.917,727.661,1
3.151772,-12.723,1.022,-0.708,431.213,-476.806,718.994,1
3.1589,-13.161,1.201,-0.45,457.275,-536.499,701.782,1
3.167559,-13.834,1.406,-0.182,494.018,-587.219,681.701,1
3.174305,-14.403,1.641,0.093,542.236,-640.319,652.709,1
3.182619,-14.795,1.832,0.381,577.575,-684.143,622.192,1
3.190378,-15.15,2.021,0.649,615.112,-740.539,569.397,1
3.197379,-15.102,1.975,0.945,624.511,-781.311,518.859,1
3.205557,-14.774,1.803,1.265,609.191,-808.105,469.543,1
3.21422,-15.116,1.883,1.503,587.646,-825.927,418.457,1
3.221069,-15.444,2.016,1.846,583.007,-834.533,362.304,1
3.227977,-15.791,2.291,2.007,608.581,-834.96,297.119,1
3.235482,-15.603,2.409,2.02,641.357,-838.989,224.426,1
3.243979,-14.455,2.387,2.007,673.767,-832.885,150.634,1
3.251112,-13.298,2.286,1.917,703.186,-828.613,75.317,1
3.259448,-12.35,2.15,1.916,751.098,-817.565,-1.098,1
3.268379,-11.198,1.846,1.86,815.185,-802.001,-78.125,1
3.274855,-10.247,1.487,1.797,871.826,-767.089,-167.907,1
3.283292,-9.541,1.132,1.626,852.477,-724.06,-238.891,1
3.289971,-9.009,0.849,1.52,768.92,-672.058,-298.645,1
3.298578,-8.578,0.622,1.46,632.141,-615.051,-342.895,1
3.305697,-8.034,0.53,1.499,484.68,-559.57,-372.985,1
3.314192,-7.479,0.494,1.544,354.675,-508.117,-390.686,1
3.321112,-7.049,0.543,1.568,258.85,-464.965,-400.512,1
3.328063,-6.696,0.608,1.537,210.449,-429.992,-406.921,1
3.33589,-6.525,0.617,1.524,194.335,-404.052,-412.658,1
3.34471,-6.32,0.558,1.563,192.81,-378.173,-416.748,1
3.351943,-5.99,0.455,1.548,196.838,-350.158,-420.227,1
3.358954,-5.671,0.338,1.586,201.843,-325.134,-421.936,1
3.367155,-5.338,0.217,1.563,206.054,-300.903,-422.607,1
3.375431,-5.041,0.064,1.559,201.11,-276.855,-421.691,1
3.384189,-4.736,-0.081,1.531,182.067,-251.525,-419.128,1
3.390771,-4.472,-0.183,1.514,153.442,-227.783,-414.306,1
3.399541,-4.252,-0.282,1.481,113.647,-201.599,-405.517,1
3.407941,-3.954,-0.354,1.451,78.979,-181.823,-395.568,1
3.415977,-3.624,-0.407,1.419,51.208,-165.466,-384.399,1
3.423008,-3.32,-0.456,1.419,32.775,-148.803,-369.811,1
3.430854,-3.067,-0.502,1.409,29.052,-136.779,-356.628,1
3.43957,-2.786,-0.568,1.428,38.269,-122.985,-341.186,1
3.448349,-2.393,-0.645,1.376,48.461,-112.06,-329.589,1
3.455329,-2.147,-0.747,1.419,46.813,-99.792,-316.65,1
3.463768,-1.971,-0.79,1.38,34.545,-85.021,-300.72,1
3.470799,-1.85,-0.808,1.415,23.01,-73.364,-287.109,1
3.479772,-1.694,-0.812,1.383,13.183,-61.401,-272.888,1
3.486741,-1.53,-0.774,1.385,15.075,-50.598,-256.896,1
3.495063,-1.375,-0.757,1.343,25.634,-41.564,-243.347,1
3.503292,-1.248,-0.746,1.312,37.78,-33.996,-229.492,1
3.511821,-1.119,-0.722,1.269,51.391,-25.817,-216.369,1
3.518481,-0.927,-0.711,1.242,72.875,-18.371,-201.293,1
3.527044,-0.796,-0.714,1.175,78.552,-9.948,-188.354,1
3.535706,-0.608,-0.683,1.148,86.425,-5.065,-176.513,1
3.542249,-0.484,-0.663,1.13,100.219,3.295,-164.245,1
3.551016,-0.39,-0.633,1.073,107.604,8.3,-152.893,1
3.558192,-0.333,-0.605,1.035,111.389,16.845,-139.77,1
3.566046,-0.293,-0.555,0.988,112.426,21.789,-129.394,1
3.572697,-0.267,-0.51,0.958,114.929,28.32,-119.018,1
3.581493,-0.228,-0.479,0.908,113.83,33.325,-109.558,1
3.588189,-0.203,-0.451,0.876,109.68,39.489,-100.28,1
3.596947,-0.179,-0.422,0.827,101.928,44.921,-91.491,1
3.604137,-0.171,-0.382,0.791,94.97,49.804,-83.251,1
3.612444,-0.146,-0.344,0.743,90.393,53.955,-75.073,1
3.61963,-0.123,-0.314,0.718,87.097,57.067,-67.321,1
3.628233,-0.091,-0.288,0.691,86.669,60.302,-58.471,1
3.635511,-0.058,-0.267,0.678,88.684,61.95,-51.086,1
3.643726,0.009,-0.25,0.653,90.27,64.453,-42.785,1
3.652553,0.051,-0.231,0.638,89.782,66.467,-35.827,1
3.659148,0.085,-0.212,0.622,86.303,68.542,-29.602,1
3.666426,0.099,-0.184,0.609,80.078,70.922,-23.681,1
3.675045,0.12,-0.158,0.595,72.875,73.547,-18.188,1
3.681473,0.12,-0.117,0.58,65.612,75.866,-13.61,1
3.690142,0.123,-0.084,0.567,59.387,77.88,-9.399,1
3.69832,0.142,-0.049,0.554,55.114,79.528,-5.493,1
3.705345,0.17,-0.025,0.547,54.809,80.505,-1.953,1
3.713784,0.205,-0.007,0.541,57.8,80.932,1.525,1
3.720444,0.232,0.007,0.526,62.866,81.237,4.638,1
3.727263,0.266,0.01,0.517,66.833,81.481,7.934,1
3.735649,0.296,0.009,0.512,69.519,81.909,11.108,1
3.742655,0.324,0.01,0.502,71.044,82.275,14.099,1
3.751265,0.339,0.011,0.497,73.364,82.519,17.089,1
3.758172,0.364,0.005,0.484,75.073,82.824,20.141,1
3.764839,0.403,0.0,0.475,76.416,83.496,23.193,1
3.773576,0.439,-0.006,0.461,74.584,83.862,26.306,1
3.780169,0.465,-0.002,0.456,70.739,84.594,29.113,1
3.786826,0.479,0.004,0.444,63.842,86.059,31.616,1
3.794932,0.482,0.013,0.436,56.823,86.608,34.423,1
3.801572,0.496,0.02,0.426,50.964,87.097,36.926,1
3.809249,0.511,0.02,0.414,46.02,87.463,39.306,1
3.816014,0.537,0.02,0.409,41.137,87.768,41.87,1
3.824713,0.552,0.015,0.395,38.085,88.256,44.25,1
3.831133,0.568,0.018,0.384,36.071,88.562,46.569,1
3.839543,0.57,0.018,0.376,37.78,88.684,48.706,1
3.846472,0.586,0.016,0.366,39.978,88.745,51.086,1
3.853094,0.604,0.013,0.361,41.137,88.806,53.71,1
3.860114,0.638,0.015,0.349,41.32,88.745,56.396,1
3.868165,0.68,0.021,0.337,41.687,88.562,59.02,1
3.875983,0.727,0.027,0.34,42.053,88.256,61.645,1
3.88308,0.785,0.048,0.345,41.381,88.134,64.636,1
3.889452,0.814,0.083,0.338,40.283,88.256,67.443,1
3.898211,0.835,0.123,0.343,41.015,88.073,69.824,1
3.905276,0.862,0.166,0.345,44.189,88.012,72.326,1
3.911855,0.861,0.215,0.336,47.668,87.829,75.012,1
3.918866,0.869,0.284,0.3,52.978,86.975,77.819,1
3.927538,0.892,0.356,0.268,60.852,84.228,80.444,1
3.934726,0.937,0.401,0.229,68.664,81.604,82.58,1
3.941322,0.967,0.45,0.206,76.965,77.941,84.411,1
3.948716,0.981,0.479,0.186,83.068,75.134,85.815,1
3.956785,0.989,0.489,0.168,82.336,72.998,85.998,1
3.963181,0.983,0.496,0.158,70.19,72.937,85.449,1
3.971664,0.93,0.514,0.142,45.776,73.303,84.411,1
3.978383,0.891,0.563,0.15,22.827,74.951,83.618,1
3.986535,0.923,0.628,0.163,-0.061,77.026,81.054,1
3.99322,0.966,0.697,0.174,-4.333,78.308,78.063,1
4.001591,0.999,0.772,0.178,3.54,77.941,74.89,1
4.008263,0.995,0.83,0.177,17.883,76.782,72.509,1
4.016344,0.976,0.864,0.184,39.001,74.035,69.152,1
4.02441,0.957,0.889,0.198,59.875,71.838,66.223,1
4.031066,0.954,0.914,0.213,76.599,69.335,63.781,1
4.039091,0.942,0.938,0.23,87.585,68.359,61.462,1
4.04733,0.951,0.97,0.247,93.261,68.115,59.204,1
4.054297,0.95,1.003,0.268,94.299,68.847,56.457,1
4.061298,0.944,1.044,0.289,93.933,69.885,53.527,1
4.06815,0.95,1.072,0.303,92.163,71.411,50.72,1
4.07509,0.96,1.09,0.306,88.439,73.059,47.729,1
4.083712,0.99,1.107,0.305,82.824,74.768,44.921,1
4.0905,1.021,1.137,0.309,75.012,76.904,41.564,1
4.097248,1.04,1.177,0.322,70.373,79.284,38.024,1
4.105707,1.041,1.246,0.331,71.289,80.383,33.874,1
4.112856,1.02,1.312,0.352,77.453,81.298,29.785,1
4.119868,0.986,1.384,0.37,85.144,81.97,25.024,1
4.126789,0.965,1.409,0.384,89.904,82.824,21.423,1
4.135089,0.908,1.471,0.407,87.463,85.815,16.357,1
4.141537,0.849,1.534,0.42,76.293,89.477,10.742,1
4.149769,0.809,1.588,0.415,63.049,93.688,4.211,1
4.15697,0.746,1.659,0.419,54.26,96.984,-2.258,1
4.163565,0.703,1.69,0.401,51.94,99.67,-10.559,1
4.17242,0.678,1.689,0.38,54.443,101.623,-18.249,1
4.179524,0.694,1.652,0.343,55.786,104.492,-25.878,1
4.186712,0.704,1.618,0.323,53.283,107.177,-32.775,1
4.193703,0.691,1.597,0.301,50.781,110.046,-39.245,1
4.201537,0.657,1.574,0.269,49.194,112.487,-45.532,1
4.209754,0.614,1.541,0.245,47.302,115.539,-51.452,1
4.216341,0.582,1.492,0.204,42.48,118.103,-56.762,1
4.224942,0.565,1.453,0.169,36.193,121.337,-61.401,1
4.231484,0.54,1.399,0.135,31.005,124.145,-66.772,1
4.238397,0.498,1.334,0.104,28.076,126.586,-71.716,1
4.246621,0.467,1.249,0.061,25.39,129.028,-76.416,1
4.253663,0.469,1.137,0.017,25.024,130.371,-79.223,1
4.261608,0.415,1.054,-0.03,29.296,131.713,-83.618,1
4.269871,0.375,0.932,-0.04,34.912,133.239,-86.853,1
4.278144,0.324,0.814,-0.075,40.893,134.765,-89.477,1
4.285174,0.315,0.735,-0.073,50.415,136.23,-91.613,1
4.294009,0.288,0.647,-0.094,64.941,137.573,-93.811,1
4.300603,0.266,0.564,-0.1,78.552,138.854,-95.52,1
4.30704,0.237,0.496,-0.124,88.317,140.808,-96.923,1
4.314976,0.239,0.447,-0.147,103.271,143.371,-98.327,1
4.321923,0.201,0.382,-0.167,115.783,144.348,-98.999,1
4.328989,0.128,0.337,-0.173,122.985,145.507,-98.205,1
4.336542,0.091,0.3,-0.194,128.662,148.315,-96.496,1
4.343434,0.068,0.274,-0.193,129.089,150.329,-94.055,1
4.351115,0.029,0.279,-0.197,129.943,152.771,-91.003,1
4.35846,-0.056,0.309,-0.172,132.324,153.259,-87.768,1
4.366444,-0.097,0.298,-0.175,137.023,156.799,-83.862,1
4.373602,-0.162,0.287,-0.189,131.835,158.142,-80.81,1
4.3802,-0.25,0.275,-0.192,120.117,162.658,-77.453,1
4.387891,-0.27,0.268,-0.228,104.064,165.771,-73.852,1
4.394957,-0.278,0.292,-0.226,94.604,167.602,-70.678,1
4.402932,-0.262,0.333,-0.245,94.665,169.799,-67.321,1
4.409921,-0.209,0.352,-0.261,105.712,169.311,-64.025,1
4.417286,-0.193,0.346,-0.276,120.849,169.128,-59.936,1
4.424597,-0.185,0.354,-0.291,134.338,168.884,-55.48,1
4.432919,-0.205,0.365,-0.303,145.019,169.067,-50.598,1
4.440004,-0.23,0.379,-0.313,150.695,169.86,-45.654,1
4.446899,-0.224,0.383,-0.328,151.428,171.081,-41.809,1
4.45521,-0.205,0.382,-0.334,147.155,172.119,-36.682,1
4.462073,-0.18,0.369,-0.34,139.892,174.133,-32.043,1
4.469,-0.15,0.349,-0.339,131.713,176.086,-27.404,1
4.476186,-0.127,0.336,-0.349,124.816,177.917,-22.827,1
4.484049,-0.103,0.312,-0.349,120.727,179.199,-18.676,1
4.491043,-0.098,0.312,-0.352,119.995,181.03,-14.709,1
4.498926,-0.098,0.303,-0.377,119.201,182.8,-10.253,1
4.505858,-0.112,0.293,-0.395,117.919,184.57,-6.408,1
4.512948,-0.126,0.263,-0.425,115.051,186.035,-2.746,1
4.52011,-0.156,0.24,-0.453,110.046,187.866,1.159,1
4.527988,-0.167,0.222,-0.475,107.299,188.598,4.333,1
4.534845,-0.177,0.214,-0.481,106.811,189.453,7.873,1
4.542948,-0.21,0.259,-0.499,109.191,190.368,11.718,1
4.550097,-0.239,0.32,-0.528,113.281,190.734,15.014,1
4.556773,-0.27,0.374,-0.528,116.21,191.04,17.761,1
4.564739,-0.273,0.402,-0.562,117.065,191.894,20.629,1
4.571316,-0.29,0.41,-0.6,112.731,192.687,23.376,1
4.578617,0.221,0.467,-1.56,92.102,216.125,27.099,1
4.585122,0.52,0.138,-2.603,4.821,188.171,23.01,1
4.592313,0.118,-0.321,-2.19,-14.221,182.678,21.85,1
4.600655,0.324,-0.487,-2.295,14.953,186.889,31.311,1
4.609061,0.112,-0.009,-2.204,76.599,155.761,31.127,1
4.615898,-0.021,0.104,-1.599,154.113,145.935,35.156,1
4.624215,-0.095,0.171,-1.228,218.383,134.399,40.161,1
4.631386,-0.156,0.238,-0.912,270.08,125.244,46.569,1
4.639609,-0.127,0.315,-0.707,296.936,121.215,53.527,1
4.648281,-0.095,0.294,-0.528,288.146,119.506,59.936,1
4.655402,-0.028,0.401,-0.438,244.384,126.586,65.124,1
4.663753,0.325,1.006,-0.348,157.836,133.667,65.124,1
4.670822,0.948,1.97,-0.352,97.778,137.756,59.997,1
4.679151,0.654,1.157,-0.027,52.917,138.244,50.781,1
4.685682,0.299,1.202,0.052,23.986,155.029,49.133,1
4.694094,0.175,1.622,-0.275,29.113,148.986,42.724,1
4.700577,0.147,1.942,-0.274,71.533,147.888,34.79,1
4.708078,0.099,2.147,-0.273,139.038,140.441,26.855,1
4.716374,-0.025,2.045,-0.374,214.172,136.23,21.484,1
4.72466,-0.039,1.802,-0.758,280.822,127.685,17.211,1
4.733129,-0.058,1.545,-1.001,321.228,120.544,15.686,1
4.741263,-0.019,1.217,-1.2,347.045,114.44,16.54,1
4.749112,0.096,1.115,-1.34,358.093,106.811,19.836,1
4.756076,0.19,1.138,-1.362,350.097,101.257,22.949,1
4.764377,0.29,1.318,-1.341,342.834,96.984,24.841,1
4.771418,0.239,1.443,-1.305,329.589,94.665,26.794,1
4.780062,0.231,1.5,-1.194,295.715,93.261,28.198,1
4.787025,0.24,1.524,-1.035,250.061,96.557,29.357,1
4.793683,0.286,1.586,-0.956,195.373,97.9,28.686,1
4.802468,0.293,1.702,-0.797,143.554,101.318,27.282,1
4.809095,0.31,1.81,-0.748,106.14,103.332,25.39,1
4.817527,0.309,1.87,-0.711,72.937,103.393,22.399,1
4.824171,0.278,1.854,-0.749,54.138,101.745,18.188,1
4.83283,0.198,1.786,-0.792,51.452,99.121,14.587,1
4.83982,0.139,1.686,-0.859,59.936,95.458,10.742,1
4.847094,0.069,1.563,-0.956,73.486,89.66,7.629,1
4.855576,0.063,1.442,-1.007,83.374,84.899,5.615,1
4.862766,0.085,1.343,-1.035,86.73,80.749,4.333,1
4.870655,0.118,1.32,-1.0,83.496,76.965,3.234,1
4.877101,0.162,1.393,-0.91,76.904,74.401,1.77,1
4.885619,0.216,1.447,-0.841,69.213,72.509,-0.244,1
4.892308,0.263,1.432,-0.787,59.814,71.105,-2.624,1
4.900554,0.312,1.411,-0.731,50.537,69.885,-4.882,1
4.90733,0.32,1.401,-0.684,42.114,68.664,-6.835,1
4.915532,0.314,1.378,-0.673,36.987,67.81,-8.666,1
4.923935,0.324,1.336,-0.687,33.264,65.429,-10.498,1
4.930801,0.328,1.306,-0.692,34.606,62.561,-11.84,1
4.939213,0.334,1.252,-0.717,38.757,59.204,-13.122,1
4.946106,0.317,1.18,-0.733,41.137,55.664,-13.549,1
4.954369,0.307,1.124,-0.763,41.564,51.574,-13.366,1
4.962841,0.295,1.103,-0.758,38.94,46.752,-14.465,1
4.969717,0.292,1.104,-0.691,38.574,44.128,-14.892,1
4.978317,0.303,1.129,-0.66,34.179,40.71,-16.235,1
4.985167,0.314,1.164,-0.597,28.564,38.696,-17.7,1
4.992158,0.328,1.209,-0.55,23.376,37.109,-19.836,1
5.00096,0.341,1.26,-0.506,19.104,35.217,-22.399,1
5.007728,0.354,1.283,-0.469,16.235,33.813,-24.902,1
5.01538,0.374,1.268,-0.46,12.512,32.653,-27.404,1
5.024146,0.389,1.244,-0.452,7.141,31.311,-29.418,1
5.030765,0.381,1.229,-0.452,-0.305,30.029,-31.311,1
5.038998,0.317,1.223,-0.454,-6.286,28.381,-32.592,1
5.046156,0.326,1.22,-0.452,-12.512,26.184,-34.118,1
5.054068,0.304,1.206,-0.439,-18.676,24.902,-35.461,1
5.062491,0.28,1.178,-0.457,-26.184,23.01,-35.888,1
5.07065,0.255,1.154,-0.443,-33.996,21.484,-36.682,1
5.077782,0.238,1.147,-0.439,-40.466,19.958,-37.292,1
5.086075,0.211,1.154,-0.423,-46.936,18.005,-38.391,1
5.09278,0.201,1.169,-0.388,-50.231,16.54,-39.978,1
5.101096,0.211,1.195,-0.358,-50.903,14.953,-42.053,1
5.108099,0.221,1.225,-0.326,-48.156,13.793,-44.433,1
5.117817,0.238,1.23,-0.314,-43.212,13.0,-46.936,1
5.124449,0.262,1.231,-0.304,-37.17,11.779,-49.377,1
5.132544,0.274,1.228,-0.301,-31.738,10.498,-51.391,1
5.141392,0.29,1.218,-0.307,-28.015,9.094,-53.039,1
5.147707,0.285,1.208,-0.317,-25.39,8.117,-54.931,1
5.155976,0.297,1.191,-0.328,-23.315,7.019,-56.823,1
5.163016,0.307,1.17,-0.338,-23.071,6.469,-58.41,1
5.169924,0.309,1.175,-0.345,-25.451,5.676,-59.814,1
5.178723,0.303,1.223,-0.331,-26.977,5.554,-61.462,1
5.187102,0.343,1.305,-0.316,-25.878,5.676,-63.781,1
5.194097,0.422,1.358,-0.298,-20.202,6.042,-65.734,1
5.202748,0.527,1.404,-0.306,-12.695,6.896,-67.077,1
5.211172,0.56,1.467,-0.321,-2.441,8.178,-68.359,1
5.218083,0.549,1.546,-0.358,6.591,9.033,-70.617,1
5.224977,0.546,1.615,-0.411,14.77,9.155,-73.608,1
5.233253,0.547,1.693,-0.475,17.883,8.85,-78.063,1
5.240398,0.566,1.803,-0.524,12.084,7.934,-83.435,1
5.249087,0.621,1.886,-0.574,-6.469,7.019,-89.355,1
5.257518,0.631,1.946,-0.62,-45.471,7.812,-95.825,1
5.26455,0.626,2.029,-0.68,-79.04,6.042,-101.135,1
5.273184,0.656,2.04,-0.691,-104.187,5.493,-106.445,1
5.279923,0.674,1.968,-0.736,-118.652,2.685,-112.365,1
5.288741,0.681,1.768,-0.676,-123.596,-0.793,-118.53,1
5.297638,0.572,1.687,-0.605,-118.896,-4.089,-123.718,1
5.305912,0.524,1.659,-0.511,-103.393,-9.033,-127.807,1
5.312866,0.519,1.598,-0.389,-71.899,-14.099,-132.873,1
5.321625,0.558,1.483,-0.276,-41.381,-18.066,-136.352,1
5.328833,0.524,1.406,-0.15,-13.244,-21.301,-138.854,1
5.337315,0.504,1.356,-0.017,26.306,-22.583,-142.089,1
5.34467,0.603,1.07,0.0,51.33,-23.803,-143.859,1
5.352106,0.569,0.722,-0.064,54.138,-20.812,-142.883,1
5.358751,0.578,0.652,-0.078,45.471,-20.385,-142.639,1
5.366343,0.58,0.6,-0.057,36.926,-16.296,-141.296,1
5.374729,0.576,0.625,-0.072,28.747,-15.136,-140.197,1
5.381796,0.577,0.613,-0.059,23.681,-13.183,-139.221,1
5.390535,0.585,0.64,-0.064,20.812,-11.901,-137.451,1
5.397238,0.572,0.692,-0.053,20.507,-10.925,-136.535,1
5.405897,0.555,0.743,-0.057,19.897,-10.009,-135.803,1
5.412779,0.495,0.788,-0.052,16.418,-8.972,-135.925,1
5.421269,0.456,0.821,-0.059,10.559,-7.385,-136.474,1
5.429646,0.442,0.855,-0.048,5.004,-6.408,-136.84,1
5.436672,0.438,0.898,-0.046,5.432,-6.225,-137.634,1
5.445261,0.444,0.936,-0.042,11.535,-6.896,-138.61,1
5.451916,0.428,0.95,-0.037,21.85,-7.263,-139.831,1
5.460336,0.414,0.939,-0.034,32.897,-7.934,-140.991,1
5.468705,0.416,0.917,-0.031,37.719,-7.568,-141.479,1
5.47543,0.408,0.882,-0.034,37.963,-6.835,-142.333,1
5.484116,0.39,0.842,-0.035,33.935,-5.981,-142.333,1
5.49121,0.384,0.779,-0.04,24.291,-4.638,-142.089,1
5.49932,0.388,0.72,-0.038,14.953,-3.051,-141.418,1
5.508274,0.416,0.643,-0.045,2.502,-2.197,-139.709,1
5.516586,0.447,0.581,-0.051,-9.277,-0.854,-138.061,1
5.523701,0.491,0.528,-0.068,-20.812,-0.122,-134.765,1
5.532083,0.528,0.499,-0.092,-31.005,-0.183,-131.469,1
5.53918,0.536,0.488,-0.112,-36.071,-1.464,-127.258,1
5.547847,0.526,0.492,-0.119,-33.02,-3.173,-123.657,1
5.554829,0.49,0.474,-0.14,-24.963,-5.187,-119.995,1
5.56319,0.442,0.512,-0.137,-3.051,-7.995,-116.394,1
5.571535,0.355,0.513,-0.145,20.812,-10.192,-114.074,1
5.57848,0.312,0.514,-0.142,46.752,-11.535,-111.267,1
5.587218,0.26,0.524,-0.175,70.251,-12.573,-109.741,1
5.596152,0.24,0.514,-0.155,97.534,-13.366,-108.337,1
5.60458,0.076,0.62,-0.241,118.53,-9.46,-106.811,1
5.610993,0.369,0.522,-0.239,130.92,-15.808,-109.924,1
5.619164,0.346,0.472,-0.152,131.713,-4.699,-107.482,1
5.627647,0.234,0.411,-0.235,108.764,-8.3,-108.764,1
5.634674,0.253,0.376,-0.156,86.547,1.586,-106.689,1
5.643144,0.344,0.359,-0.197,65.49,-0.244,-106.445,1
5.651473,0.375,0.348,-0.125,48.706,7.507,-105.834,1
5.658025,0.414,0.326,-0.196,27.648,8.117,-105.773,1
5.665989,0.432,0.3,-0.147,12.634,13.61,-105.468,1
5.674262,0.475,0.311,-0.193,-3.967,15.441,-105.468,1
5.68252,0.517,0.318,-0.166,-11.718,19.042,-106.201,1
5.691314,0.552,0.321,-0.19,-17.944,18.981,-107.421,1
5.699558,0.569,0.316,-0.162,-17.15,20.08,-109.191,1
5.706182,0.581,0.31,-0.158,-12.39,18.737,-110.595,1
5.713837,0.58,0.301,-0.125,-1.77,18.188,-111.511,1
5.722574,0.598,0.28,-0.121,12.39,16.235,-112.67,1
5.729199,0.614,0.271,-0.094,30.761,15.38,-113.037,1
5.737813,0.618,0.242,-0.084,49.438,14.038,-113.342,1
5.746116,0.631,0.226,-0.059,68.054,14.099,-112.731,1
5.75319,0.654,0.211,-0.063,86.791,13.977,-111.816,1
5.76027,0.655,0.186,-0.06,99.548,15.258,-111.267,1
5.768935,0.673,0.153,-0.069,105.346,16.357,-110.412,1
5.775629,0.667,0.122,-0.064,106.994,18.737,-109.802,1
5.784259,0.66,0.096,-0.073,103.149,21.24,-108.825,1
5.79098,0.643,0.074,-0.069,95.947,25.817,-108.032,1
5.799146,0.607,0.052,-0.074,87.646,29.418,-107.788,1
5.806232,0.553,0.039,-0.076,78.857,33.63,-107.604,1
5.814958,0.497,0.027,-0.081,70.678,37.475,-107.36,1
5.821634,0.451,0.026,-0.087,63.537,41.381,-107.421,1
5.830282,0.407,0.018,-0.1,57.861,44.677,-107.666,1
5.836987,0.381,0.017,-0.103,54.504,48.278,-107.971,1
5.845779,0.378,0.004,-0.117,49.804,52.062,-107.788,1
5.854562,0.359,-0.024,-0.138,42.724,56.396,-107.788,1
5.861565,0.311,-0.051,-0.17,26.611,61.218,-106.384,1
5.869825,0.296,-0.067,-0.159,10.742,65.612,-105.895,1
5.876821,0.305,-0.088,-0.187,-5.004,71.166,-104.98,1
5.884776,0.291,-0.115,-0.206,-23.864,74.584,-104.187,1
5.893006,0.282,-0.133,-0.222,-42.175,79.406,-103.149,1
5.901322,0.279,-0.149,-0.235,-52.673,80.81,-102.539,1
5.90967,0.27,-0.186,-0.255,-57.373,83.312,-101.501,1
5.917733,0.237,-0.221,-0.263,-58.166,83.496,-99.914,1
5.926193,0.199,-0.255,-0.262,-54.931,84.838,-98.266,1
5.932829,0.153,-0.299,-0.271,-51.147,85.144,-96.313,1
5.941809,0.105,-0.34,-0.267,-45.349,87.097,-93.749,1
5.949997,0.051,-0.385,-0.285,-41.503,87.829,-91.125,1
5.957174,-0.016,-0.427,-0.272,-37.353,90.087,-88.012,1
5.965641,-0.103,-0.453,-0.266,-30.517,91.491,-84.167,1
5.973798,-0.104,-0.497,-0.242,-16.418,95.642,-80.444,1
5.9818,-0.104,-0.546,-0.243,-4.15,97.351,-76.11,1
5.990706,-0.151,-0.599,-0.225,4.394,102.6,-70.922,1
5.997468,-0.157,-0.657,-0.237,8.239,106.14,-64.392,1
6.005634,-0.16,-0.72,-0.236,8.911,111.328,-57.861,1
6.014295,-0.18,-0.774,-0.266,1.464,115.112,-50.72,1
6.022712,-0.219,-0.83,-0.258,-10.192,120.422,-43.579,1
6.02945,-0.293,-0.878,-0.262,-24.78,125.976,-34.484,1
6.038045,-0.37,-0.924,-0.269,-31.372,131.408,-26.367,1
6.046443,-0.45,-0.987,-0.282,-39.245,136.596,-16.967,1
6.055175,-0.518,-1.045,-0.316,-47.607,142.7,-8.483,1
6.062151,-0.606,-1.096,-0.336,-55.358,147.583,0.366,1
6.070403,-0.591,-1.174,-0.375,-61.096,153.808,11.657,1
6.077515,-0.638,-1.26,-0.371,-61.706,159.667,22.033,1
6.086242,-0.7,-1.288,-0.407,-60.363,163.757,33.142,1
6.093069,-0.76,-1.31,-0.435,-53.71,168.945,44.86,1
6.101407,-0.825,-1.319,-0.457,-45.104,172.546,56.396,1
6.10884,-0.942,-1.325,-0.498,-39.306,176.94,68.969,1
6.117201,-0.999,-1.295,-0.519,-40.588,181.396,83.74,1
6.123974,-1.094,-1.307,-0.569,-43.09,185.119,97.29,1
6.13184,-1.163,-1.293,-0.592,-41.748,187.683,111.572,1
6.139221,-1.177,-1.276,-0.614,-32.165,189.88,126.464,1
6.147078,-1.264,-1.3,-0.636,-21.118,191.528,142.333,1
6.155825,-1.431,-1.293,-0.662,-8.361,192.199,158.752,1
6.164315,-1.54,-1.274,-0.666,23.254,190.551,180.541,1
6.171412,-1.657,-1.29,-0.721,60.485,187.499,200.744,1
6.178245,-1.791,-1.327,-0.783,98.144,183.288,223.937,1
6.186517,-1.831,-1.39,-0.856,132.385,178.71,249.511,1
6.194918,-2.026,-1.387,-0.934,160.644,171.63,276.611,1
6.202772,-2.25,-1.318,-0.986,197.937,160.522,307.983,1
6.209456,-2.509,-1.279,-1.031,233.642,147.277,335.51,1
6.218402,-2.675,-1.328,-1.089,251.159,135.986,360.961,1
6.225364,-2.856,-1.429,-1.153,250.671,120.849,394.226,1
6.232599,-2.957,-1.397,-1.158,239.44,103.576,433.837,1
6.240972,-3.249,-1.343,-1.207,238.403,85.021,467.285,1
6.249749,-3.722,-1.296,-1.262,255.004,63.659,501.464,1
6.256363,-4.156,-1.208,-1.328,289.855,35.766,534.973,1
6.265258,-4.67,-1.112,-1.35,337.341,1.953,566.528,1
6.272287,-5.188,-1.038,-1.409,390.747,-46.691,600.585,1
6.280982,-5.69,-0.96,-1.418,423.522,-93.444,627.136,1
6.28975,-6.298,-0.85,-1.402,443.908,-151.733,653.93,1
6.296648,-6.87,-0.732,-1.329,445.129,-202.087,673.767,1
6.305384,-7.546,-0.594,-1.233,427.917,-250.976,689.575,1
6.312395,-8.213,-0.447,-1.143,390.686,-293.579,701.354,1
6.321281,-8.871,-0.277,-1.089,346.069,-340.759,711.486,1
6.329222,-9.593,-0.063,-1.018,324.89,-377.685,718.994,1
6.336233,-10.443,0.169,-0.957,323.181,-418.334,723.632,1
6.344493,-11.127,0.358,-0.844,346.13,-460.449,725.524,1
6.352823,-12.006,0.57,-0.716,382.507,-515.869,721.923,1
6.361162,-12.849,0.822,-0.558,423.95,-574.34,710.205,1
6.36982,-13.663,1.097,-0.399,476.928,-629.76,692.26,1
6.376955,-14.535,1.301,-0.139,538.269,-696.838,664.245,1
6.384033,-15.057,1.436,0.045,588.073,-752.075,629.76,1
6.392319,-15.614,1.479,0.274,623.291,-803.039,586.425,1
6.401032,-15.999,1.489,0.581,633.544,-845.947,540.832,1
6.408032,-15.915,1.252,0.824,608.337,-874.389,494.384,1
6.414989,-15.864,1.406,1.121,585.144,-886.596,437.744,1
6.423766,-15.91,1.437,1.297,559.631,-898.864,379.821,1
6.430436,-15.812,1.609,1.679,565.368,-892.333,323.059,1
6.439156,-15.365,1.687,1.838,589.538,-893.371,258.361,1
6.4464,-14.685,1.646,2.007,610.168,-882.263,190.246,1
6.454312,-13.551,1.533,1.96,623.779,-872.253,109.619,1
6.462769,-12.649,1.481,1.909,664.001,-852.844,41.564,1
6.471103,-12.784,1.397,1.769,666.076,-832.824,-39.855,1
6.47822,-12.309,1.247,1.808,602.172,-794.982,-101.623,1
6.486332,-11.427,1.13,1.719,497.924,-769.47,-151.855,1
6.495013,-10.69,1.164,1.865,431.945,-737.304,-190.978,1
6.501715,-10.036,1.185,1.799,414.55,-713.5,-224.731,1
6.508683,-9.316,1.187,1.84,454.589,-682.556,-256.347,1
6.51684,-8.878,1.07,1.63,502.136,-655.09,-288.94,1
6.524589,-8.617,0.915,1.545,524.292,-611.755,-323.852,1
6.532848,-8.107,0.746,1.438,493.286,-573.852,-350.707,1
6.539955,-7.439,0.616,1.394,448.181,-529.602,-372.68,1
6.548094,-6.913,0.53,1.316,397.705,-492.492,-390.197,1
6.555061,-6.552,0.494,1.314,360.107,-454.772,-403.381,1
6.563395,-6.27,0.464,1.25,335.021,-423.828,-414.306,1
6.570083,-6.124,0.425,1.214,325.5,-390.93,-423.278,1
6.577553,-5.7,0.383,1.101,320.983,-364.929,-431.274,1
6.585896,-5.455,0.369,1.085,330.444,-337.951,-437.744,1
6.592902,-5.257,0.335,1.002,348.999,-312.561,-444.152,1
6.601524,-5.097,0.279,0.986,368.103,-285.522,-450.683,1
6.608521,-4.881,0.161,0.901,375.427,-257.751,-456.359,1
6.616806,-4.624,0.063,0.839,367.37,-228.088,-460.021,1
6.625107,-4.647,-0.079,0.783,330.505,-199.951,-461.486,1
6.63297,-4.43,-0.243,0.834,280.151,-167.541,-456.665,1
6.64093,-4.176,-0.389,0.791,206.97,-146.057,-450.988,1
6.647766,-3.93,-0.533,0.855,131.042,-122.009,-441.65,1
6.656666,-3.725,-0.601,0.862,61.645,-106.323,-429.931,1
6.663375,-3.456,-0.632,0.94,23.925,-93.444,-416.809,1
6.670357,-3.286,-0.678,0.953,9.277,-85.571,-403.076,1
6.678675,-3.08,-0.704,1.016,20.507,-79.711,-389.77,1
6.687013,-2.82,-0.787,1.053,52.062,-75.012,-375.61,1
6.695734,-2.585,-0.911,1.077,85.876,-67.321,-357.666,1
6.702907,-2.379,-1.014,1.086,100.83,-60.058,-341.674,1
6.711109,-2.229,-1.078,1.113,109.008,-51.208,-325.561,1
6.718196,-1.951,-1.184,1.131,126.892,-41.625,-305.847,1
6.726228,-1.796,-1.202,1.164,141.723,-31.616,-289.428,1
6.734242,-1.684,-1.217,1.162,173.4,-25.085,-273.01,1
6.741339,-1.555,-1.273,1.154,197.143,-13.732,-255.493,1
6.749845,-1.417,-1.342,1.107,196.228,-4.211,-237.792,1
6.758471,-1.265,-1.388,1.094,178.894,10.131,-216.552,1
6.765452,-1.1,-1.405,1.078,159.973,19.714,-198.486,1
6.773587,-0.991,-1.383,1.079,151.306,29.602,-180.908,1
6.780639,-0.845,-1.371,1.046,146.85,36.132,-164.184,1
6.78763,-0.724,-1.363,1.046,143.493,43.884,-146.789,1
6.795813,-0.764,-1.347,0.982,107.055,51.757,-131.286,1
6.803932,-0.532,-1.234,1.013,114.501,56.091,-117.37,1
6.810929,-0.476,-1.186,0.989,140.075,60.974,-103.637,1
6.81927,-0.437,-1.181,0.941,155.09,63.781,-90.209,1
6.825971,-0.403,-1.169,0.904,153.869,69.58,-77.026,1
6.834914,-0.344,-1.106,0.854,142.822,73.73,-64.697,1
6.841378,-0.266,-1.052,0.818,130.737,79.162,-53.161,1
6.850186,-0.22,-1.009,0.785,116.882,82.458,-42.541,1
6.856319,-0.123,-0.952,0.761,106.445,87.768,-32.043,1
6.865017,-0.076,-0.908,0.699,96.13,88.989,-22.583,1
6.872861,-0.009,-0.869,0.691,84.228,92.895,-11.779,1
6.879952,0.065,-0.824,0.65,70.739,93.566,-3.601,1
6.888594,0.13,-0.765,0.659,65.795,94.665,4.516,1
6.897468,0.183,-0.71,0.635,71.655,93.2,11.535,1
6.904898,0.212,-0.662,0.637,87.768,91.003,19.531,1
6.911983,0.235,-0.602,0.621,102.844,87.463,25.146,1
6.918512,0.257,-0.565,0.645,121.215,83.679,30.334,1
6.925134,0.27,-0.534,0.64,143.188,80.322,36.132,1
6.933107,0.269,-0.508,0.642,159.79,75.866,42.297,1
6.940115,0.313,-0.502,0.641,170.41,73.791,48.278,1
6.947127,0.356,-0.499,0.645,171.874,72.204,52.612,1
6.955688,0.37,-0.5,0.653,165.222,72.692,57.617,1
6.962692,0.368,-0.48,0.653,150.756,74.157,62.255,1
6.969499,0.34,-0.458,0.657,133.85,76.11,65.795,1
6.978105,0.318,-0.43,0.666,116.821,78.369,68.847,1
6.984673,0.337,-0.398,0.669,104.248,80.444,71.716,1
6.991681,0.34,-0.365,0.68,97.778,81.848,73.791,1
6.999771,0.356,-0.333,0.681,97.656,83.557,75.256,1
7.00677,0.403,-0.314,0.687,101.44,84.045,77.392,1
7.01515,0.429,-0.301,0.692,105.834,85.205,79.223,1
7.021998,0.43,-0.273,0.694,111.572,85.998,80.932,1
7.030044,0.418,-0.259,0.686,120.544,86.975,82.275,1
7.037384,0.459,-0.254,0.681,128.356,87.829,83.618,1
7.045903,0.499,-0.257,0.693,130.737,90.026,84.96,1
7.051795,0.48,-0.251,0.683,127.502,93.078,85.937,1
7.060546,0.478,-0.253,0.682,117.492,96.862,86.73,1
7.067645,0.508,-0.262,0.669,101.684,101.44,87.158,1
7.074259,0.539,-0.265,0.676,83.557,106.079,87.646,1
7.082116,0.549,-0.258,0.669,68.115,111.083,87.707,1
7.089049,0.578,-0.246,0.669,57.25,115.417,87.585,1
7.097025,0.632,-0.243,0.674,52.673,118.957,87.524,1
7.104807,0.654,-0.238,0.666,49.926,122.558,87.463,1
7.111363,0.613,-0.225,0.664,51.696,126.342,87.341,1
7.120079,0.573,-0.22,0.651,55.664,129.028,86.73,1
7.126722,0.565,-0.218,0.644,61.828,132.568,87.036,1
7.133748,0.562,-0.207,0.626,70.129,134.216,87.524,1
7.141896,0.544,-0.194,0.618,80.078,136.84,88.012,1
7.149603,0.533,-0.204,0.589,87.097,139.343,88.745,1
7.157784,0.494,-0.228,0.568,86.73,143.249,89.66,1
7.164386,0.514,-0.262,0.528,75.256,147.888,90.942,1
7.172486,0.5,-0.302,0.51,51.33,154.907,92.529,1
7.17877,0.498,-0.333,0.466,18.432,162.78,93.994,1
7.186697,0.475,-0.339,0.434,-10.131,169.677,94.421,1
7.195199,0.466,-0.324,0.383,-40.954,178.955,95.397,1
7.201859,0.445,-0.285,0.353,-53.283,184.631,95.581,1
7.209952,0.408,-0.251,0.307,-51.818,187.805,95.581,1
7.216667,0.38,-0.222,0.286,-36.987,189.331,95.458,1
7.225091,0.39,-0.207,0.248,-9.887,190.673,96.496,1
7.233186,0.432,-0.207,0.22,25.451,189.392,98.876,1
7.239893,0.496,-0.198,0.193,53.344,188.598,102.172,1
7.248242,0.52,-0.175,0.173,77.819,186.157,105.895,1
7.256558,0.509,-0.147,0.151,100.524,184.753,110.229,1
7.263331,0.473,-0.11,0.127,119.323,182.556,114.562,1
7.271244,0.435,-0.08,0.109,135.742,181.335,119.628,1
7.277819,0.393,-0.062,0.081,146.728,179.565,124.755,1
7.286539,0.37,-0.046,0.067,151.306,178.894,130.554,1
7.293637,0.373,-0.036,0.041,150.268,178.344,135.742,1
7.3015,0.382,-0.033,0.021,141.235,179.748,140.991,1
7.308003,0.37,-0.033,-0.021,117.858,182.128,145.568,1
7.315901,0.335,-0.018,-0.068,81.298,185.18,149.292,1
7.322214,0.295,0.022,-0.114,45.837,187.805,151.428,1
7.330482,0.244,0.091,-0.152,7.019,190.612,152.526,1
7.336882,0.148,0.208,-0.191,-19.47,193.603,151.977,1
7.344805,0.044,0.332,-0.223,-29.785,195.373,150.451,1
7.351775,-0.074,0.491,-0.276,-26.306,196.044,147.155,1
7.359615,-0.196,0.643,-0.343,-7.812,194.702,143.432,1
7.366358,-0.242,0.774,-0.408,20.629,192.199,140.258,1
7.373347,-0.253,0.875,-0.475,43.64,189.575,137.39,1
7.381483,-0.268,0.941,-0.548,59.509,187.011,134.216,1
7.387819,-0.136,1.104,-1.053,30.273,195.556,130.676,1
7.396506,-0.169,1.26,-1.036,-8.117,179.26,121.459,1
7.403188,-0.089,1.375,-0.945,-8.789,193.176,116.271,1
7.41005,-0.062,1.425,-1.155,-26.977,179.87,107.971,1
7.418775,0.025,1.45,-0.98,-26.245,185.485,100.341,1
7.425293,0.147,1.479,-1.173,-34.301,179.687,91.186,1
7.433188,0.159,1.507,-1.007,-39.611,177.978,81.665,1
7.439574,0.254,1.492,-1.072,-34.912,175.353,73.486,1
7.448135,0.291,1.455,-0.969,-29.235,168.762,65.124,1
7.455123,0.359,1.429,-0.956,-16.052,167.358,57.556,1
7.463799,0.366,1.386,-0.918,-10.986,160.095,50.659,1
7.470828,0.394,1.343,-0.9,-5.981,158.996,45.043,1
7.477807,0.437,1.355,-0.905,-6.164,151.672,38.452,1
7.486043,0.458,1.363,-0.844,4.333,149.475,32.653,1
7.494335,0.444,1.396,-0.833,19.47,141.967,25.939,1
7.500918,0.422,1.423,-0.725,44.067,137.695,19.958,1
7.508025,0.42,1.457,-0.658,70.19,131.408,13.366,1
7.516281,0.423,1.429,-0.604,90.515,129.577,7.568,1
7.523103,0.514,1.382,-0.495,100.097,128.662,2.99,1
7.531147,0.601,1.337,-0.468,92.407,134.094,-0.976,1
7.539809,0.569,1.321,-0.496,63.903,136.718,-6.347,1
7.548047,0.516,1.347,-0.473,38.696,142.578,-11.84,1
7.554751,0.501,1.37,-0.488,20.629,145.141,-18.798,1
7.563415,0.39,1.409,-0.427,22.094,148.498,-25.512,1
7.570596,0.332,1.396,-0.475,23.986,149.841,-34.301,1
7.577625,0.264,1.37,-0.435,30.09,151.123,-42.053,1
7.586218,0.199,1.32,-0.457,48.889,150.817,-48.217,1
7.592769,0.148,1.273,-0.459,67.687,149.108,-54.321,1
7.600692,0.135,1.202,-0.456,92.468,147.888,-58.837,1
7.607819,0.144,1.132,-0.451,121.887,145.935,-61.34,1
7.616078,0.119,1.057,-0.461,147.949,146.545,-62.011,1
7.623058,0.063,0.982,-0.497,159.362,149.414,-62.438,1
7.631681,-0.101,0.912,-0.529,140.014,154.357,-61.95,1
7.638778,-0.126,0.848,-0.558,98.083,160.217,-62.255,1
7.646435,-0.094,0.836,-0.552,54.748,165.649,-63.659,1
7.653717,-0.089,0.826,-0.548,27.343,169.311,-65.246,1
7.66154,-0.094,0.845,-0.569,18.554,171.874,-67.26,1
7.670075,-0.116,0.845,-0.621,25.939,172.058,-69.519,1
7.678301,-0.139,0.831,-0.681,42.541,171.142,-71.777,1
7.685396,-0.152,0.811,-0.726,73.425,167.602,-73.059,1
7.692324,-0.206,0.786,-0.815,108.825,163.635,-73.425,1
7.700119,-0.181,0.725,-0.947,148.01,158.02,-72.326,1
7.7087,-0.123,0.707,-1.02,182.189,153.442,-69.213,1
7.715634,-0.106,0.731,-0.994,203.063,150.695,-65.246,1
7.724379,-0.098,0.753,-0.955,205.871,150.39,-61.401,1
7.730985,-0.071,0.82,-0.91,196.35,150.878,-57.922,1
7.739146,-0.083,0.863,-0.901,187.194,151.55,-54.87,1
7.747594,-0.107,0.962,-0.898,175.17,151.977,-50.964,1
7.75545,-0.061,1.076,-0.912,167.968,152.099,-48.95,1
7.763944,-0.041,1.215,-0.924,155.578,151.977,-48.645,1
7.7707,-0.071,1.318,-0.929,147.888,151.855,-48.889,1
7.779002,-0.06,1.39,-0.986,138.916,151.733,-50.537,1
7.785712,-0.084,1.415,-1.01,126.953,149.841,-52.612,1
7.795393,-0.104,1.352,-0.924,121.459,147.521,-54.687,1
7.802997,-0.087,1.256,-1.175,129.394,144.104,-56.213,1
7.810931,-0.13,1.152,-1.181,142.578,138.61,-56.945,1
7.819277,-0.128,1.1,-1.236,169.555,132.751,-54.992,1
7.825982,-0.143,1.092,-1.196,194.03,126.525,-52.429,1
7.833913,-0.053,1.158,-1.117,218.627,123.657,-50.354,1
7.842111,-0.201,1.153,-1.078,237.304,120.544,-46.508,1
7.849905,-0.264,1.139,-0.997,230.102,121.154,-42.785,1
7.858045,-0.313,1.12,-0.96,201.599,123.168,-40.039,1
7.865233,-0.344,1.111,-0.933,162.841,125.732,-38.391,1
7.873376,-0.349,1.114,-0.936,124.633,127.929,-37.597,1
7.880006,-0.339,1.115,-0.949,92.59,129.028,-37.597,1
7.88907,-0.352,1.119,-0.961,71.044,128.051,-38.208,1
7.896096,-0.289,1.117,-0.975,59.631,126.037,-38.635,1
7.902671,-0.245,1.107,-1.0,57.983,122.131,-39.55,1
7.911035,-0.221,1.083,-1.035,61.706,117.614,-40.039,1
7.918092,-0.203,1.081,-1.095,66.528,112.121,-40.1,1
7.926397,-0.187,1.075,-1.152,73.059,105.834,-40.466,1
7.93352,-0.191,1.065,-1.19,77.392,99.182,-40.527,1
7.941838,-0.188,1.043,-1.209,80.688,93.078,-40.222,1
7.948778,-0.173,1.017,-1.216,81.115,86.853,-40.161,1
7.957369,-0.145,0.983,-1.199,76.66,81.481,-39.855,1
7.964563,-0.12,0.964,-1.153,66.589,77.209,-39.367,1
7.972844,-0.097,0.958,-1.101,51.147,72.875,-38.818,1
7.981632,-0.07,0.94,-1.053,35.583,69.58,-38.085,1
7.990007,-0.062,0.932,-0.988,17.395,66.345,-37.414,1
7.996948,-0.051,0.924,-0.919,4.455,64.208,-37.109,1
8.003506,-0.051,0.917,-0.857,-5.92,61.95,-36.315,1
8.012343,-0.056,0.914,-0.789,-14.16,59.814,-35.461,1
8.01931,-0.034,0.913,-0.738,-18.92,58.044,-34.79,1
8.027879,-0.031,0.89,-0.705,-22.338,54.87,-33.813,1
8.036525,-0.037,0.883,-0.651,-22.033,52.795,-33.02,1
8.043088,-0.041,0.887,-0.622,-16.845,50.048,-32.165,1
8.051889,-0.011,0.88,-0.61,-12.512,47.119,-32.165,1
8.058631,-0.012,0.893,-0.591,-8.239,44.677,-32.226,1
8.066333,-0.035,0.913,-0.588,-6.53,42.907,-32.348,1
8.074343,0.008,0.918,-0.608,-5.798,41.564,-31.982,1
8.082993,0.062,0.948,-0.627,-7.995,39.672,-32.409,1
8.08954,0.116,1.004,-0.648,-10.437,38.513,-32.897,1
8.0983,0.151,1.057,-0.674,-13.0,36.865,-34.362,1
8.106568,0.172,1.104,-0.694,-15.136,35.4,-35.522,1
8.113285,0.209,1.147,-0.706,-16.113,33.935,-36.743,1
8.121112,0.274,1.212,-0.727,-12.634,31.86,-38.024,1
8.129454,0.322,1.26,-0.752,-1.953,29.968,-39.123,1
8.138153,0.368,1.282,-0.782,14.099,27.404,-39.916,1
8.144991,0.43,1.278,-0.831,24.169,23.376,-39.916,1
8.153119,0.484,1.303,-0.846,27.648,20.202,-39.672,1
8.159733,0.515,1.362,-0.848,25.512,18.005,-40.405,1
8.168821,0.551,1.424,-0.866,14.892,16.479,-42.846,1
8.17582,0.596,1.491,-0.88,-0.061,15.502,-45.715,1
8.184552,0.649,1.578,-0.894,-18.127,15.869,-50.231,1
8.191435,0.689,1.653,-0.902,-37.292,16.418,-55.908,1
8.200227,0.733,1.759,-0.919,-56.396,17.089,-61.95,1
8.206897,0.733,1.846,-0.927,-73.242,18.066,-69.152,1
8.215587,0.736,1.937,-0.979,-81.176,16.54,-75.744,1
8.222465,0.747,2.046,-1.002,-82.763,14.221,-81.298,1
8.231248,0.781,2.152,-1.045,-78.308,11.901,-86.914,1
8.238206,0.802,2.336,-1.119,-67.81,8.361,-93.994,1
8.246365,0.753,2.541,-1.164,-51.635,1.342,-104.553,1
8.254969,0.654,2.716,-1.135,-42.724,-3.906,-115.722,1
8.26317,0.576,2.762,-1.097,-49.804,-8.239,-127.563,1
8.270287,0.533,2.694,-1.031,-72.448,-10.925,-138.793,1
8.279019,0.47,2.572,-0.944,-101.013,-12.512,-149.475,1
8.285727,0.395,2.444,-0.859,-127.014,-15.319,-160.705,1
8.293625,0.352,2.292,-0.761,-133.178,-19.165,-168.701,1
8.301487,0.293,2.112,-0.654,-124.145,-24.414,-175.903,1
8.310521,0.235,1.973,-0.571,-102.111,-29.602,-181.701,1
8.317131,0.2,1.856,-0.486,-67.687,-36.865,-187.561,1
8.325329,0.173,1.731,-0.367,-33.63,-42.175,-192.077,1
8.333488,0.187,1.596,-0.233,2.136,-46.752,-195.8,1
8.34183,0.177,1.412,-0.13,32.653,-49.499,-198.791,1
8.349484,0.259,1.097,-0.098,49.682,-49.011,-200.317,1
8.357177,0.275,1.052,-0.024,47.546,-47.851,-200.805,1
8.365732,0.311,1.017,0.045,39.245,-44.372,-200.683,1
8.373473,0.351,0.939,-0.041,17.517,-38.635,-200.622,1
8.381298,0.336,0.929,-0.113,-11.23,-36.254,-200.317,1
8.389188,0.3,0.958,-0.136,-30.7,-34.606,-198.852,1
8.397463,0.265,1.045,-0.13,-29.296,-35.461,-199.218,1
8.40581,0.239,1.123,-0.136,-16.601,-37.292,-199.34,1
8.414015,0.193,1.115,-0.15,-1.77,-40.222,-200.012,1
8.422017,0.176,1.119,-0.148,9.643,-41.503,-201.11,1
8.428535,0.15,1.024,-0.156,13.977,-42.541,-201.293,1
8.436886,0.164,1.007,-0.155,11.047,-42.663,-201.171,1
8.445577,0.171,0.943,-0.162,-1.403,-43.884,-200.439,1
8.452603,0.191,0.867,-0.148,-13.061,-43.518,-198.791,1
8.459487,0.203,0.798,-0.134,-20.812,-45.532,-196.899,1
8.468281,0.2,0.7,-0.134,-25.817,-46.203,-194.335,1
8.475374,0.165,0.639,-0.105,-38.879,-47.729,-190.002,1
8.48366,0.165,0.524,-0.125,-54.199,-47.79,-185.241,1
8.49209,0.071,0.486,-0.091,-68.664,-48.706,-180.664,1
8.500522,0.045,0.467,-0.098,-78.796,-49.438,-175.476,1
8.509084,0.026,0.441,-0.067,-84.472,-50.048,-170.227,1
8.518342,0.046,0.393,-0.069,-83.618,-50.537,-164.733,1
8.527768,0.03,0.379,-0.042,-67.687,-50.964,-159.79,1
8.53463,0.015,0.391,-0.059,-43.029,-52.368,-156.372,1
8.542562,-0.072,0.406,-0.054,-3.845,-52.734,-153.198,1
8.550305,-0.055,0.504,-0.086,38.879,-50.292,-152.587,1
8.559198,-0.121,0.441,-0.136,84.228,-54.199,-152.038,1
8.56695,-0.073,0.368,-0.225,124.389,-49.438,-149.597,1
8.576364,-0.124,0.326,-0.262,133.361,-51.391,-149.108,1
8.584442,-0.098,0.279,-0.301,129.638,-44.311,-146.118,1
8.592655,-0.105,0.249,-0.28,112.976,-42.48,-143.859,1
8.601173,-0.03,0.21,-0.298,92.102,-36.315,-140.686,1
8.60852,-0.056,0.222,-0.224,75.622,-31.311,-138.366,1
8.61905,-0.069,0.226,-0.252,69.641,-25.085,-138.061,1
8.625896,-0.126,0.179,-0.211,54.992,-18.615,-140.136,1
8.634616,-0.129,0.108,-0.229,24.841,-8.483,-142.211,1
8.642683,-0.046,0.045,-0.187,-6.103,-1.586,-143.554,1
8.651385,-0.032,0.029,-0.169,-35.888,5.004,-144.531,1
8.65859,-0.058,0.015,-0.132,-49.682,9.399,-144.775,1
8.667517,-0.101,0.026,-0.097,-49.682,12.695,-144.47,1
8.676201,-0.141,0.028,-0.051,-39.184,15.624,-145.202,1
8.685503,-0.228,0.027,-0.023,-22.949,17.333,-146.484,1
8.692568,-0.33,0.01,0.009,-8.361,19.592,-147.888,1
8.702405,-0.439,-0.043,0.033,-0.671,23.193,-147.949,1
8.709969,-0.4,-0.069,0.041,0.549,27.587,-146.606,1
8.717907,-0.393,-0.106,0.084,1.525,32.165,-145.629,1
8.72744,-0.426,-0.149,0.098,3.112,37.292,-143.981,1
8.735319,-0.448,-0.181,0.128,2.197,43.518,-140.747,1
8.743494,-0.368,-0.219,0.139,5.676,47.851,-138.488,1
8.750616,-0.329,-0.281,0.173,13.854,53.1,-135.864,1
8.758466,-0.316,-0.355,0.196,28.381,59.814,-130.554,1
8.767674,-0.309,-0.415,0.241,46.508,66.284,-124.023,1
8.775267,-0.268,-0.486,0.265,68.969,73.852,-117.248,1
8.784354,-0.264,-0.596,0.267,88.745,84.411,-108.093,1
8.791997,-0.318,-0.752,0.228,89.416,96.374,-99.853,1
8.80083,-0.376,-0.888,0.2,58.898,112.548,-89.721,1
8.80767,-0.481,-1.025,0.143,-0.854,130.92,-80.261,1
8.81678,-0.588,-1.125,0.125,-64.941,148.132,-72.875,1
8.825863,-0.636,-1.211,0.094,-133.361,166.015,-64.453,1
8.833641,-0.684,-1.219,0.125,-169.067,181.091,-57.189,1
8.841432,-0.678,-1.222,0.131,-170.166,189.697,-50.415,1
8.84941,-0.773,-1.246,0.132,-149.475,199.584,-42.968,1
8.857631,-0.913,-1.292,0.099,-129.15,206.176,-34.851,1
8.865996,-1.013,-1.341,0.06,-109.313,215.637,-26.245,1
8.873789,-1.117,-1.363,-0.005,-94.543,224.67,-16.052,1
8.882098,-1.19,-1.404,-0.064,-77.88,233.459,-5.065,1
8.891658,-1.274,-1.475,-0.083,-57.617,241.699,8.544,1
8.898733,-1.396,-1.541,-0.142,-47.851,251.403,22.644,1
8.907229,-1.469,-1.583,-0.185,-49.621,259.948,39.855,1
8.915617,-1.623,-1.581,-0.237,-56.335,269.287,54.87,1
8.924015,-1.86,-1.548,-0.289,-70.739,276.245,71.777,1
8.932358,-2.043,-1.479,-0.323,-78.125,283.935,85.998,1
8.939073,-2.285,-1.42,-0.349,-81.909,287.902,102.6,1
8.947352,-2.417,-1.396,-0.381,-73.547,292.48,117.736,1
8.955227,-2.667,-1.412,-0.411,-50.598,292.419,139.404,1
8.962667,-2.671,-1.461,-0.451,-10.437,292.968,160.461,1
8.970526,-2.64,-1.592,-0.497,32.47,292.785,184.326,1
8.979614,-2.747,-1.748,-0.517,51.94,294.494,211.364,1
8.986156,-2.964,-1.818,-0.517,44.921,296.752,241.455,1
8.994806,-3.182,-1.778,-0.487,54.748,298.217,274.597,1
9.003358,-3.403,-1.765,-0.499,107.727,292.846,315.429,1
9.010225,-3.617,-1.821,-0.521,179.687,285.278,355.163,1
9.018648,-3.894,-1.848,-0.587,256.042,270.935,399.169,1
9.026052,-4.293,-1.834,-0.652,327.148,250.427,446.228,1
9.035052,-4.894,-1.779,-0.717,397.094,219.909,503.845,1
9.043899,-5.451,-1.675,-0.8,448.486,181.762,561.523,1
9.052638,-6.042,-1.533,-0.817,478.759,144.714,610.656,1
9.061575,-6.621,-1.352,-0.847,510.009,102.6,658.203,1
9.069167,-7.467,-1.13,-0.829,556.213,37.536,717.651,1
9.07686,-8.247,-0.922,-0.799,597.351,-27.404,764.831,1
9.087856,-9.014,-0.747,-0.75,633.911,-88.684,800.048,1
9.096348,-10.096,-0.53,-0.732,684.631,-183.593,835.388,1
9.102476,-11.058,-0.402,-0.668,710.998,-260.559,851.745,1
9.111936,-12.119,-0.32,-0.594,710.632,-338.623,858.642,1
9.119686,-13.494,-0.094,-0.492,700.866,-426.635,857.055,1
9.128517,-14.925,0.135,-0.346,698.852,-514.526,843.872,1
9.136338,-15.785,0.193,-0.155,686.523,-583.801,826.049,1
9.14412,-15.997,0.357,0.09,681.091,-657.043,798.828,1
9.152364,-15.999,0.533,0.295,684.509,-716.674,767.089,1
9.159232,-15.999,0.758,0.516,689.758,-773.803,726.501,1
9.167946,-15.999,0.974,0.75,690.673,-830.017,680.297,1
9.174747,-15.999,1.14,1.019,691.101,-881.652,628.479,1
9.184059,-15.999,1.372,1.273,697.692,-923.95,567.504,1
9.192308,-15.999,1.585,1.517,696.35,-966.308,491.943,1
9.199716,-15.999,1.723,1.848,710.754,-983.886,408.203,1
9.206883,-15.999,1.765,2.017,738.403,-998.229,325.805,1
9.215567,-15.999,1.717,2.183,774.414,-995.788,240.844,1
9.223508,-15.999,1.67,2.047,796.691,-992.919,155.456,1
9.231521,-15.999,1.694,2.012,820.861,-977.905,72.448,1
9.23972,-15.181,1.758,1.896,868.286,-955.2,-30.395,1
9.248696,-13.575,1.601,1.843,927.551,-921.813,-139.587,1
9.257883,-12.586,1.286,1.768,945.739,-869.567,-243.286,1
9.264885,-11.879,1.079,1.681,940.856,-812.438,-324.035,1
9.27299,-11.082,0.805,1.503,924.194,-745.727,-397.277,1
9.280072,-10.35,0.507,1.28,875.915,-673.767,-461.853,1
9.287766,-9.754,0.227,1.109,744.201,-578.979,-517.211,1
9.297175,-9.053,0.01,1.052,578.002,-503.845,-546.752,1
9.306223,-8.437,-0.125,0.902,368.164,-425.72,-559.57,1
9.314479,-7.894,-0.022,0.982,226.562,-377.38,-558.044,1
9.321757,-7.588,0.078,0.998,138.854,-336.608,-550.598,1
9.330108,-7.39,0.149,1.078,114.135,-307.739,-540.344,1
9.339303,-7.195,0.202,1.074,127.441,-288.574,-531.616,1
9.348266,-7.001,0.198,1.138,163.452,-268.31,-523.986,1
9.355363,-6.609,0.09,1.144,208.862,-242.248,-515.258,1
9.364022,-6.242,-0.036,1.13,239.807,-211.486,-506.652,1
9.370605,-5.76,-0.215,1.104,241.516,-184.936,-498.168,1
9.378808,-5.28,-0.416,1.078,217.285,-155.578,-488.281,1
9.387435,-4.815,-0.63,1.067,154.479,-124.511,-473.449,1
9.396059,-4.422,-0.75,1.083,97.778,-100.769,-458.068,1
9.403448,-4.077,-0.809,1.139,57.861,-80.261,-438.049,1
9.411413,-3.646,-0.845,1.094,58.471,-65.673,-425.537,1
9.420817,-3.34,-0.929,1.201,62.438,-53.649,-411.132,1
9.427039,-3.029,-1.062,1.144,56.64,-35.278,-393.127,1
9.436246,-2.814,-1.153,1.206,42.724,-22.827,-376.77,1
9.445019,-2.581,-1.216,1.18,32.409,-8.178,-356.872,1
9.451863,-2.423,-1.203,1.228,33.02,1.77,-339.355,1
9.460106,-2.222,-1.182,1.151,44.616,12.817,-318.542,1
9.468609,-2.045,-1.121,1.188,68.481,19.531,-301.513,1
9.476168,-1.845,-1.074,1.131,92.59,27.954,-284.973,1
9.484694,-1.724,-1.073,1.115,110.046,37.353,-265.563,1
9.493087,-1.605,-1.051,1.064,112.182,46.936,-249.572,1
9.500007,-1.567,-0.993,1.061,110.168,55.48,-233.947,1
9.508875,-1.481,-0.946,1.044,107.421,66.162,-216.918,1
9.518001,-1.388,-0.871,1.038,105.651,75.927,-200.622,1
9.525667,-1.263,-0.821,1.004,106.933,83.923,-186.828,1
9.533565,-1.135,-0.77,0.968,106.262,92.59,-171.203,1
9.54244,-0.973,-0.721,0.923,104.919,98.876,-158.874,1
9.552062,-0.844,-0.672,0.878,104.675,105.834,-144.409,1
9.558863,-0.66,-0.602,0.812,106.018,109.985,-132.751,1
9.568145,-0.657,-0.542,0.827,106.689,114.807,-120.056,1
9.575637,-0.572,-0.487,0.766,107.055,119.323,-108.093,1
9.583041,-0.507,-0.454,0.767,112.426,121.765,-98.876,1
9.591799,-0.471,-0.422,0.722,117.98,125.427,-89.294,1
9.600413,-0.394,-0.408,0.7,119.14,127.38,-81.359,1
9.608915,-0.314,-0.402,0.651,118.225,131.53,-71.777,1
9.6179,-0.259,-0.387,0.634,115.722,134.46,-63.171,1
9.625366,-0.209,-0.37,0.583,112.243,137.451,-54.87,1
9.634667,-0.178,-0.346,0.571,109.802,140.258,-47.668,1
9.643954,-0.156,-0.328,0.539,109.069,142.639,-40.954,1
9.651341,-0.124,-0.324,0.53,109.008,144.958,-34.667,1
9.658921,-0.109,-0.325,0.508,107.177,147.46,-29.724,1
9.66958,-0.1,-0.336,0.487,101.745,150.085,-24.902,1
9.677514,-0.063,-0.35,0.463,86.364,153.076,-18.066,1
9.686498,-0.045,-0.327,0.469,76.232,155.883,-14.16,1
9.693687,-0.007,-0.34,0.426,75.622,157.836,-10.314,1
9.701064,0.041,-0.372,0.415,71.411,160.583,-6.835,1
9.709408,0.154,-0.411,0.412,64.147,161.926,-3.601,1
9.717316,0.239,-0.44,0.409,60.241,163.635,-0.061,1
9.725628,0.312,-0.454,0.408,58.715,164.184,3.479,1
9.733105,0.356,-0.465,0.404,59.936,164.672,7.019,1
9.741971,0.423,-0.474,0.393,63.598,163.452,12.023,1
9.749586,0.462,-0.476,0.387,68.237,162.841,16.54,1
9.757911,0.497,-0.493,0.366,71.166,161.071,21.789,1
9.764975,0.541,-0.493,0.361,73.364,160.583,26.733,1
9.773162,0.562,-0.479,0.33,76.538,158.874,31.311,1
9.780552,0.566,-0.485,0.315,78.613,157.47,35.827,1
9.78893,0.571,-0.482,0.281,77.453,157.531,40.344,1
9.796296,0.596,-0.47,0.251,71.838,156.494,44.372,1
9.80423,0.551,-0.453,0.225,59.57,157.226,48.461,1
9.81256,0.599,-0.44,0.187,48.889,156.921,51.269,1
9.819638,0.612,-0.41,0.175,37.17,157.714,54.077,1
9.827838,0.612,-0.375,0.144,31.86,157.531,55.786,1
9.834485,0.556,-0.331,0.145,28.015,158.325,57.922,1
9.842382,0.541,-0.283,0.098,26.794,157.836,59.082,1
9.849332,0.558,-0.245,0.101,27.709,156.86,59.509,1
9.857084,0.615,-0.232,0.069,26.733,157.409,59.936,1
9.863987,0.686,-0.212,0.063,26.306,156.677,59.204,1
9.872287,0.704,-0.196,0.055,26.672,157.531,58.776,1
9.879282,0.654,-0.173,0.047,27.404,157.409,58.105,1
9.88785,0.622,-0.148,0.043,30.639,159.179,57.678,1
9.894962,0.588,-0.119,0.018,34.484,158.813,56.457,1
9.903778,0.564,-0.101,0.02,39.489,160.217,55.419,1
9.910836,0.556,-0.093,0.006,43.64,160.156,54.199,1
9.917892,0.557,-0.078,0.005,50.17,161.315,53.71,1
9.926111,0.586,-0.074,-0.01,57.739,160.644,52.917,1
9.934541,0.593,-0.062,0.0,68.054,161.071,52.612,1
9.941293,0.586,-0.066,-0.011,79.589,160.156,52.917,1
9.949375,0.559,-0.058,-0.015,89.721,160.827,53.466,1
9.956544,0.561,-0.06,-0.025,98.693,160.522,54.382,1
9.965354,0.562,-0.061,-0.027,108.703,160.949,56.091,1
9.971907,0.55,-0.051,-0.043,117.492,160.583,58.288,1
9.979075,0.531,-0.049,-0.041,126.464,160.644,60.119,1
9.986789,0.491,-0.046,-0.055,133.728,160.583,62.438,1
9.99576,0.456,-0.041,-0.049,138.549,161.071,64.331,1
