timestamp_s,ax,ay,az,gx,gy,gz,label
0.004761,0.347,0.923,0.036,22.644,-23.437,39.916,1
0.01248,0.344,0.941,0.054,18.798,-21.484,37.719,1
0.019553,0.333,0.969,0.077,15.686,-19.47,36.315,1
0.027069,0.312,0.98,0.108,15.014,-17.272,35.583,1
0.035127,0.321,0.977,0.119,15.136,-15.014,35.705,1
0.042004,0.339,1.01,0.133,16.662,-13.549,35.766,1
0.050348,0.376,1.028,0.137,19.775,-12.023,35.095,1
0.05814,0.41,1.024,0.128,22.705,-10.742,34.118,1
0.066221,0.44,1.01,0.127,25.512,-9.46,33.264,1
0.072981,0.462,0.978,0.114,27.526,-7.324,33.02,1
0.081531,0.468,0.941,0.089,26.062,-5.371,33.142,1
0.08902,0.449,0.928,0.07,22.277,-3.845,33.508,1
0.095847,0.423,0.916,0.074,16.662,-1.708,34.057,1
0.104255,0.406,0.889,0.08,8.178,1.77,34.362,1
0.11139,0.386,0.896,0.067,-2.746,5.004,34.362,1
0.119154,0.416,0.931,0.081,-13.488,8.666,34.79,1
0.129682,0.41,1.051,0.108,-18.31,11.23,34.057,1
0.135922,0.513,1.187,0.157,-9.277,13.122,33.264,1
0.144595,0.548,1.248,0.175,6.713,13.305,31.982,1
0.152477,0.518,1.253,0.187,27.282,13.305,29.968,1
0.159843,0.452,1.197,0.172,40.893,13.732,28.686,1
0.168716,0.395,1.14,0.137,45.898,14.526,27.343,1
0.176148,0.339,1.112,0.087,43.457,16.113,26.245,1
0.184156,0.299,1.088,0.05,37.414,17.517,25.085,1
0.19126,0.252,1.091,0.021,32.104,19.287,23.376,1
0.199232,0.219,1.09,0.018,30.09,21.789,21.789,1
0.205873,0.191,1.067,0.024,30.395,24.902,20.263,1
0.21491,0.164,1.016,0.029,29.052,28.625,19.165,1
0.221728,0.106,0.972,0.04,24.719,32.226,19.226,1
0.230191,0.079,0.977,0.08,20.874,36.804,19.958,1
0.237756,0.125,1.024,0.083,15.747,40.832,20.69,1
0.246044,0.118,1.116,0.056,11.23,40.954,21.057,1
0.253808,0.129,1.155,0.031,15.502,39.001,20.751,1
0.261269,0.14,1.169,0.048,34.423,36.804,19.226,1
0.268741,0.141,1.144,0.025,54.016,35.949,17.089,1
0.277798,0.164,1.073,-0.027,65.734,34.79,15.38,1
0.285268,0.197,0.981,-0.076,69.335,33.996,14.831,1
0.294626,0.208,0.915,-0.155,67.077,32.531,15.136,1
0.301828,0.215,0.842,-0.18,64.453,29.418,16.54,1
0.310739,0.201,0.79,-0.206,66.711,26.55,19.287,1
0.317707,0.172,0.77,-0.194,71.533,23.925,20.935,1
0.326783,0.19,0.756,-0.173,83.129,21.972,23.01,1
0.334037,0.25,0.782,-0.16,95.458,20.141,25.451,1
0.342436,0.316,0.873,-0.125,106.506,18.737,26.855,1
0.349083,0.344,0.983,-0.084,119.75,18.249,27.038,1
0.357763,0.348,1.027,-0.066,129.394,17.272,27.038,1
0.366822,0.333,1.027,-0.053,132.324,16.662,26.855,1
0.373691,0.359,1.015,-0.043,122.436,17.028,26.489,1
0.383656,0.364,1.014,-0.046,105.163,18.188,26.55,1
0.390539,0.366,1.014,-0.062,83.068,19.714,26.55,1
0.398369,0.352,0.997,-0.094,52.551,21.423,26.855,1
0.407167,0.352,0.984,-0.123,26.977,22.766,27.77,1
0.416473,0.367,0.998,-0.165,1.464,24.475,28.808,1
0.423468,0.349,1.036,-0.209,-16.052,25.695,29.113,1
0.432305,0.303,1.087,-0.27,-32.165,26.0,28.869,1
0.440909,0.3,1.156,-0.309,-44.616,25.878,28.381,1
0.448045,0.332,1.251,-0.341,-45.166,25.207,27.099,1
0.456406,0.345,1.34,-0.409,-35.705,21.789,25.085,1
0.46477,0.346,1.444,-0.445,-19.042,18.92,22.338,1
0.47253,0.317,1.503,-0.527,-7.019,15.502,18.371,1
0.479662,0.272,1.585,-0.615,-8.728,12.939,15.624,1
0.487954,0.271,1.753,-0.73,-19.531,10.437,10.62,1
0.496475,0.283,1.991,-0.83,-31.677,7.812,3.051,1
0.504179,0.305,2.214,-0.922,-45.471,5.859,-4.76,1
0.512026,0.353,2.401,-1.033,-76.11,4.333,-15.563,1
0.520453,0.413,2.518,-1.098,-113.952,3.845,-25.451,1
0.529442,0.494,2.658,-1.158,-152.771,2.99,-35.888,1
0.53781,0.552,2.867,-1.269,-183.288,1.159,-46.142,1
0.545163,0.604,3.093,-1.396,-189.88,-6.042,-59.997,1
0.553869,0.687,3.336,-1.501,-167.48,-16.601,-74.401,1
0.561763,0.759,3.513,-1.552,-141.296,-29.052,-91.125,1
0.570113,0.775,3.644,-1.524,-131.958,-35.949,-105.041,1
0.578677,0.774,3.66,-1.512,-151.306,-43.457,-121.643,1
0.587082,0.809,3.327,-1.324,-197.57,-46.813,-134.46,1
0.594656,0.722,3.297,-1.161,-253.967,-45.41,-145.446,1
0.603396,0.73,3.267,-1.094,-302.795,-52.795,-156.372,1
0.610338,0.652,3.108,-0.871,-306.457,-61.767,-165.588,1
0.619269,0.662,2.952,-0.607,-277.832,-73.486,-173.156,1
0.626281,0.695,2.703,-0.294,-207.031,-92.163,-181.762,1
0.634498,0.716,2.485,0.089,-120.666,-101.013,-187.866,1
0.64235,0.694,2.449,0.209,-34.79,-109.68,-194.519,1
0.649263,0.525,2.249,0.423,30.334,-111.694,-201.965,1
0.658811,0.533,1.836,0.471,49.926,-108.703,-209.533,1
0.665481,0.509,1.237,0.49,10.498,-98.449,-211.425,1
0.673851,0.493,1.178,0.461,-50.354,-90.026,-210.937,1
0.682861,0.368,0.982,0.428,-96.618,-83.618,-208.74,1
0.689587,0.326,1.086,0.417,-101.562,-83.801,-206.298,1
0.697064,0.263,1.166,0.461,-72.082,-85.571,-205.017,1
0.705224,0.157,1.24,0.419,-34.423,-87.829,-205.383,1
0.713936,-0.007,1.277,0.409,-5.187,-90.148,-207.214,1
0.721434,-0.117,1.296,0.37,14.648,-90.759,-209.899,1
0.729643,-0.226,1.309,0.362,20.996,-91.613,-212.89,1
0.736692,-0.311,1.295,0.353,25.329,-91.796,-215.393,1
0.744975,-0.373,1.299,0.374,33.02,-93.444,-218.322,1
0.752648,-0.475,1.325,0.391,46.325,-93.811,-221.069,1
0.761358,-0.555,1.327,0.432,69.091,-95.703,-224.609,1
0.77013,-0.59,1.267,0.454,106.201,-95.458,-229.37,1
0.776777,-0.601,1.166,0.462,132.934,-94.482,-233.154,1
0.785436,-0.576,0.968,0.505,149.78,-91.003,-235.778,1
0.792881,-0.49,0.8,0.533,145.324,-84.472,-236.633,1
0.800947,-0.454,0.676,0.563,128.173,-75.988,-237.06,1
0.809515,-0.375,0.578,0.578,100.097,-66.711,-235.168,1
0.816882,-0.311,0.554,0.601,79.956,-59.387,-233.581,1
0.826197,-0.248,0.535,0.619,70.861,-53.222,-231.14,1
0.833109,-0.199,0.519,0.622,74.584,-47.241,-228.454,1
0.841488,-0.207,0.499,0.614,90.087,-43.09,-226.684,1
0.849903,-0.092,0.405,0.603,107.91,-40.527,-224.243,1
0.859103,-0.027,0.306,0.632,110.534,-33.691,-220.825,1
0.866711,-0.025,0.209,0.649,96.984,-27.16,-216.247,1
0.874177,0.021,0.01,0.584,67.321,-18.676,-210.205,1
0.883303,0.061,0.087,0.7,40.344,-10.192,-204.284,1
0.890287,-0.181,0.275,0.561,38.085,4.028,-197.998,1
0.898107,-0.171,0.102,0.48,22.705,2.746,-198.669,1
0.905246,-0.104,0.097,0.68,37.231,14.038,-190.551,1
0.914377,0.141,0.121,0.561,33.508,21.606,-187.622,1
0.921267,0.021,0.137,0.531,6.53,38.818,-184.509,1
0.930445,0.132,0.178,0.376,-30.822,43.029,-183.105,1
0.937754,0.119,0.216,0.421,-37.475,52.978,-180.114,1
0.947031,0.28,0.229,0.302,-37.109,50.842,-177.612,1
0.955236,0.299,0.248,0.337,-26.245,52.307,-173.889,1
0.962669,0.375,0.32,0.301,-7.324,45.288,-169.616,1
0.971698,0.31,0.397,0.316,24.475,43.395,-166.625,1
0.979286,0.293,0.462,0.298,58.471,35.217,-163.94,1
0.986946,0.222,0.541,0.28,91.674,33.264,-163.085,1
0.995764,0.22,0.562,0.246,117.919,30.517,-163.513,1
1.002448,0.177,0.53,0.216,132.446,31.677,-166.015,1
1.010312,0.215,0.452,0.189,116.333,36.682,-168.334,1
1.019147,0.206,0.392,0.185,81.115,43.64,-171.813,1
1.026094,0.212,0.357,0.205,53.039,50.17,-174.621,1
1.033125,0.284,0.361,0.234,50.292,56.03,-176.025,1
1.040833,0.311,0.365,0.227,65.734,57.8,-176.696,1
1.049203,0.27,0.332,0.243,84.716,59.814,-176.635,1
1.056304,0.245,0.244,0.231,90.881,62.927,-175.781,1
1.063428,0.234,0.12,0.225,79.345,67.443,-174.011,1
1.071494,0.21,0.003,0.258,54.626,73.974,-171.142,1
1.079635,0.215,-0.078,0.263,34.79,82.946,-170.166,1
1.087686,0.109,-0.167,0.339,23.132,86.608,-167.053,1
1.095889,-0.008,-0.257,0.416,26.367,91.491,-163.513,1
1.102046,-0.072,-0.365,0.463,37.353,96.252,-160.095,1
1.109963,-0.085,-0.525,0.503,44.616,100.219,-157.653,1
1.116978,-0.147,-0.722,0.505,48.583,109.252,-152.16,1
1.125305,-0.235,-0.891,0.511,43.151,115.295,-147.644,1
1.132481,-0.403,-1.039,0.509,37.475,124.877,-141.357,1
1.140232,-0.589,-1.196,0.494,26.55,132.69,-133.239,1
1.148312,-0.706,-1.369,0.47,21.484,140.319,-126.159,1
1.155987,-0.833,-1.509,0.42,27.832,147.888,-115.966,1
1.16266,-1.026,-1.699,0.375,28.015,156.311,-104.919,1
1.17145,-1.16,-1.895,0.309,28.93,163.085,-92.102,1
1.178236,-1.267,-2.105,0.264,34.179,169.799,-77.026,1
1.185304,-1.398,-2.31,0.218,44.128,174.804,-64.208,1
1.192329,-1.542,-2.466,0.188,43.457,182.006,-44.799,1
1.19944,-1.721,-2.612,0.146,42.358,189.697,-23.62,1
1.207395,-1.873,-2.733,0.078,51.33,195.495,-1.281,1
1.216034,-2.085,-2.85,0.019,58.593,201.416,23.986,1
1.222368,-2.312,-2.973,-0.073,55.786,207.763,46.447,1
1.230634,-2.57,-3.047,-0.171,39.855,215.698,79.833,1
1.239073,-2.853,-3.075,-0.243,31.555,222.9,109.863,1
1.245355,-3.192,-3.101,-0.303,25.085,229.064,140.869,1
1.253155,-3.563,-3.125,-0.345,25.329,235.412,173.706,1
1.261601,-3.898,-3.123,-0.362,37.17,241.149,207.092,1
1.269828,-4.276,-3.129,-0.437,32.714,247.497,241.516,1
1.276285,-4.693,-3.131,-0.486,30.09,252.075,278.137,1
1.28475,-5.145,-3.056,-0.569,25.634,257.995,315.063,1
1.291969,-5.643,-2.905,-0.63,16.235,262.451,352.6,1
1.300367,-6.184,-2.701,-0.727,4.028,269.104,395.446,1
1.306738,-6.765,-2.469,-0.801,-3.356,272.338,425.17,1
1.316538,-7.305,-2.318,-0.873,-16.357,278.93,468.322,1
1.323115,-7.778,-2.193,-0.948,-10.803,281.127,506.957,1
1.331619,-8.403,-2.08,-1.014,26.428,279.296,547.546,1
1.340804,-9.086,-2.039,-1.115,75.195,270.202,599.365,1
1.348015,-10.038,-1.977,-1.234,110.107,257.263,657.104,1
1.356945,-10.921,-1.897,-1.344,144.836,240.417,710.693,1
1.363566,-12.207,-1.761,-1.451,184.997,216.247,767.456,1
1.371903,-13.422,-1.626,-1.541,250.915,183.166,827.941,1
1.381056,-14.635,-1.45,-1.646,342.163,133.361,891.784,1
1.388995,-15.999,-1.292,-1.766,444.396,55.175,967.102,1
1.39742,-15.999,-1.05,-1.843,517.7,-43.579,1040.588,1
1.404367,-15.999,-0.602,-1.837,570.495,-143.859,1096.923,1
1.412655,-15.999,-0.108,-1.629,633.178,-260.803,1143.188,1
1.42096,-15.999,0.371,-1.409,706.726,-412.536,1179.443,1
1.427704,-15.999,0.92,-1.1,757.568,-555.48,1188.598,1
1.435716,-15.999,1.47,-0.61,789.123,-699.34,1176.513,1
1.442793,-15.999,2.0,0.064,804.809,-840.026,1143.371,1
1.452142,-15.999,2.521,0.9,830.871,-972.351,1090.881,1
1.460797,-15.999,2.936,1.851,878.967,-1125.0,1002.258,1
1.468337,-15.999,3.084,2.653,930.725,-1245.544,898.071,1
1.476383,-15.999,2.892,3.358,919.921,-1367.919,763.244,1
1.484353,-15.999,3.163,3.977,916.87,-1441.345,639.099,1
1.492787,-15.999,3.231,4.452,911.498,-1501.342,477.478,1
1.502206,-15.999,3.707,4.937,894.897,-1516.418,303.1,1
1.508423,-15.999,3.981,5.022,917.602,-1503.051,150.085,1
1.518359,-15.999,4.065,4.754,942.748,-1481.994,-10.192,1
1.525171,-15.999,4.0,4.839,983.276,-1438.354,-170.654,1
1.533949,-15.999,3.662,4.553,1128.051,-1362.609,-364.074,1
1.542038,-15.999,2.665,4.015,1241.516,-1257.446,-533.02,1
1.54937,-15.999,1.303,3.259,1158.02,-1104.614,-676.757,1
1.55786,-15.999,0.746,3.004,916.137,-926.818,-787.048,1
1.565317,-15.999,0.377,2.625,714.782,-761.413,-844.055,1
1.572466,-15.999,0.333,2.635,601.318,-646.24,-868.102,1
1.581051,-15.999,0.118,2.536,533.447,-533.996,-877.441,1
1.589635,-15.999,-0.25,2.506,486.145,-444.763,-875.61,1
1.59786,-15.999,-0.799,2.526,464.355,-337.28,-857.91,1
1.605088,-15.009,-1.313,2.442,451.049,-256.469,-839.294,1
1.613015,-12.734,-2.082,2.273,389.648,-174.438,-811.218,1
1.620937,-11.325,-2.493,2.037,300.231,-99.609,-770.69,1
1.629731,-10.342,-2.616,1.994,270.629,-49.255,-730.651,1
1.636778,-9.386,-2.78,1.796,287.902,-11.474,-688.476,1
1.646402,-8.385,-2.999,1.674,316.345,32.897,-632.934,1
1.653541,-7.517,-3.27,1.406,307.373,67.749,-580.81,1
1.662351,-6.713,-3.402,1.27,255.187,108.215,-518.981,1
1.671376,-5.805,-3.408,1.074,218.444,136.779,-457.397,1
1.680601,-5.189,-3.341,0.94,208.679,156.555,-406.188,1
1.68757,-4.436,-3.28,0.688,198.852,172.119,-350.28,1
1.695886,-3.94,-3.09,0.558,193.176,182.739,-304.931,1
1.704729,-3.585,-2.897,0.417,196.716,191.284,-255.126,1
1.71127,-3.305,-2.701,0.303,192.26,197.326,-215.209,1
1.719512,-3.111,-2.414,0.169,177.734,201.843,-173.156,1
1.727701,-2.995,-2.187,0.116,162.475,205.017,-141.235,1
1.736633,-2.839,-1.996,0.036,129.943,209.045,-108.459,1
1.745407,-2.614,-1.829,-0.03,89.294,212.89,-84.106,1
1.752733,-2.397,-1.687,-0.089,46.508,214.965,-59.448,1
1.761521,-2.173,-1.54,-0.126,23.62,213.562,-41.442,1
1.771063,-1.943,-1.421,-0.154,9.643,210.51,-22.827,1
1.780083,-1.76,-1.326,-0.165,6.958,205.261,-6.042,1
1.787348,-1.57,-1.218,-0.182,15.38,198.364,9.521,1
1.79788,-1.454,-1.115,-0.173,25.634,191.345,23.437,1
1.804357,-1.322,-1.007,-0.156,28.93,186.218,34.606,1
1.811458,-1.228,-0.893,-0.131,34.301,179.87,46.203,1
1.820381,-1.137,-0.778,-0.113,42.053,173.4,55.114,1
1.828841,-1.06,-0.677,-0.098,48.889,167.236,63.11,1
1.837159,-0.934,-0.575,-0.098,53.955,160.095,72.326,1
1.844082,-0.81,-0.495,-0.09,56.091,153.869,79.101,1
1.852718,-0.656,-0.408,-0.074,56.335,146.423,85.876,1
1.860611,-0.515,-0.312,-0.021,59.631,139.831,91.43,1
1.867411,-0.442,-0.232,0.02,68.359,133.544,95.886,1
1.874595,-0.355,-0.142,0.058,80.993,127.014,99.426,1
1.88357,-0.29,-0.061,0.095,91.552,121.215,102.355,1
1.89033,-0.206,0.0,0.139,94.97,116.516,104.675,1
1.898438,-0.119,0.053,0.178,93.383,111.938,106.201,1
1.90456,-0.04,0.127,0.237,91.918,108.581,106.811,1
1.913334,0.026,0.199,0.278,94.421,104.614,107.299,1
1.920694,0.054,0.28,0.324,102.905,100.83,107.238,1
1.929283,0.069,0.335,0.357,109.924,97.229,106.811,1
1.936569,0.099,0.369,0.38,108.032,93.933,105.529,1
1.943739,0.27,0.395,0.41,99.06,92.407,104.37,1
1.952846,0.337,0.409,0.396,89.416,90.759,103.088,1
1.961019,0.44,0.445,0.463,85.327,88.5,101.745,1
1.968893,0.53,0.503,0.457,92.895,87.463,100.402,1
1.975609,0.538,0.563,0.472,103.759,83.74,98.327,1
1.983685,0.6,0.584,0.47,114.257,81.542,97.351,1
1.991026,0.642,0.628,0.482,120.178,78.857,96.313,1
1.997045,0.655,0.678,0.49,126.037,76.721,95.214,1
2.005252,0.64,0.718,0.507,132.507,73.852,93.383,1
2.012632,0.671,0.74,0.534,141.113,71.472,92.285,1
2.02132,0.691,0.735,0.564,145.629,69.335,91.247,1
2.028386,0.702,0.701,0.609,138.244,69.58,90.515,1
2.037119,0.711,0.706,0.641,133.605,70.007,89.66,1
2.044084,0.689,0.705,0.723,123.779,72.631,88.684,1
2.053003,0.698,0.728,0.74,121.826,77.087,87.707,1
2.060557,0.684,0.757,0.76,120.239,80.017,85.815,1
2.068314,0.69,0.797,0.773,125.732,83.801,84.289,1
2.075565,0.674,0.85,0.819,136.352,86.364,82.885,1
2.083593,0.725,0.892,0.851,154.663,90.82,81.176,1
2.090016,0.724,0.932,0.868,167.785,94.055,79.711,1
2.098332,0.75,0.944,0.895,168.579,99.304,79.345,1
2.105668,0.794,1.019,0.908,164.794,106.079,78.674,1
2.112936,0.818,1.085,0.88,165.588,111.389,77.27,1
2.122042,0.862,1.141,0.842,168.273,116.21,76.293,1
2.128566,0.896,1.182,0.795,167.358,120.849,75.134,1
2.135514,0.896,1.226,0.736,162.536,125.732,73.974,1
2.144146,0.871,1.271,0.666,159.667,129.272,72.448,1
2.151731,0.836,1.299,0.602,161.743,132.385,70.495,1
2.15846,0.805,1.312,0.562,169.555,134.155,68.542,1
2.167138,0.782,1.312,0.556,181.457,136.657,67.016,1
2.17544,0.764,1.315,0.522,186.584,139.709,66.284,1
2.182879,0.71,1.337,0.462,184.02,144.409,65.368,1
2.191437,0.67,1.375,0.408,174.438,147.705,64.392,1
2.1989,0.644,1.436,0.345,168.579,150.512,63.049,1
2.207461,0.604,1.48,0.27,165.649,152.526,61.462,1
2.215062,0.57,1.49,0.19,164.184,153.93,60.18,1
2.221544,0.534,1.512,0.122,164.855,154.479,58.532,1
2.230413,0.51,1.53,0.083,169.677,155.029,56.701,1
2.239339,0.445,1.556,0.036,172.546,156.188,54.016,1
2.246521,0.374,1.594,-0.014,172.485,157.104,51.574,1
2.255597,0.303,1.615,-0.057,173.828,156.799,48.645,1
2.2628,0.246,1.624,-0.095,178.283,156.921,46.386,1
2.271547,0.179,1.624,-0.168,184.326,155.334,43.395,1
2.278759,0.138,1.613,-0.221,194.213,153.991,41.687,1
2.287382,0.12,1.604,-0.303,206.054,149.78,40.222,1
2.29605,0.044,1.581,-0.299,214.538,147.705,38.208,1
2.304921,-0.003,1.539,-0.338,210.327,146.606,36.987,1
2.311776,-0.064,1.477,-0.327,191.04,146.972,35.034,1
2.321927,-0.147,1.429,-0.33,175.476,147.399,32.653,1
2.329673,-0.291,1.35,-0.308,162.963,147.949,29.968,1
2.338423,-0.262,1.223,-0.32,152.771,147.766,27.404,1
2.347174,-0.236,1.136,-0.287,150.451,149.963,25.939,1
2.355978,-0.166,1.003,-0.348,147.827,150.024,25.085,1
2.363628,-0.183,0.927,-0.301,143.31,150.39,25.512,1
2.372677,-0.216,0.926,-0.282,155.7,148.193,26.306,1
2.380284,-0.205,0.791,-0.292,167.114,146.301,27.282,1
2.387623,-0.231,0.596,-0.306,160.522,146.301,29.235,1
2.397306,-0.267,0.477,-0.299,144.714,146.423,31.738,1
2.403756,-0.292,0.396,-0.282,130.92,147.338,34.851,1
2.413756,-0.268,0.335,-0.251,126.159,147.033,37.719,1
2.421014,-0.16,0.29,-0.232,126.159,148.071,43.579,1
2.430259,-0.103,0.293,-0.263,128.784,146.667,49.682,1
2.43755,-0.055,0.284,-0.227,134.887,145.446,55.603,1
2.446895,0.05,0.291,-0.232,149.536,144.531,64.025,1
2.453834,0.163,0.295,-0.215,163.696,143.493,72.143,1
2.461447,0.234,0.297,-0.227,173.034,144.348,80.627,1
2.469144,0.27,0.3,-0.246,167.419,145.141,90.576,1
2.477714,0.265,0.31,-0.26,145.996,148.193,98.51,1
2.486157,0.245,0.317,-0.296,105.834,152.526,105.957,1
2.493443,0.241,0.35,-0.33,51.635,158.752,112.06,1
2.502201,0.244,0.442,-0.37,-8.361,164.916,117.614,1
2.508963,0.205,0.604,-0.412,-35.888,168.029,120.422,1
2.518009,0.171,0.739,-0.445,-32.043,167.358,123.107,1
2.528488,0.132,0.864,-0.496,-1.708,162.841,125.61,1
2.535806,0.102,0.961,-0.541,36.743,156.677,128.479,1
2.542498,0.074,1.048,-0.581,64.88,150.573,131.164,1
2.551719,0.047,1.134,-0.621,78.918,145.874,133.239,1
2.560343,0.066,1.259,-0.657,79.895,140.808,134.521,1
2.568643,-0.072,1.375,-0.715,65.124,137.817,134.887,1
2.577817,-0.095,1.529,-0.77,47.485,133.178,132.568,1
2.585141,-0.14,1.659,-0.798,36.926,129.455,129.638,1
2.593978,-0.147,1.761,-0.836,32.348,122.863,124.694,1
2.60127,-0.149,1.835,-0.845,37.597,117.065,120.178,1
2.609132,-0.108,1.888,-0.866,50.72,108.093,114.135,1
2.618078,-0.105,1.937,-0.865,64.758,101.562,109.619,1
2.626476,-0.054,1.974,-0.875,77.636,93.078,103.576,1
2.635727,0.02,2.007,-0.85,84.411,87.585,97.106,1
2.643089,-0.015,2.015,-0.84,85.327,82.58,92.041,1
2.651875,0.03,2.056,-0.842,70.922,79.895,85.327,1
2.658109,0.084,2.101,-0.822,58.593,77.453,78.43,1
2.666159,-0.044,2.116,-0.82,47.058,75.988,72.143,1
2.674601,0.029,2.134,-0.814,42.175,73.181,65.429,1
2.682966,0.045,2.127,-0.785,48.4,70.068,57.312,1
2.691929,0.07,2.132,-0.784,53.283,66.772,51.147,1
2.700403,0.088,2.136,-0.741,59.387,63.842,43.823,1
2.708551,0.1,2.125,-0.731,59.387,61.706,37.231,1
2.716674,0.075,2.12,-0.691,56.823,60.119,29.541,1
2.723442,0.067,2.102,-0.678,51.086,59.631,22.827,1
2.732351,0.048,2.078,-0.661,41.625,58.776,16.113,1
2.739134,0.049,2.059,-0.633,35.278,58.776,9.521,1
2.747022,0.039,2.032,-0.616,32.653,57.556,2.746,1
2.754551,0.033,1.993,-0.597,32.958,56.64,-3.173,1
2.763041,0.033,1.954,-0.585,33.996,55.175,-9.643,1
2.770227,0.02,1.936,-0.579,33.264,54.26,-14.892,1
2.777992,0.012,1.929,-0.576,32.287,52.978,-20.019,1
2.785192,0.0,1.914,-0.561,33.325,51.818,-25.39,1
2.793228,-0.003,1.894,-0.547,38.391,50.048,-30.456,1
2.801602,-0.005,1.859,-0.516,46.386,48.156,-34.912,1
2.810576,-0.015,1.83,-0.484,55.053,47.546,-40.283,1
2.81757,-0.016,1.789,-0.465,57.922,47.546,-44.799,1
2.82635,-0.01,1.744,-0.423,54.382,49.743,-49.255,1
2.834236,-0.013,1.714,-0.425,44.799,52.307,-52.978,1
2.842499,-0.025,1.695,-0.406,29.479,55.725,-57.556,1
2.851571,-0.037,1.687,-0.404,15.624,58.715,-61.706,1
2.859211,-0.056,1.681,-0.396,2.441,61.95,-66.467,1
2.867801,-0.063,1.689,-0.405,-5.249,64.147,-70.495,1
2.87512,-0.084,1.695,-0.412,-12.207,65.551,-74.951,1
2.883047,-0.079,1.69,-0.422,-16.052,67.26,-79.833,1
2.892098,-0.081,1.693,-0.441,-16.174,67.26,-84.35,1
2.9,-0.082,1.685,-0.453,-11.962,66.65,-88.989,1
2.908897,-0.09,1.678,-0.461,-7.873,65.307,-93.383,1
2.917119,-0.094,1.665,-0.465,-4.821,64.697,-97.351,1
2.925475,-0.085,1.656,-0.471,-2.563,63.476,-101.806,1
2.934608,-0.077,1.633,-0.474,-2.136,62.438,-106.262,1
2.940681,-0.056,1.61,-0.468,-1.403,61.34,-109.436,1
2.949644,-0.022,1.569,-0.467,-1.037,60.424,-112.426,1
2.958894,0.02,1.534,-0.457,-2.258,59.265,-115.722,1
2.966839,0.05,1.507,-0.45,-5.004,58.715,-118.774,1
2.975553,0.057,1.493,-0.436,-10.681,58.288,-121.52,1
2.984816,0.061,1.48,-0.428,-15.869,57.861,-124.389,1
2.993765,0.049,1.476,-0.41,-16.601,57.25,-127.319,1
3.000903,0.038,1.464,-0.409,-14.526,56.579,-130.432,1
3.009233,0.047,1.436,-0.398,-12.145,55.969,-132.934,1
3.018607,0.067,1.4,-0.405,-10.864,54.931,-134.765,1
3.025794,0.09,1.373,-0.406,-10.192,54.26,-136.84,1
3.03493,0.081,1.363,-0.426,-11.962,53.222,-138.793,1
3.041176,0.071,1.359,-0.428,-13.366,52.307,-140.93,1
3.049704,0.064,1.342,-0.43,-11.901,50.659,-143.493,1
3.058436,0.053,1.319,-0.424,-8.972,49.377,-145.385,1
3.065673,0.044,1.298,-0.426,-5.126,47.912,-147.399,1
3.073204,0.036,1.261,-0.438,-5.249,47.058,-149.108,1
3.081828,0.039,1.203,-0.451,-9.46,46.569,-150.695,1
3.088797,0.062,1.148,-0.458,-17.517,45.959,-151.489,1
3.097763,0.079,1.105,-0.467,-27.16,45.959,-152.038,1
3.105969,0.08,1.086,-0.479,-34.24,44.372,-152.465,1
3.11175,0.061,1.072,-0.48,-35.766,42.846,-152.648,1
3.119509,0.05,1.071,-0.485,-29.907,40.161,-152.709,1
3.128305,0.051,1.056,-0.483,-18.92,37.414,-153.076,1
3.136147,0.059,1.026,-0.504,-5.798,34.24,-153.076,1
3.144898,0.067,0.99,-0.507,2.502,31.86,-153.015,1
3.152145,0.09,0.947,-0.515,2.868,30.639,-152.526,1
3.160598,0.111,0.906,-0.525,-7.446,30.395,-152.16,1
3.167708,0.116,0.871,-0.527,-25.512,31.311,-152.038,1
3.176062,0.128,0.845,-0.526,-48.095,31.616,-151.794,1
3.184257,0.134,0.834,-0.517,-62.622,31.555,-151.489,1
3.191396,0.121,0.813,-0.513,-70.983,31.005,-151.55,1
3.199725,0.1,0.79,-0.516,-72.143,29.174,-151.428,1
3.208849,0.1,0.758,-0.518,-67.626,26.672,-150.817,1
3.216602,0.102,0.724,-0.506,-59.082,24.414,-150.085,1
3.224454,0.108,0.675,-0.502,-47.607,21.545,-149.047,1
3.232592,0.116,0.638,-0.496,-40.893,19.836,-147.705,1
3.240462,0.144,0.581,-0.491,-41.32,18.92,-146.362,1
3.247984,0.154,0.541,-0.483,-48.706,17.7,-144.653,1
3.257172,0.167,0.514,-0.463,-56.945,17.456,-143.066,1
3.265032,0.171,0.493,-0.442,-65.429,16.54,-141.357,1
3.272522,0.166,0.471,-0.411,-70.251,15.869,-139.831,1
3.280309,0.162,0.456,-0.388,-71.411,14.77,-137.878,1
3.288945,0.168,0.436,-0.363,-71.655,14.038,-136.596,1
3.29857,0.182,0.413,-0.337,-72.021,13.183,-135.131,1
3.305573,0.205,0.391,-0.31,-73.852,12.756,-134.094,1
3.314253,0.209,0.382,-0.288,-75.866,12.084,-133.605,1
3.321702,0.233,0.358,-0.27,-75.683,10.742,-133.3,1
3.3304,0.246,0.334,-0.249,-71.411,9.338,-132.69,1
3.338489,0.268,0.309,-0.237,-65.124,7.446,-132.507,1
3.346366,0.28,0.273,-0.23,-56.762,4.516,-131.652,1
3.353989,0.289,0.247,-0.218,-47.79,1.281,-131.164,1
3.361641,0.306,0.222,-0.199,-39.611,-1.098,-130.554,1
3.370298,0.321,0.198,-0.199,-32.836,-3.417,-129.943,1
3.378599,0.36,0.181,-0.203,-28.381,-5.615,-129.455,1
3.386088,0.386,0.173,-0.214,-26.245,-8.422,-128.601,1
3.394438,0.375,0.166,-0.226,-25.451,-10.986,-128.051,1
3.403103,0.358,0.163,-0.231,-20.996,-15.319,-127.502,1
3.411652,0.35,0.166,-0.228,-10.131,-19.836,-126.831,1
3.418289,0.392,0.163,-0.233,12.939,-25.268,-126.159,1
3.427763,0.592,0.194,-0.237,38.146,-32.714,-119.873,1
3.435499,0.644,0.258,-0.227,79.772,-39.245,-117.004,1
3.444419,0.583,0.262,-0.275,121.582,-49.072,-115.844,1
3.452387,0.355,0.163,-0.227,156.738,-55.175,-116.088,1
3.461747,0.488,0.081,-0.265,174.194,-57.312,-114.807,1
3.469226,0.487,0.085,-0.235,176.147,-58.471,-114.318,1
3.47826,0.502,0.051,-0.269,169.189,-55.603,-112.976,1
3.487661,0.413,0.021,-0.274,164.916,-53.894,-113.342,1
3.496221,0.441,0.014,-0.272,155.7,-46.874,-111.45,1
3.5053,0.5,0.025,-0.354,142.517,-40.344,-111.816,1
3.512777,0.592,0.02,-0.313,127.624,-35.339,-111.999,1
3.521921,0.739,0.048,-0.339,116.638,-26.916,-111.938,1
3.529867,0.823,0.074,-0.324,107.543,-24.475,-113.586,1
3.537586,0.681,0.05,-0.301,90.576,-16.235,-113.647,1
3.546414,0.73,0.023,-0.362,65.307,-15.441,-114.685,1
3.554142,0.698,0.041,-0.303,45.104,-10.864,-114.501,1
3.562653,0.679,0.089,-0.349,30.517,-10.62,-114.135,1
3.56979,0.632,0.187,-0.314,29.479,-11.413,-114.318,1
3.57863,0.654,0.266,-0.358,48.522,-14.343,-114.624,1
3.587004,0.65,0.302,-0.379,72.631,-18.615,-115.417,1
3.594198,0.637,0.308,-0.439,95.092,-21.362,-116.088,1
3.601802,0.636,0.312,-0.471,102.05,-24.536,-116.76,1
3.609753,0.756,0.369,-0.519,107.482,-25.512,-116.455,1
3.618577,0.877,0.407,-0.586,109.069,-28.503,-117.248,1
3.625049,0.992,0.418,-0.675,102.416,-27.099,-117.736,1
3.633503,1.093,0.437,-0.807,78.735,-25.634,-119.262,1
3.641918,1.064,0.485,-0.906,43.945,-22.644,-121.337,1
3.649538,0.965,0.517,-0.968,14.038,-21.911,-124.877,1
3.657055,0.894,0.558,-1.019,2.807,-23.437,-128.54,1
3.664432,0.81,0.615,-1.048,17.395,-30.456,-131.591,1
3.671793,0.592,0.604,-1.068,47.363,-38.574,-134.704,1
3.682046,0.515,0.576,-1.121,75.012,-46.02,-137.084,1
3.688591,0.647,0.476,-1.254,96.923,-54.87,-140.991,1
3.697088,0.677,0.303,-1.363,85.449,-60.363,-143.188,1
3.704134,0.784,0.262,-1.376,46.752,-65.856,-143.188,1
3.712019,0.897,0.243,-1.378,27.404,-72.021,-142.883,1
3.720905,0.91,0.257,-1.347,30.029,-78.369,-141.723,1
3.729232,0.961,0.259,-1.297,56.701,-88.623,-140.38,1
3.737067,0.967,0.256,-1.316,94.116,-94.787,-139.953,1
3.7466,1.126,0.252,-1.328,133.056,-104.309,-141.174,1
3.753975,1.011,0.231,-1.315,154.663,-107.238,-141.845,1
3.763314,1.023,0.242,-1.348,146.667,-111.328,-144.042,1
3.770416,0.877,0.32,-1.231,129.882,-112.243,-147.033,1
3.779752,0.814,0.394,-1.173,121.154,-114.135,-150.939,1
3.786492,0.734,0.456,-1.062,124.999,-116.271,-156.005,1
3.794166,0.683,0.472,-0.96,133.544,-117.553,-160.766,1
3.802954,0.582,0.454,-0.837,138.61,-117.797,-166.259,1
3.811235,0.512,0.371,-0.684,131.103,-114.318,-171.569,1
3.819888,0.456,0.291,-0.541,101.806,-107.36,-176.94,1
3.827104,0.422,0.109,-0.367,60.18,-101.379,-180.419,1
3.834446,0.569,-0.014,-0.175,7.69,-90.82,-178.405,1
3.843656,0.477,0.03,-0.049,-12.207,-84.106,-180.603,1
3.850704,0.423,-0.021,0.144,6.591,-79.406,-183.715,1
3.859469,0.367,-0.108,0.22,30.944,-73.974,-186.157,1
3.866507,0.305,-0.183,0.368,44.311,-66.833,-187.744,1
3.875559,0.108,-0.318,0.454,53.466,-58.349,-189.514,1
3.882503,-0.011,-0.433,0.607,53.161,-46.264,-189.88,1
3.890784,-0.069,-0.535,0.681,48.706,-33.691,-189.514,1
3.899451,-0.247,-0.645,0.806,44.189,-18.432,-187.622,1
3.908255,-0.407,-0.753,0.866,47.912,-2.258,-184.143,1
3.917811,-0.58,-0.886,0.931,53.405,11.474,-179.992,1
3.92641,-0.722,-1.014,0.95,58.837,27.465,-172.363,1
3.93393,-0.801,-1.204,0.978,61.889,44.189,-162.658,1
3.944593,-0.83,-1.454,0.975,61.95,59.631,-148.071,1
3.952652,-0.912,-1.67,0.989,52.917,77.331,-130.676,1
3.959076,-1.054,-1.949,0.992,34.057,91.43,-114.013,1
3.967771,-1.224,-2.107,1.044,20.446,112.548,-91.735,1
3.977037,-1.382,-2.412,1.018,9.643,126.77,-69.885,1
3.9836,-1.558,-2.58,1.095,8.605,146.911,-41.748,1
3.990984,-1.753,-2.783,1.061,10.559,164.184,-15.624,1
3.999562,-1.785,-2.953,1.052,-0.244,182.678,14.404,1
4.00747,-2.105,-3.032,1.029,-6.713,199.707,45.532,1
4.015184,-2.408,-3.085,1.026,-21.362,221.618,82.031,1
4.022948,-2.65,-3.153,0.961,-29.174,238.159,113.891,1
4.03071,-3.016,-3.163,0.959,-36.193,259.46,146.911,1
4.039975,-3.538,-3.116,0.817,-51.635,279.602,180.236,1
4.047022,-4.057,-3.087,0.757,-88.806,306.396,218.505,1
4.055928,-4.602,-3.071,0.622,-129.272,329.04,251.281,1
4.063061,-5.356,-3.028,0.525,-170.532,356.201,283.813,1
4.072849,-6.142,-2.953,0.352,-208.374,386.962,321.533,1
4.080727,-7.046,-2.888,0.213,-223.876,415.649,353.088,1
4.088254,-8.099,-2.895,-0.044,-230.529,447.814,390.136,1
4.096649,-9.212,-3.015,-0.264,-238.83,482.299,429.809,1
4.103797,-10.265,-3.155,-0.488,-231.567,510.62,466.43,1
4.111811,-11.413,-3.323,-0.643,-199.89,536.376,509.216,1
4.121569,-12.863,-3.529,-0.934,-130.493,560.791,569.763,1
4.128627,-14.328,-3.695,-1.198,-69.152,575.622,631.042,1
4.137953,-15.999,-3.723,-1.572,13.305,583.068,714.294,1
4.145751,-15.999,-3.649,-1.89,110.595,573.059,796.142,1
4.153855,-15.999,-3.418,-2.341,257.202,539.367,907.165,1
4.161907,-15.999,-2.985,-2.75,405.578,477.966,1013.61,1
4.171262,-15.999,-2.324,-3.064,580.322,365.539,1147.461,1
4.178621,-15.999,-1.371,-3.004,736.694,207.458,1281.982,1
4.189281,-15.999,-0.309,-2.626,833.496,38.085,1384.887,1
4.198076,-15.999,0.75,-2.104,916.015,-218.017,1488.586,1
4.205654,-15.999,2.021,-1.235,968.322,-466.186,1535.522,1
4.214003,-15.999,3.219,-0.228,1027.343,-687.133,1535.766,1
4.221384,-15.999,4.212,1.144,1085.937,-914.916,1492.797,1
4.229553,-15.999,4.581,2.684,1113.464,-1186.401,1391.174,1
4.238941,-15.999,4.867,4.732,1137.207,-1427.307,1229.309,1
4.247026,-15.999,5.622,6.125,1126.953,-1589.294,1058.105,1
4.25528,-15.999,5.848,7.737,1085.022,-1708.007,838.378,1
4.262986,-15.999,6.886,8.473,1231.079,-1758.056,605.346,1
4.271955,-15.999,7.402,7.659,1619.018,-1809.631,302.734,1
4.279606,-15.999,6.263,7.139,1859.069,-1807.678,-144.165,1
4.288419,-15.999,4.132,6.548,1765.197,-1643.676,-507.507,1
4.295733,-15.999,2.084,5.147,1533.508,-1371.093,-824.157,1
4.305928,-15.999,1.007,4.506,1202.209,-1090.942,-1014.221,1
4.314043,-15.999,0.083,3.067,886.108,-843.811,-1110.534,1
4.321714,-15.999,-0.469,2.588,678.955,-665.71,-1146.118,1
4.331035,-15.999,-1.158,2.054,597.351,-538.513,-1144.714,1
4.338312,-15.999,-1.701,1.926,538.147,-410.949,-1116.272,1
4.347432,-15.999,-2.259,1.573,409.912,-296.447,-1070.251,1
4.354942,-15.999,-2.49,1.616,315.185,-224.304,-1020.629,1
4.362295,-15.999,-2.515,1.744,324.218,-156.005,-955.505,1
4.370051,-15.951,-2.705,1.761,388.305,-100.402,-896.118,1
4.378811,-14.237,-3.047,1.608,433.288,-39.062,-834.472,1
4.388263,-12.328,-3.508,1.317,420.349,22.094,-771.118,1
4.395389,-10.403,-3.806,0.971,346.557,82.702,-696.716,1
4.403813,-9.125,-3.752,0.809,286.132,121.459,-623.84,1
4.412729,-8.057,-3.656,0.63,276.245,148.559,-562.744,1
4.419733,-6.768,-3.603,0.397,264.77,165.344,-503.295,1
4.427835,-5.875,-3.481,0.169,244.079,182.312,-446.105,1
4.436113,-5.171,-3.297,0.009,209.411,193.115,-384.826,1
4.443027,-4.493,-3.029,-0.135,192.382,199.829,-327.148,1
4.452714,-3.964,-2.854,-0.281,180.236,202.087,-281.433,1
4.460758,-3.435,-2.732,-0.414,151.55,203.186,-239.501,1
4.467302,-2.894,-2.54,-0.522,118.957,200.134,-201.477,1
4.476095,-2.534,-2.37,-0.541,100.83,195.495,-167.236,1
4.48453,-2.224,-2.215,-0.548,97.717,185.852,-130.92,1
4.491762,-1.898,-2.07,-0.536,96.923,176.696,-96.923,1
4.502347,-1.647,-1.939,-0.525,87.28,168.945,-70.617,1
4.510383,-1.352,-1.751,-0.475,73.181,160.888,-41.992,1
4.516794,-1.171,-1.587,-0.441,57.922,152.893,-16.54,1
4.525621,-1.04,-1.415,-0.393,46.813,146.667,2.624,1
4.534602,-0.938,-1.216,-0.338,38.146,138.977,22.216,1
4.541556,-0.845,-1.06,-0.295,32.226,132.995,36.743,1
4.550986,-0.801,-0.881,-0.254,27.526,127.075,49.499,1
4.558691,-0.776,-0.751,-0.209,29.113,119.567,61.462,1
4.565612,-0.789,-0.652,-0.164,36.193,113.037,70.617,1
4.575015,-0.734,-0.571,-0.117,44.189,106.994,78.369,1
4.582409,-0.65,-0.511,-0.08,43.029,100.219,88.134,1
4.591405,-0.572,-0.46,-0.04,33.447,96.252,94.543,1
4.60013,-0.5,-0.373,0.005,20.996,92.468,100.646,1
4.608248,-0.479,-0.293,0.036,12.817,89.599,104.98,1
4.615655,-0.407,-0.215,0.069,7.385,86.242,108.215,1
4.624135,-0.321,-0.114,0.092,5.493,82.336,110.534,1
4.632884,-0.21,-0.032,0.127,11.352,78.002,111.45,1
4.638542,-0.117,0.015,0.162,20.69,73.608,111.877,1
4.647452,-0.038,0.039,0.188,29.052,69.396,111.755,1
4.65387,0.106,0.056,0.239,29.785,65.673,111.633,1
4.661532,0.148,0.115,0.292,24.353,63.903,110.473,1
4.668882,0.185,0.187,0.333,16.662,61.706,108.52,1
4.678299,0.208,0.247,0.375,17.517,60.485,105.407,1
4.685131,0.257,0.309,0.388,29.296,56.762,101.44,1
4.694137,0.322,0.344,0.407,41.748,54.077,97.351,1
4.701295,0.372,0.353,0.398,48.4,50.72,91.918,1
4.71042,0.423,0.337,0.415,45.41,48.95,87.036,1
4.718588,0.539,0.281,0.392,25.756,48.767,82.763,1
4.725027,0.564,0.251,0.385,11.23,48.95,78.735,1
4.731898,0.625,0.266,0.386,10.131,47.18,75.805,1
4.740567,0.688,0.241,0.366,17.822,44.128,72.937,1
4.747566,0.724,0.186,0.34,25.268,40.405,70.861,1
4.756026,0.749,0.171,0.335,35.705,36.743,69.03,1
4.763458,0.791,0.134,0.32,52.856,31.677,67.565,1
4.771063,0.818,0.081,0.319,78.063,25.329,66.223,1
4.779185,0.8,0.047,0.315,101.013,19.348,65.979,1
4.786908,0.802,-0.029,0.327,116.394,14.587,65.795,1
4.794817,0.835,-0.141,0.349,118.408,11.535,67.26,1
4.802809,0.868,-0.222,0.357,96.801,10.131,69.335,1
4.810365,0.895,-0.274,0.397,69.702,10.314,72.021,1
4.819594,0.948,-0.309,0.44,44.067,10.742,75.683,1
4.82675,0.938,-0.323,0.486,26.916,11.23,79.467,1
4.833546,0.926,-0.346,0.558,21.24,10.803,84.045,1
4.84092,0.943,-0.327,0.638,31.005,10.314,88.623,1
4.849925,0.932,-0.334,0.695,52.124,8.789,93.994,1
4.857148,0.919,-0.375,0.749,71.96,8.422,99.975,1
4.864798,0.821,-0.347,0.846,85.571,6.958,106.445,1
4.872541,0.75,-0.344,0.901,97.839,7.568,113.281,1
4.879147,0.686,-0.36,0.926,104.003,8.911,120.117,1
4.888638,0.625,-0.389,0.936,101.989,11.474,127.563,1
4.895351,0.519,-0.347,0.94,93.688,13.732,136.169,1
4.904049,0.43,-0.307,0.937,92.956,15.808,143.554,1
4.913321,0.293,-0.276,0.88,92.102,17.578,151.428,1
4.919952,0.195,-0.248,0.836,88.623,19.287,157.775,1
4.927405,0.05,-0.221,0.777,80.017,20.812,164.916,1
4.935196,-0.045,-0.202,0.744,72.998,22.521,170.776,1
4.942987,-0.116,-0.197,0.721,71.289,23.62,176.94,1
4.951076,-0.2,-0.19,0.713,77.087,24.23,183.349,1
4.958764,-0.252,-0.199,0.691,87.402,24.169,190.002,1
4.967477,-0.315,-0.219,0.676,98.449,23.681,197.143,1
4.97709,-0.365,-0.234,0.654,107.177,23.01,206.298,1
4.985522,-0.51,-0.239,0.636,114.807,23.132,217.468,1
4.993856,-0.546,-0.245,0.599,119.079,21.911,226.013,1
5.001766,-0.672,-0.221,0.576,125.427,22.399,234.68,1
5.009158,-0.747,-0.191,0.53,138.671,19.775,244.873,1
5.016072,-0.812,-0.178,0.49,155.761,17.761,253.723,1
5.025454,-0.822,-0.185,0.458,177.185,13.488,263.488,1
5.032856,-0.841,-0.204,0.426,194.152,8.3,273.376,1
5.04197,-0.889,-0.233,0.393,208.312,3.173,285.644,1
5.049585,-0.927,-0.267,0.395,212.097,-1.22,296.386,1
5.059693,-0.933,-0.294,0.363,206.848,-3.662,309.143,1
5.067162,-0.936,-0.293,0.332,192.871,-6.408,321.167,1
5.076281,-0.888,-0.277,0.263,178.344,-9.826,332.946,1
5.085047,-0.908,-0.255,0.249,162.292,-14.465,343.505,1
5.092406,-0.971,-0.221,0.228,144.531,-17.028,352.294,1
5.100748,-1.053,-0.176,0.235,124.45,-20.019,360.656,1
5.109432,-1.403,-0.177,0.293,90.332,-20.935,367.614,1
5.116047,-1.312,-0.06,0.321,87.524,-16.601,378.295,1
5.125852,-1.181,-0.038,0.296,100.158,-22.399,382.324,1
5.134064,-1.363,-0.067,0.316,98.815,-22.033,387.145,1
5.141077,-1.664,-0.078,0.293,63.842,-23.681,392.517,1
5.149198,-1.835,-0.107,0.292,-8.483,-15.869,398.315,1
5.158311,-2.063,-0.069,0.25,-92.468,-9.155,402.648,1
5.165463,-2.411,0.031,0.269,-176.635,5.493,408.508,1
5.174296,-2.702,0.132,0.248,-221.13,14.526,415.1,1
5.183289,-3.038,0.312,0.313,-224.548,26.855,424.316,1
5.190982,-3.433,0.501,0.34,-193.298,28.564,430.969,1
5.199495,-3.967,0.731,0.395,-125.732,30.395,436.096,1
5.20637,-4.422,0.913,0.428,-64.453,25.573,436.95,1
5.213956,-4.712,1.075,0.454,-3.723,21.301,436.889,1
5.223186,-4.77,1.175,0.491,44.128,12.207,434.326,1
5.229549,-4.78,1.23,0.528,75.927,6.164,429.809,1
5.237223,-4.773,1.265,0.577,77.575,1.831,424.56,1
5.244843,-4.748,1.311,0.63,60.119,3.845,419.25,1
5.253241,-4.696,1.381,0.645,22.033,8.911,412.536,1
5.262006,-4.636,1.458,0.695,-23.864,19.897,404.846,1
5.268473,-4.53,1.557,0.697,-75.744,34.851,396.423,1
5.276603,-4.353,1.668,0.687,-124.206,51.025,386.718,1
5.284056,-4.199,1.771,0.655,-164.611,73.608,373.413,1
5.292994,-4.051,1.853,0.598,-184.143,90.759,360.595,1
5.302122,-3.915,1.906,0.542,-187.316,110.229,344.116,1
5.310181,-3.82,1.955,0.44,-179.565,126.159,327.392,1
5.318493,-3.714,2.021,0.324,-166.259,136.596,312.744,1
5.326493,-3.69,2.036,0.197,-154.052,143.493,298.461,1
5.334073,-3.469,2.689,-0.258,-181.03,151.123,280.09,1
5.343049,-3.451,2.108,-0.054,-208.557,164.062,265.625,1
5.350025,-3.346,2.045,-0.203,-255.187,168.579,247.802,1
5.36004,-3.211,2.018,-0.244,-296.142,178.955,232.971,1
5.367798,-2.886,1.946,-0.282,-323.425,184.082,213.256,1
5.377048,-2.779,2.176,-0.581,-322.631,185.852,199.157,1
5.384673,-2.478,1.875,-0.332,-299.499,191.04,187.561,1
5.393436,-2.371,1.8,-0.221,-274.841,185.668,176.33,1
5.400971,-2.174,1.846,-0.27,-236.328,182.189,166.748,1
5.409641,-2.073,1.866,-0.362,-192.626,179.26,160.888,1
5.418511,-1.958,1.881,-0.521,-150.512,164.428,152.16,1
5.428795,-1.936,1.834,-0.318,-98.571,167.358,145.446,1
5.43614,-1.857,1.791,-0.426,-84.655,154.418,137.207,1
5.443548,-1.869,1.674,-0.35,-93.811,157.47,131.652,1
5.452394,-1.737,1.579,-0.375,-124.816,150.878,124.877,1
5.460242,-1.812,1.531,-0.296,-149.719,156.005,117.309,1
5.466666,-1.879,1.639,-0.287,-186.523,158.02,112.121,1
5.476085,-1.675,1.642,-0.286,-195.922,156.25,101.135,1
5.482318,-1.798,1.647,-0.213,-209.899,159.667,95.764,1
5.4905,-1.742,1.616,-0.312,-212.768,158.813,81.848,1
5.498429,-1.823,1.621,-0.198,-202.575,160.705,71.411,1
5.507056,-1.825,1.761,-0.265,-196.166,163.085,61.584,1
5.514476,-1.712,1.681,-0.224,-180.541,157.287,50.781,1
5.522323,-1.781,1.647,-0.218,-174.499,161.926,39.611,1
5.529716,-1.78,1.678,-0.27,-172.18,158.264,28.137,1
5.538989,-1.779,1.646,-0.219,-172.424,159.057,16.418,1
5.545658,-1.739,1.611,-0.259,-178.894,158.508,4.821,1
5.555993,-1.759,1.555,-0.219,-190.307,158.02,-9.155,1
5.564897,-1.752,1.469,-0.225,-212.524,160.034,-23.071,1
5.571486,-1.756,1.373,-0.175,-246.337,162.231,-34.667,1
5.581838,-1.646,1.309,-0.158,-287.536,166.442,-48.339,1
5.588885,-1.601,1.277,-0.088,-311.828,168.518,-64.147,1
5.599502,-1.548,1.25,-0.066,-307.128,168.212,-75.5,1
5.607881,-1.531,1.166,-0.005,-286.132,166.137,-89.355,1
5.617091,-1.523,1.062,-0.001,-275.024,165.832,-98.205,1
5.623785,-1.515,0.947,0.009,-276.306,165.954,-106.628,1
5.6324,-1.462,0.868,0.026,-277.404,166.931,-112.976,1
5.641452,-1.407,0.822,0.035,-268.31,166.076,-118.041,1
5.649686,-1.398,0.789,0.035,-253.601,165.161,-122.253,1
5.658168,-1.419,0.757,0.028,-235.961,163.208,-126.159,1
5.668065,-1.459,0.733,0.02,-221.74,162.231,-128.967,1
5.675892,-1.187,0.619,-0.039,-215.515,160.278,-132.202,1
5.685175,-1.489,0.666,-0.023,-218.383,158.325,-133.483,1
5.693734,-1.619,0.669,-0.101,-210.388,153.076,-135.742,1
5.703138,-1.48,0.682,-0.07,-199.401,149.963,-138.488,1
5.711693,-1.488,0.654,-0.119,-192.993,145.141,-140.869,1
5.718359,-1.446,0.631,-0.128,-199.523,140.869,-143.127,1
5.729138,-1.52,0.609,-0.11,-212.829,137.756,-145.202,1
5.736488,-1.278,0.552,-0.086,-235.229,135.192,-148.315,1
5.744908,-1.264,0.49,-0.083,-272.094,133.605,-150.512,1
5.751693,-1.306,0.529,-0.051,-297.973,132.385,-152.771,1
5.761795,-1.178,0.542,-0.036,-306.823,127.136,-156.86,1
5.768641,-1.062,0.482,-0.037,-305.114,122.009,-159.301,1
5.776704,-1.073,0.454,-0.046,-296.325,115.966,-160.461,1
5.784739,-1.1,0.426,-0.069,-279.174,109.191,-161.01,1
5.793847,-1.149,0.397,-0.066,-252.014,101.257,-159.484,1
5.80257,-1.265,0.407,-0.057,-218.383,94.787,-157.409,1
5.809861,-1.233,0.388,-0.058,-171.813,88.256,-154.785,1
5.818185,-1.024,0.291,-0.063,-137.268,83.374,-151.245,1
5.827318,-0.925,0.225,-0.075,-122.436,80.871,-146.484,1
5.834295,-0.892,0.174,-0.102,-121.887,78.43,-140.441,1
5.843348,-0.864,0.141,-0.101,-134.155,77.575,-134.887,1
5.851234,-0.757,0.115,-0.111,-156.127,76.721,-128.601,1
5.86074,-0.636,0.133,-0.146,-174.438,75.744,-123.107,1
5.868644,-0.632,0.185,-0.166,-186.95,71.899,-117.553,1
5.875721,-0.65,0.254,-0.186,-181.579,67.443,-113.403,1
5.884237,-0.625,0.272,-0.224,-165.588,60.974,-110.778,1
5.893136,-0.522,0.274,-0.256,-143.92,54.565,-107.299,1
5.901619,-0.437,0.297,-0.313,-119.323,47.058,-103.698,1
5.909664,-0.458,0.335,-0.343,-83.435,36.621,-98.999,1
5.916984,-0.416,0.351,-0.361,-41.442,26.733,-94.238,1
5.927657,-0.284,0.371,-0.379,-7.385,18.859,-90.026,1
5.93468,-0.198,0.435,-0.38,29.968,9.948,-84.35,1
5.944324,-0.225,0.533,-0.391,54.199,4.638,-81.42,1
5.951925,-0.195,0.597,-0.441,74.401,0.122,-80.627,1
5.96064,-0.183,0.604,-0.484,72.937,-3.356,-80.444,1
5.969207,-0.151,0.628,-0.521,45.715,-4.699,-79.65,1
5.976587,-0.12,0.682,-0.524,15.319,-6.225,-79.772,1
5.985014,-0.151,0.743,-0.512,-22.399,-6.774,-80.566,1
5.993788,-0.09,0.807,-0.485,-51.818,-8.117,-81.42,1
6.00139,-0.058,0.876,-0.448,-74.218,-8.972,-82.458,1
6.007788,-0.026,0.98,-0.412,-85.632,-10.62,-83.862,1
6.015268,-0.008,1.057,-0.383,-82.763,-13.366,-86.242,1
6.02301,0.007,1.13,-0.333,-65.185,-16.54,-88.5,1
6.030086,0.033,1.196,-0.306,-34.973,-20.324,-91.186,1
6.038109,0.041,1.248,-0.274,7.751,-24.353,-93.688,1
6.046672,0.033,1.268,-0.267,53.955,-27.893,-95.825,1
6.056198,0.01,1.243,-0.285,88.378,-30.578,-98.266,1
6.062055,-0.021,1.183,-0.294,95.52,-30.395,-99.67,1
6.072899,-0.031,1.148,-0.301,75.805,-28.32,-100.83,1
6.082382,-0.042,1.146,-0.281,26.977,-23.376,-102.478,1
6.089268,0.088,1.191,-0.33,-19.47,-15.869,-104.37,1
6.097878,0.053,1.21,-0.241,-56.701,-18.615,-105.895,1
6.105566,0.21,1.305,-0.325,-60.302,-8.239,-106.567,1
6.11445,0.073,1.37,-0.197,-48.767,-20.507,-109.863,1
6.122843,0.174,1.367,-0.231,-0.427,-11.352,-110.168,1
6.129936,0.069,1.312,-0.238,26.55,-23.681,-113.403,1
6.13997,0.038,1.227,-0.156,55.297,-15.38,-113.22,1
6.147021,0.077,1.171,-0.285,52.307,-19.775,-114.868,1
6.153765,-0.027,1.118,-0.186,33.813,-14.404,-115.112,1
6.162716,0.04,1.105,-0.277,0.915,-12.695,-116.088,1
6.170105,0.04,1.099,-0.171,-17.761,-11.108,-117.065,1
6.178901,0.075,1.112,-0.229,-28.747,-8.728,-118.347,1
6.188343,0.02,1.131,-0.187,-34.301,-10.375,-120.117,1
6.195553,0.049,1.142,-0.198,-31.188,-9.765,-120.849,1
6.204735,0.055,1.165,-0.157,-19.226,-12.512,-122.192,1
6.212695,0.071,1.201,-0.131,5.187,-12.573,-123.107,1
6.221348,0.12,1.224,-0.108,38.33,-15.197,-124.755,1
6.228657,0.17,1.212,-0.084,59.997,-13.305,-126.037,1
6.238,0.215,1.179,-0.086,66.284,-11.23,-128.601,1
6.245675,0.23,1.153,-0.077,56.579,-5.981,-130.859,1
6.254719,0.228,1.152,-0.087,38.024,-1.647,-133.117,1
6.261993,0.208,1.167,-0.104,9.948,3.051,-135.986,1
6.271495,0.175,1.193,-0.128,-12.634,6.042,-138.488,1
6.279346,0.187,1.215,-0.138,-27.832,7.568,-140.991,1
6.288142,0.222,1.228,-0.151,-29.724,7.629,-143.127,1
6.296562,0.249,1.239,-0.144,-15.502,6.347,-145.019,1
6.303335,0.285,1.231,-0.146,4.516,4.76,-146.606,1
6.311579,0.318,1.204,-0.145,25.573,3.723,-148.071,1
6.321034,0.345,1.159,-0.143,47.424,3.112,-149.292,1
6.330537,0.352,1.094,-0.15,57.189,3.601,-151.0,1
6.338613,0.358,1.031,-0.159,52.551,5.676,-152.343,1
6.346169,0.339,0.99,-0.164,41.198,7.812,-153.137,1
6.353914,0.312,0.967,-0.179,25.085,9.704,-154.785,1
6.361509,0.282,0.952,-0.179,14.221,11.047,-156.311,1
6.369198,0.264,0.932,-0.189,9.155,11.291,-157.836,1
6.378685,0.256,0.909,-0.187,9.704,10.925,-159.301,1
6.386546,0.248,0.875,-0.192,15.441,9.582,-160.583,1
6.396034,0.212,0.814,-0.195,21.789,8.544,-162.414,1
6.40347,0.224,0.742,-0.187,27.282,7.751,-162.963,1
6.411718,0.271,0.675,-0.192,29.663,7.568,-163.33,1
6.418464,0.306,0.618,-0.195,25.024,8.544,-163.513,1
6.427142,0.348,0.565,-0.2,14.221,10.314,-163.513,1
6.434734,0.387,0.517,-0.187,-0.244,13.061,-163.94,1
6.443992,0.409,0.483,-0.175,-9.338,14.587,-164.306,1
6.452016,0.406,0.454,-0.146,-12.084,16.113,-164.55,1
6.460705,0.384,0.399,-0.125,-9.46,17.272,-164.611,1
6.468959,0.384,0.352,-0.117,-5.31,18.676,-163.513,1
6.478213,0.415,0.307,-0.126,-4.821,20.141,-161.437,1
6.486196,0.438,0.292,-0.154,-10.498,21.728,-159.362,1
6.492588,0.424,0.301,-0.197,-24.658,22.827,-157.409,1
6.501153,0.404,0.321,-0.234,-38.879,23.193,-156.433,1
6.508594,0.401,0.331,-0.27,-52.551,22.583,-155.944,1
6.518207,0.424,0.364,-0.257,-61.279,21.301,-155.395,1
6.526363,0.479,0.388,-0.284,-54.565,18.676,-156.188,1
6.533116,0.478,0.388,-0.268,-38.757,15.441,-156.86,1
6.540772,0.509,0.369,-0.275,-17.883,12.878,-158.508,1
6.550352,0.503,0.337,-0.251,-1.77,10.498,-159.423,1
6.557444,0.521,0.272,-0.242,11.413,10.314,-159.24,1
6.56566,0.545,0.25,-0.256,12.817,10.681,-158.203,1
6.574073,0.556,0.244,-0.271,5.859,11.047,-157.409,1
6.58098,0.575,0.25,-0.275,-3.417,11.596,-156.616,1
6.59095,0.608,0.259,-0.287,-11.535,11.474,-155.212,1
6.598024,0.619,0.276,-0.305,-15.624,10.925,-154.479,1
6.605134,0.708,0.277,-0.318,-14.892,9.765,-153.808,1
6.613638,0.721,0.286,-0.353,-11.474,8.178,-153.442,1
6.621357,0.693,0.331,-0.354,2.807,5.371,-153.198,1
6.629926,0.816,0.347,-0.365,21.24,3.356,-153.503,1
6.637495,0.778,0.377,-0.41,37.414,0.854,-154.174,1
6.645002,0.671,0.423,-0.423,54.321,-1.403,-154.785,1
6.65494,0.629,0.473,-0.459,65.063,-2.868,-156.188,1
6.663916,0.604,0.49,-0.487,70.312,-4.333,-158.996,1
6.670868,0.622,0.486,-0.492,63.903,-4.821,-160.888,1
6.680178,0.802,0.551,-0.487,67.321,-6.469,-163.696,1
6.687911,0.596,0.611,-0.485,82.397,-7.263,-166.137,1
6.696997,0.494,0.68,-0.501,99.548,-11.047,-169.677,1
6.704734,0.51,0.722,-0.468,132.812,-11.901,-173.889,1
6.714283,0.505,0.708,-0.508,153.869,-13.854,-178.894,1
6.720777,0.46,0.68,-0.501,154.907,-12.145,-183.105,1
6.728702,0.387,0.652,-0.481,143.005,-10.07,-186.279,1
6.738182,0.375,0.66,-0.476,121.337,-6.286,-189.941,1
6.745597,0.384,0.689,-0.444,102.539,-3.173,-193.664,1
6.753918,0.345,0.753,-0.415,92.956,-0.61,-198.791,1
6.760752,0.302,0.773,-0.359,95.703,-0.549,-203.979,1
6.770069,0.275,0.77,-0.373,106.384,2.624,-208.862,1
6.779406,0.211,0.76,-0.311,122.497,4.333,-215.026,1
6.786768,0.19,0.681,-0.318,131.347,5.615,-219.726,1
6.794263,0.156,0.592,-0.271,130.615,11.474,-224.426,1
6.802036,0.135,0.481,-0.306,111.206,18.188,-229.125,1
6.810347,0.023,0.39,-0.324,81.298,24.291,-232.055,1
6.816504,-0.029,0.333,-0.343,52.185,29.846,-235.595,1
6.824092,-0.052,0.272,-0.366,31.677,33.752,-238.281,1
6.833373,-0.066,0.194,-0.388,23.01,37.048,-240.661,1
6.840644,-0.107,0.099,-0.414,20.568,37.963,-242.004,1
6.849624,-0.225,0.006,-0.455,18.615,39.55,-243.286,1
6.85706,-0.114,-0.029,-0.447,28.869,41.381,-244.201,1
6.866303,-0.401,-0.099,-0.475,52.856,42.175,-245.91,1
6.875023,-0.618,-0.212,-0.521,58.471,44.25,-244.812,1
6.883293,-0.658,-0.366,-0.513,38.574,52.246,-242.614,1
6.891278,-0.74,-0.554,-0.541,-19.348,61.157,-239.196,1
6.898467,-0.802,-0.651,-0.501,-74.157,67.382,-235.961,1
6.907674,-0.847,-0.754,-0.474,-114.868,70.19,-233.276,1
6.915001,-0.895,-0.84,-0.402,-137.084,70.8,-229.919,1
6.92424,-1.037,-0.915,-0.322,-126.77,67.321,-225.158,1
6.932402,-1.119,-0.842,-0.195,-56.335,65.917,-221.374,1
6.939542,-1.076,-0.993,-0.228,28.137,55.725,-219.238,1
6.948694,-1.189,-1.203,-0.083,88.684,57.922,-213.073,1
6.957615,-1.147,-1.582,-0.12,107.238,61.645,-199.462,1
6.964785,-1.154,-1.882,-0.047,89.172,74.646,-185.241,1
6.974692,-1.136,-2.148,-0.071,56.03,83.007,-168.945,1
6.982136,-1.048,-2.402,-0.03,29.357,96.679,-143.127,1
6.990973,-1.109,-2.608,-0.017,12.39,102.905,-122.375,1
6.999227,-1.069,-2.866,0.004,11.291,113.708,-94.421,1
7.007208,-1.03,-3.121,-0.036,9.155,119.567,-69.335,1
7.016408,-1.083,-3.276,-0.041,6.713,127.502,-37.658,1
7.025253,-1.21,-3.401,-0.054,9.582,134.033,-4.333,1
7.033385,-1.301,-3.462,-0.075,6.408,138.793,25.634,1
7.041286,-1.512,-3.5,-0.099,-7.629,145.446,60.546,1
7.050131,-1.711,-3.444,-0.083,-8.728,150.085,96.13,1
7.057138,-1.845,-3.378,-0.091,15.38,153.93,127.258,1
7.066363,-2.084,-3.317,-0.086,49.133,153.747,158.996,1
7.074053,-2.328,-3.27,-0.117,70.068,155.883,191.772,1
7.08294,-2.596,-3.217,-0.117,73.73,158.874,230.224,1
7.088953,-2.899,-3.169,-0.168,49.865,166.32,269.348,1
7.097529,-3.209,-3.062,-0.173,24.597,174.133,302.124,1
7.105092,-3.537,-2.898,-0.208,16.479,181.152,335.144,1
7.113055,-4.04,-2.799,-0.266,3.173,185.974,366.821,1
7.122072,-4.437,-2.622,-0.274,-22.521,198.547,399.658,1
7.129654,-4.885,-2.441,-0.354,-29.418,206.237,437.194,1
7.137951,-5.494,-2.242,-0.429,-21.972,216.491,475.341,1
7.147603,-6.083,-2.14,-0.547,-20.507,222.045,508.483,1
7.154128,-6.844,-1.995,-0.624,-29.724,233.154,547.546,1
7.163519,-7.622,-1.907,-0.729,-55.358,243.469,581.909,1
7.170434,-8.784,-1.755,-0.827,-86.975,258.605,615.356,1
7.178243,-9.828,-1.667,-0.896,-103.942,276.916,654.663,1
7.186096,-10.881,-1.606,-0.989,-110.229,294.982,689.514,1
7.195347,-12.286,-1.601,-1.158,-118.53,311.767,728.759,1
7.202333,-13.589,-1.522,-1.259,-86.853,324.707,777.343,1
7.211952,-14.973,-1.433,-1.407,-10.559,324.035,824.89,1
7.219428,-15.999,-1.359,-1.582,105.102,306.335,889.343,1
7.226782,-15.999,-1.229,-1.801,213.562,273.01,951.904,1
7.235416,-15.999,-0.949,-1.984,336.059,210.876,1030.334,1
7.24551,-15.999,-0.581,-2.107,426.33,134.887,1099.121,1
7.25316,-15.999,0.036,-2.037,542.968,18.066,1175.659,1
7.262327,-15.999,0.646,-1.904,644.103,-108.886,1230.712,1
7.269692,-15.999,1.455,-1.533,754.15,-306.396,1281.127,1
7.277654,-15.999,2.13,-1.059,809.204,-471.191,1296.691,1
7.286227,-15.999,2.802,-0.405,851.562,-670.898,1284.179,1
7.294529,-15.999,3.371,0.583,878.295,-843.139,1243.408,1
7.303986,-15.999,3.726,1.525,928.955,-1045.349,1161.377,1
7.31284,-15.999,3.785,2.533,966.674,-1213.256,1062.866,1
7.322245,-15.999,3.436,3.631,900.756,-1400.207,906.433,1
7.329349,-15.999,3.25,5.001,845.764,-1509.582,778.93,1
7.336904,-15.999,4.907,5.789,1132.934,-1588.745,594.238,1
7.345,-15.999,4.898,5.718,1438.598,-1680.053,362.487,1
7.353817,-15.999,4.808,5.481,1553.283,-1689.575,75.866,1
7.360772,-15.999,4.777,5.376,1475.585,-1644.653,-214.843,1
7.369913,-15.999,4.007,5.195,1396.118,-1500.793,-470.642,1
7.377691,-15.999,2.751,4.426,1301.94,-1317.687,-711.669,1
7.386671,-15.999,1.56,3.307,1127.38,-1086.608,-877.99,1
7.3954,-15.999,1.249,2.96,941.223,-885.131,-980.773,1
7.403023,-15.999,0.882,2.181,832.702,-720.031,-1035.583,1
7.411624,-15.999,0.592,1.813,711.669,-594.97,-1068.786,1
7.418118,-15.999,0.219,1.556,561.401,-444.03,-1078.491,1
7.426695,-15.999,-0.062,1.409,432.067,-353.332,-1069.519,1
7.434492,-15.999,-0.28,1.335,350.891,-274.108,-1046.386,1
7.443408,-15.999,-0.311,1.424,333.801,-213.012,-1011.23,1
7.452132,-15.999,-0.51,1.517,391.174,-147.827,-967.834,1
7.460818,-15.999,-0.96,1.456,455.444,-84.716,-916.381,1
7.469739,-14.992,-1.52,1.416,446.228,-20.202,-866.149,1
7.47732,-12.644,-2.177,1.215,352.294,46.63,-800.048,1
7.486645,-10.437,-2.511,0.989,265.319,92.407,-732.482,1
7.494307,-8.574,-2.765,0.833,193.359,125.671,-670.41,1
7.502966,-7.343,-2.79,0.682,152.587,147.583,-619.567,1
7.510631,-6.396,-2.541,0.577,166.259,160.949,-561.706,1
7.518598,-5.768,-2.274,0.447,238.342,170.593,-511.474,1
7.527411,-5.246,-2.134,0.224,301.452,177.795,-460.571,1
7.534906,-4.675,-1.958,0.048,330.81,189.819,-402.038,1
7.543533,-4.297,-1.749,-0.059,326.904,198.852,-353.698,1
7.55294,-3.991,-1.582,-0.124,303.771,209.594,-300.842,1
7.559598,-3.604,-1.4,-0.211,269.287,213.989,-260.62,1
7.568279,-3.295,-1.272,-0.223,227.966,217.041,-219.665,1
7.577125,-2.958,-1.146,-0.218,202.941,215.576,-189.147,1
7.585296,-2.731,-1.09,-0.183,184.326,215.026,-157.348,1
7.593918,-2.469,-1.06,-0.17,159.973,214.66,-128.784,1
7.600849,-2.235,-1.037,-0.155,131.53,214.538,-106.933,1
7.609901,-2.008,-0.973,-0.145,104.003,213.806,-87.097,1
7.61822,-1.783,-0.906,-0.125,78.918,211.853,-64.575,1
7.626887,-1.614,-0.861,-0.124,63.598,209.533,-49.682,1
7.634596,-1.444,-0.791,-0.124,49.865,205.688,-33.935,1
7.6435,-1.299,-0.749,-0.123,46.569,200.622,-21.545,1
7.652329,-1.076,-0.708,-0.121,55.541,193.542,-7.751,1
7.660475,-0.949,-0.682,-0.121,68.054,185.363,5.432,1
7.668349,-0.895,-0.643,-0.123,73.181,179.077,15.747,1
7.677061,-0.844,-0.615,-0.13,67.443,170.593,26.611,1
7.684593,-0.826,-0.592,-0.131,59.936,163.757,36.315,1
7.693494,-0.802,-0.583,-0.124,56.762,155.7,43.395,1
7.702639,-0.747,-0.591,-0.114,55.725,148.742,51.147,1
7.709824,-0.686,-0.601,-0.131,49.56,142.272,57.312,1
7.718704,-0.621,-0.6,-0.14,38.33,136.535,64.147,1
7.728151,-0.528,-0.606,-0.155,32.47,130.187,69.641,1
7.735584,-0.385,-0.593,-0.158,39.123,122.192,75.561,1
7.743894,-0.28,-0.583,-0.157,54.077,111.877,81.481,1
7.751851,-0.145,-0.584,-0.152,68.298,103.149,86.791,1
7.760996,-0.095,-0.554,-0.15,76.599,94.482,91.857,1
7.769591,-0.079,-0.508,-0.132,85.327,85.937,96.862,1
7.777294,-0.065,-0.477,-0.106,89.477,78.979,100.219,1
7.784632,-0.033,-0.442,-0.099,92.834,72.143,104.064,1
7.79351,0.02,-0.41,-0.096,93.139,65.734,106.384,1
7.800742,0.065,-0.367,-0.099,90.881,58.288,109.741,1
7.809618,0.139,-0.334,-0.081,86.914,51.635,111.938,1
7.817398,0.244,-0.278,-0.057,83.923,44.067,114.562,1
7.826046,0.296,-0.243,-0.027,82.519,38.33,115.966,1
7.835273,0.368,-0.202,-0.003,85.266,31.372,117.126,1
7.843386,0.426,-0.18,0.031,91.308,25.024,117.98,1
7.851145,0.504,-0.157,0.059,103.149,18.981,118.835,1
7.857851,0.616,-0.142,0.085,123.352,11.596,119.445,1
7.866308,0.728,-0.138,0.099,144.042,5.554,120.056,1
7.873334,0.861,-0.146,0.111,163.818,-0.244,120.849,1
7.881502,0.962,-0.145,0.127,180.603,-5.126,121.643,1
7.8901,1.056,-0.129,0.132,194.763,-9.033,122.314,1
7.897921,1.057,-0.105,0.145,204.895,-13.244,121.948,1
7.906025,1.115,-0.041,0.121,228.027,-14.16,120.117,1
7.915118,1.112,-0.067,0.131,242.492,-19.104,117.553,1
7.921709,1.043,-0.111,0.118,247.192,-18.676,115.905,1
7.92904,1.118,-0.154,0.077,234.374,-20.019,115.417,1
7.936783,1.13,-0.147,0.122,212.524,-19.531,115.539,1
7.946291,1.065,-0.107,0.081,184.448,-19.165,115.173,1
7.953127,0.998,-0.104,0.117,142.944,-18.676,113.525,1
7.960456,0.904,-0.099,0.151,112.06,-15.014,112.182,1
7.969249,0.853,-0.098,0.149,80.078,-11.413,111.389,1
7.976214,0.849,-0.107,0.152,42.541,-5.859,110.9,1
7.983572,0.882,-0.1,0.145,7.812,-0.061,110.473,1
7.992497,0.881,-0.073,0.137,-19.958,6.042,109.436,1
8.000575,0.804,-0.045,0.108,-41.87,12.756,108.093,1
8.008429,0.739,-0.013,0.11,-43.701,16.601,107.238,1
8.01783,0.736,0.001,0.079,-29.846,17.944,107.116,1
8.024734,0.671,0.033,0.075,0.854,17.333,107.177,1
8.033572,0.672,0.036,0.05,34.973,14.221,107.666,1
8.040869,0.775,0.008,0.04,66.711,9.948,109.069,1
8.048407,0.864,-0.028,0.036,89.599,6.042,111.999,1
8.05661,0.898,-0.044,0.032,106.811,1.953,116.577,1
8.063697,0.884,-0.049,0.045,114.013,-1.22,121.459,1
8.071945,0.851,-0.049,0.06,116.821,-3.356,126.159,1
8.079507,0.813,-0.041,0.071,116.882,-4.821,130.981,1
8.088868,0.734,-0.03,0.084,114.746,-5.249,135.07,1
8.095923,0.623,0.0,0.094,111.267,-5.126,138.305,1
8.104476,0.533,0.02,0.104,108.52,-4.882,140.808,1
8.113173,0.462,0.031,0.104,108.032,-4.699,142.456,1
8.120115,0.456,0.024,0.095,108.825,-4.455,144.104,1
8.128513,0.516,-0.005,0.084,103.271,-4.699,146.728,1
8.134767,0.582,-0.035,0.089,90.515,-3.662,150.268,1
8.142224,0.606,-0.04,0.088,75.317,-2.319,154.235,1
8.150131,0.593,-0.036,0.094,61.706,-0.915,158.081,1
8.159908,0.563,-0.036,0.091,51.086,0.061,162.414,1
8.166751,0.524,-0.034,0.086,40.893,2.38,168.029,1
8.175475,0.464,-0.014,0.082,34.118,3.967,173.034,1
8.183179,0.382,0.012,0.076,28.442,5.737,177.001,1
8.190098,0.308,0.024,0.065,22.644,7.019,180.908,1
8.198726,0.231,0.04,0.053,15.075,9.033,184.204,1
8.206296,0.149,0.056,0.043,6.469,10.986,186.95,1
8.213146,0.08,0.08,0.024,-2.38,12.451,189.758,1
8.222232,0.021,0.104,0.016,-13.183,14.892,192.443,1
8.229175,-0.013,0.126,0.001,-21.545,17.15,194.702,1
8.238552,-0.051,0.147,0.0,-29.663,18.92,197.509,1
8.245623,-0.104,0.171,-0.004,-39.794,21.911,200.988,1
8.253878,-0.165,0.216,-0.008,-46.447,23.925,203.552,1
8.262814,-0.206,0.27,0.007,-46.02,26.0,206.665,1
8.270091,-0.214,0.31,0.025,-37.536,27.709,208.801,1
8.279702,-0.208,0.355,0.043,-24.353,30.456,211.425,1
8.287951,-0.194,0.397,0.024,-12.634,32.775,213.989,1
8.295783,-0.304,0.44,0.006,-19.104,36.071,215.82,1
8.304125,-0.361,0.499,0.006,-47.302,41.931,218.811,1
8.312492,-0.378,0.561,-0.008,-69.763,46.874,219.604,1
8.32003,-0.426,0.672,-0.001,-88.012,54.077,220.642,1
8.329938,-0.478,0.756,-0.029,-90.881,58.715,221.496,1
8.337684,-0.527,0.862,-0.024,-86.853,63.964,222.351,1
8.347248,-0.625,0.97,-0.07,-67.932,66.284,222.106,1
8.355151,-0.69,1.055,-0.089,-41.931,68.298,221.618,1
8.362314,-0.769,1.133,-0.122,-26.611,68.298,220.581,1
8.369785,-0.826,1.167,-0.119,-16.662,68.725,219.238,1
8.377854,-0.871,1.208,-0.159,-26.916,72.875,218.139,1
8.385734,-0.891,1.285,-0.169,-36.499,74.279,215.942,1
8.394071,-0.937,1.354,-0.176,-44.494,78.063,213.439,1
8.401135,-0.895,1.4,-0.185,-44.006,78.979,210.144,1
8.409374,-1.0,1.45,-0.178,-42.541,82.702,208.251,1
8.418216,-0.956,1.515,-0.222,-37.78,82.824,205.2,1
8.425003,-0.982,1.535,-0.193,-23.376,83.19,202.636,1
8.433777,-1.017,1.509,-0.204,-6.835,82.702,201.11,1
8.442633,-0.969,1.493,-0.208,12.084,81.726,199.707,1
8.449923,-0.985,1.479,-0.233,23.01,80.505,198.73,1
8.45769,-0.998,1.484,-0.242,18.249,80.383,197.387,1
8.466493,-0.937,1.506,-0.241,9.948,81.237,195.312,1
8.474787,-1.084,1.5,-0.24,0.488,82.214,192.626,1
8.481949,-0.994,1.509,-0.257,-10.925,83.923,190.063,1
8.490733,-0.962,1.507,-0.261,-16.296,84.167,186.462,1
8.498613,-0.94,1.484,-0.266,-16.113,84.533,182.25,1
8.506657,-0.919,1.457,-0.256,-10.07,83.801,179.016,1
8.514269,-0.947,1.445,-0.269,-8.056,84.655,176.269,1
8.521714,-0.927,1.457,-0.297,-9.277,83.557,172.851,1
8.529481,-0.94,1.473,-0.303,-12.695,83.618,168.457,1
8.536818,-0.874,1.472,-0.312,-18.127,83.374,163.024,1
8.545932,-0.914,1.44,-0.305,-24.169,84.228,159.057,1
8.55319,-0.877,1.433,-0.329,-41.198,86.669,154.296,1
8.562339,-0.808,1.428,-0.307,-54.321,87.89,148.681,1
8.570458,-0.799,1.403,-0.332,-69.519,91.43,143.493,1
8.57947,-0.768,1.424,-0.357,-88.562,93.872,137.878,1
8.58873,-0.745,1.45,-0.377,-112.609,97.839,130.126,1
8.596312,-0.78,1.455,-0.376,-122.68,99.853,123.84,1
8.606234,-0.938,1.471,-0.409,-136.657,103.21,117.004,1
8.613959,-0.854,1.479,-0.418,-138.732,102.783,110.595,1
8.620159,-0.872,1.468,-0.403,-130.432,103.576,104.248,1
8.62949,-0.866,1.442,-0.399,-115.783,102.233,97.961,1
8.636598,-0.818,1.412,-0.37,-98.449,101.074,93.566,1
8.644906,-0.769,1.388,-0.371,-80.749,100.402,89.843,1
8.652384,-0.753,1.368,-0.375,-67.81,98.876,86.425,1
8.660773,-0.764,1.346,-0.385,-60.424,98.632,82.885,1
8.668229,-0.781,1.33,-0.391,-59.753,98.327,79.772,1
8.675374,-0.807,1.312,-0.386,-61.157,98.693,76.965,1
8.6837,-0.809,1.294,-0.391,-62.744,98.693,74.218,1
8.694519,-0.803,1.271,-0.384,-62.988,99.182,71.899,1
8.70345,-0.806,1.253,-0.378,-60.546,99.182,69.702,1
8.710587,-0.818,1.235,-0.372,-55.297,99.121,67.687,1
8.71959,-0.817,1.229,-0.371,-47.607,98.999,65.979,1
8.728922,-0.852,1.24,-0.371,-36.682,98.51,64.392,1
8.736316,-0.886,1.249,-0.369,-23.986,97.351,62.561,1
8.745452,-0.935,1.243,-0.367,-11.901,96.679,61.279,1
8.754019,-0.962,1.219,-0.369,-6.713,96.252,60.18,1
8.762479,-0.971,1.201,-0.378,-9.826,97.29,59.082,1
8.771409,-0.94,1.189,-0.389,-20.874,98.144,57.678,1
8.778198,-0.95,1.185,-0.397,-41.748,99.731,55.969,1
8.786579,-0.917,1.201,-0.4,-63.903,101.501,53.283,1
8.795983,-0.959,1.233,-0.393,-75.256,103.088,51.391,1
8.803526,-0.863,1.247,-0.392,-74.279,102.05,48.4,1
8.811268,-0.789,1.254,-0.364,-52.124,100.769,44.982,1
8.819068,-0.984,1.255,-0.382,-37.048,99.792,42.968,1
8.82756,-0.854,1.248,-0.392,-20.751,96.74,39.916,1
8.838333,-0.997,1.227,-0.377,-7.934,97.29,37.536,1
8.845745,-0.831,1.185,-0.414,-10.803,94.116,33.752,1
8.855201,-0.966,1.156,-0.38,-17.7,96.374,31.249,1
8.862027,-0.863,1.113,-0.438,-36.621,94.055,27.648,1
8.869862,-0.747,1.086,-0.361,-40.71,94.604,23.925,1
8.87918,-0.871,1.041,-0.397,-49.011,95.336,21.972,1
8.886983,-0.779,1.004,-0.362,-56.03,92.102,18.859,1
8.896704,-0.853,0.963,-0.356,-55.236,93.688,16.418,1
8.903277,-0.828,0.907,-0.344,-49.438,89.294,14.404,1
8.912935,-0.839,0.878,-0.317,-40.344,90.393,13.366,1
8.920208,-0.864,0.858,-0.329,-30.517,87.219,12.145,1
8.928389,-0.81,0.804,-0.305,-22.155,87.219,11.291,1
8.936547,-0.858,0.768,-0.308,-20.812,86.181,10.925,1
8.944137,-0.817,0.679,-0.28,-22.644,85.388,10.742,1
8.954427,-0.781,0.608,-0.277,-30.029,85.754,11.474,1
8.960887,-0.714,0.561,-0.25,-38.513,86.242,11.535,1
8.970073,-0.836,0.531,-0.249,-50.231,88.439,12.817,1
8.978051,-0.901,0.525,-0.25,-65.734,88.623,13.244,1
8.9858,-0.977,0.528,-0.25,-82.885,90.881,14.038,1
8.994935,-1.016,0.543,-0.25,-92.712,91.064,13.61,1
9.00303,-1.02,0.543,-0.255,-97.778,91.308,12.878,1
9.009619,-1.005,0.529,-0.256,-98.754,90.759,11.962,1
9.018983,-0.958,0.5,-0.252,-97.961,90.209,10.864,1
9.027358,-0.896,0.439,-0.187,-106.018,90.454,13.183,1
9.036351,-0.958,0.427,-0.338,-99.853,85.51,8.117,1
9.042451,-1.001,0.421,-0.141,-96.191,86.914,8.422,1
9.050031,-0.979,0.432,-0.299,-97.167,85.144,6.896,1
9.058755,-0.989,0.387,-0.194,-100.097,83.435,5.859,1
9.069283,-1.013,0.343,-0.238,-107.238,84.96,6.896,1
9.077337,-1.008,0.304,-0.15,-119.14,85.51,10.375,1
9.086283,-1.147,0.474,-0.308,-108.52,82.763,4.333,1
9.094729,-1.202,0.396,-0.14,-95.642,77.27,2.136,1
9.103013,-1.142,0.395,-0.231,-74.584,78.674,2.929,1
9.111782,-1.128,0.424,-0.199,-51.635,73.425,0.244,1
9.119077,-1.063,0.388,-0.235,-29.541,70.007,-1.098,1
9.127196,-1.014,0.364,-0.227,-15.869,66.772,-2.075,1
9.13671,-0.976,0.335,-0.249,-9.765,63.659,-2.868,1
9.145403,-0.944,0.306,-0.24,-12.451,60.974,-3.234,1
9.152648,-0.877,0.259,-0.237,-25.085,58.593,-2.868,1
9.161936,-0.742,0.16,-0.228,-48.706,56.457,-1.403,1
9.169149,-0.666,0.151,-0.106,-80.749,61.889,4.394,1
9.178713,-0.814,0.2,-0.272,-116.088,60.241,5.187,1
9.185391,-0.998,0.195,-0.175,-135.803,57.861,4.089,1
9.195556,-1.06,0.184,-0.195,-151.428,57.434,5.859,1
9.202267,-1.113,0.257,-0.163,-156.188,57.556,6.652,1
9.211307,-1.165,0.299,-0.2,-149.047,53.955,5.676,1
9.219642,-1.222,0.322,-0.206,-129.333,49.804,3.417,1
9.226477,-1.167,0.299,-0.163,-103.332,44.311,3.173,1
9.235399,-1.045,0.288,-0.176,-73.791,41.625,4.089,1
9.243833,-0.951,0.286,-0.178,-49.255,36.743,4.394,1
9.253514,-0.859,0.263,-0.187,-25.695,31.982,5.371,1
9.261451,-0.81,0.235,-0.175,-10.07,27.465,7.751,1
9.272258,-0.803,0.233,-0.186,-2.685,24.536,9.887,1
9.280616,-0.814,0.253,-0.203,4.211,20.507,11.962,1
9.28826,-0.819,0.269,-0.198,15.686,15.624,14.404,1
9.296599,-0.829,0.279,-0.207,25.573,12.145,16.235,1
9.304102,-0.798,0.287,-0.214,34.057,8.3,17.395,1
9.311463,-0.82,0.303,-0.218,40.71,5.126,19.165,1
9.319493,-0.801,0.297,-0.234,45.166,1.403,19.836,1
9.327908,-0.814,0.304,-0.226,47.18,-1.77,21.057,1
9.33429,-0.831,0.298,-0.229,45.715,-4.394,21.972,1
9.343182,-0.85,0.289,-0.219,39.489,-6.652,23.315,1
9.350258,-0.855,0.285,-0.227,28.808,-8.239,24.658,1
9.359621,-0.864,0.288,-0.22,15.258,-9.887,26.062,1
9.367176,-0.864,0.291,-0.219,0.244,-11.352,27.893,1
9.376671,-0.855,0.313,-0.211,-10.498,-13.183,29.357,1
9.385764,-0.837,0.318,-0.201,-15.624,-15.38,30.944,1
9.392677,-0.83,0.325,-0.19,-17.333,-16.906,32.104,1
9.402534,-0.835,0.328,-0.183,-17.089,-18.676,33.386,1
9.409895,-0.814,0.331,-0.167,-16.174,-20.385,35.034,1
9.418539,-0.83,0.331,-0.179,-12.939,-21.545,36.254,1
9.426888,-0.868,0.356,-0.193,-9.46,-22.949,36.56,1
9.434035,-0.889,0.364,-0.191,-7.263,-25.085,37.597,1
9.443073,-0.875,0.36,-0.205,-5.432,-26.245,38.574,1
9.453194,-0.736,0.157,-0.156,-23.254,-27.282,44.067,1
9.460085,-0.787,0.262,-0.216,-37.475,-21.057,49.438,1
9.467729,-1.046,0.433,-0.291,-37.597,-29.479,45.715,1
9.476657,-1.134,0.433,-0.212,-26.062,-32.409,44.372,1
9.484479,-1.206,0.474,-0.227,-6.042,-31.555,44.494,1
9.49357,-1.163,0.467,-0.248,8.605,-37.719,42.785,1
9.502746,-1.043,0.416,-0.218,24.841,-38.879,43.029,1
9.510834,-0.99,0.406,-0.243,26.916,-41.259,42.724,1
9.518606,-1.025,0.405,-0.233,24.963,-42.114,43.029,1
9.527929,-1.075,0.412,-0.252,21.179,-43.395,42.846,1
9.53506,-1.084,0.422,-0.249,19.226,-44.86,42.297,1
9.543956,-1.075,0.409,-0.226,22.583,-46.63,41.931,1
9.553061,-1.142,0.424,-0.255,26.611,-46.813,42.053,1
9.560584,-1.197,0.417,-0.233,29.663,-49.133,41.625,1
9.569251,-1.231,0.419,-0.253,32.531,-49.377,41.809,1
9.578431,-1.228,0.412,-0.245,34.301,-51.147,41.748,1
9.585718,-1.211,0.399,-0.229,37.78,-52.185,41.625,1
9.592428,-1.203,0.392,-0.229,40.283,-52.185,41.87,1
9.601806,-1.202,0.378,-0.225,40.405,-52.429,41.87,1
9.609064,-1.184,0.365,-0.222,38.33,-52.307,42.297,1
9.617335,-1.154,0.349,-0.217,34.179,-52.185,43.029,1
9.62579,-1.11,0.348,-0.209,32.653,-52.307,43.579,1
9.632566,-1.105,0.345,-0.2,32.226,-51.696,44.25,1
9.641357,-1.076,0.34,-0.204,31.433,-51.879,44.86,1
9.649738,-1.03,0.343,-0.188,31.372,-52.246,45.593,1
9.657032,-0.967,0.348,-0.174,33.264,-51.757,46.203,1
9.666616,-0.938,0.358,-0.16,38.879,-52.062,46.752,1
9.674195,-0.899,0.37,-0.146,48.889,-52.734,46.813,1
9.68144,-0.885,0.346,-0.129,61.706,-52.49,46.936,1
9.690019,-0.875,0.359,-0.124,70.922,-53.039,46.325,1
9.698878,-0.847,0.336,-0.109,79.284,-52.246,45.959,1
9.705884,-0.822,0.327,-0.111,83.312,-51.33,45.349,1
9.714914,-0.708,0.171,-0.031,71.899,-50.781,48.217,1
9.722076,-0.715,0.246,-0.082,62.438,-42.053,49.926,1
9.730742,-0.844,0.34,-0.082,60.852,-44.921,47.119,1
9.738036,-0.954,0.36,-0.086,67.138,-41.259,44.677,1
9.746149,-0.893,0.357,-0.075,72.143,-42.48,41.198,1
9.755669,-0.904,0.291,-0.076,73.181,-37.231,41.32,1
9.763433,-0.921,0.3,-0.095,71.228,-37.963,39.794,1
9.770033,-0.978,0.302,-0.086,73.669,-35.644,39.123,1
9.77852,-1.033,0.341,-0.094,76.049,-35.4,37.902,1
9.785692,-1.05,0.367,-0.085,83.923,-34.301,35.766,1
9.792838,-1.023,0.359,-0.112,92.651,-34.667,33.996,1
9.800839,-0.983,0.347,-0.103,99.731,-35.4,32.897,1
9.80956,-0.933,0.333,-0.104,105.102,-34.729,32.348,1
9.818778,-0.91,0.334,-0.114,107.177,-34.973,31.982,1
9.828037,-0.907,0.346,-0.114,109.802,-34.606,31.311,1
9.834919,-0.927,0.349,-0.124,113.708,-34.484,30.639,1
9.844024,-0.957,0.358,-0.13,117.858,-34.606,30.273,1
9.850964,-0.982,0.357,-0.139,120.605,-35.095,29.357,1
9.860016,-0.975,0.345,-0.138,121.215,-34.912,28.442,1
9.866979,-0.897,0.278,-0.129,109.985,-33.813,30.822,1
9.875902,-0.89,0.307,-0.13,94.543,-32.287,31.311,1
9.882944,-0.882,0.3,-0.123,80.688,-31.005,31.982,1
9.893006,-0.881,0.265,-0.113,63.293,-29.296,33.02,1
9.900531,-0.893,0.256,-0.096,44.311,-26.672,33.874,1
9.910656,-0.926,0.26,-0.095,24.658,-23.376,34.545,1
9.919738,-1.011,0.282,-0.081,7.751,-19.653,34.667,1
9.927681,-1.077,0.307,-0.087,-6.774,-16.967,34.057,1
9.936678,-1.079,0.336,-0.079,-15.441,-13.977,32.592,1
9.943542,-1.021,0.349,-0.077,-17.822,-11.657,31.249,1
9.952178,-0.943,0.364,-0.07,-15.38,-9.948,29.785,1
9.960724,-0.88,0.377,-0.072,-5.859,-8.3,27.709,1
9.968113,-0.832,0.393,-0.071,7.568,-7.629,25.573,1
9.976656,-0.788,0.389,-0.081,26.245,-7.385,23.437,1
9.98601,-0.795,0.375,-0.1,42.541,-7.507,21.972,1
9.994836,-0.834,0.37,-0.114,54.321,-7.812,20.507,1
