timestamp_s,ax,ay,az,gx,gy,gz,label
0.00638,-0.762,-0.057,0.01,97.656,-41.198,-52.001,1
0.014757,-0.425,-0.12,0.051,105.285,-34.667,-38.696,1
0.021279,-0.125,-0.134,-0.018,108.581,-25.695,-24.902,1
0.028958,0.024,-0.128,-0.146,96.069,-22.705,-13.427,1
0.036968,0.056,-0.051,-0.231,65.551,-23.254,-4.089,1
0.044977,-0.005,0.071,-0.265,21.301,-20.812,5.981,1
0.052892,-0.075,0.331,-0.359,-39.184,-21.118,13.854,1
0.060488,-0.223,0.621,-0.359,-78.063,-22.644,16.723,1
0.068593,-0.356,0.902,-0.379,-87.585,-24.841,17.395,1
0.076341,-0.413,1.143,-0.376,-63.293,-30.7,15.869,1
0.083153,-0.418,1.315,-0.385,-13.793,-36.56,12.634,1
0.091086,-0.415,1.428,-0.412,42.114,-44.433,8.3,1
0.099475,-0.372,1.485,-0.433,91.979,-50.537,3.173,1
0.10607,-0.343,1.517,-0.46,125.549,-56.518,-2.685,1
0.113613,-0.34,1.534,-0.457,139.343,-59.509,-8.605,1
0.120973,-0.343,1.509,-0.457,132.385,-60.791,-14.709,1
0.129103,-0.303,1.502,-0.421,113.647,-60.058,-20.69,1
0.137139,-0.252,1.467,-0.39,88.195,-57.739,-25.756,1
0.144574,-0.182,1.453,-0.359,57.617,-56.03,-30.151,1
0.152976,-0.162,1.466,-0.325,33.935,-53.039,-35.156,1
0.161099,-0.174,1.481,-0.324,21.606,-51.757,-39.489,1
0.168051,-0.183,1.479,-0.331,9.826,-50.476,-43.334,1
0.17623,-0.204,1.491,-0.358,-5.676,-50.048,-47.912,1
0.183328,-0.257,1.509,-0.371,-17.089,-50.231,-51.391,1
0.191609,-0.298,1.543,-0.379,-19.47,-51.757,-54.626,1
0.199764,-0.297,1.572,-0.371,-9.582,-54.199,-57.922,1
0.207696,-0.291,1.577,-0.374,7.568,-56.762,-61.34,1
0.216114,-0.289,1.58,-0.376,27.77,-60.119,-65.185,1
0.222954,-0.281,1.577,-0.387,41.381,-62.194,-68.176,1
0.231085,-0.288,1.57,-0.4,45.898,-62.988,-71.716,1
0.239006,-0.3,1.578,-0.42,39.245,-62.927,-75.256,1
0.245445,-0.324,1.586,-0.442,23.742,-62.622,-79.04,1
0.253655,-0.344,1.604,-0.454,6.835,-62.377,-82.763,1
0.26062,-0.362,1.621,-0.463,-7.873,-62.499,-86.547,1
0.269122,-0.375,1.638,-0.454,-14.221,-63.659,-89.599,1
0.277385,-0.377,1.659,-0.45,-11.962,-65.185,-92.895,1
0.284911,-0.372,1.673,-0.44,-3.845,-67.138,-95.825,1
0.293618,-0.38,1.688,-0.445,6.896,-68.908,-99.243,1
0.301069,-0.377,1.69,-0.436,14.16,-70.129,-102.539,1
0.30981,-0.363,1.691,-0.429,19.47,-70.556,-105.59,1
0.316445,-0.352,1.687,-0.447,19.104,-70.922,-109.191,1
0.324299,-0.367,1.686,-0.45,13.854,-70.678,-112.548,1
0.332658,-0.362,1.702,-0.462,3.723,-70.129,-115.417,1
0.3397,-0.371,1.715,-0.479,-13.061,-69.641,-118.713,1
0.34694,-0.379,1.751,-0.476,-29.907,-69.396,-122.192,1
0.355772,-0.395,1.777,-0.479,-44.799,-69.763,-125.854,1
0.362554,-0.408,1.799,-0.481,-57.067,-69.946,-129.089,1
0.370507,-0.428,1.794,-0.501,-68.603,-71.289,-131.896,1
0.377512,-0.384,1.842,-0.458,-67.749,-73.852,-135.131,1
0.385853,-0.387,1.836,-0.462,-57.8,-74.89,-137.573,1
0.392805,-0.383,1.857,-0.463,-45.349,-78.735,-141.235,1
0.400721,-0.403,1.854,-0.441,-33.203,-78.857,-144.165,1
0.407704,-0.384,1.841,-0.472,-36.621,-80.383,-147.644,1
0.415531,-0.399,1.83,-0.438,-51.635,-79.162,-151.0,1
0.423465,-0.452,1.824,-0.44,-69.091,-77.514,-154.968,1
0.431793,-0.525,1.736,-0.518,-90.332,-76.965,-158.386,1
0.438469,-0.491,1.793,-0.409,-115.905,-76.538,-162.475,1
0.446488,-0.534,1.757,-0.455,-118.591,-75.195,-165.71,1
0.45335,-0.556,1.737,-0.397,-129.15,-79.711,-169.555,1
0.462125,-0.539,1.693,-0.355,-125.732,-77.453,-171.264,1
0.470578,-0.528,1.69,-0.38,-128.723,-81.604,-174.987,1
0.478542,-0.593,1.696,-0.455,-129.699,-75.012,-176.513,1
0.486786,-0.517,1.592,-0.558,-164.062,-83.374,-180.725,1
0.495028,-0.554,1.526,-0.505,-192.626,-75.927,-181.762,1
0.503809,-0.64,1.502,-0.605,-218.872,-81.97,-183.776,1
0.512242,-0.716,1.498,-0.554,-231.079,-80.749,-183.166,1
0.521002,-0.679,1.501,-0.627,-222.412,-89.05,-183.227,1
0.528012,-0.625,1.465,-0.602,-193.908,-93.139,-182.8,1
0.536864,-0.593,1.423,-0.665,-171.997,-100.463,-182.617,1
0.5438,-0.577,1.4,-0.665,-156.127,-104.858,-181.945,1
0.552609,-0.545,1.381,-0.719,-143.981,-111.572,-181.03,1
0.561044,-0.534,1.374,-0.719,-132.568,-117.248,-179.87,1
0.568175,-0.509,1.348,-0.745,-116.943,-123.291,-178.649,1
0.576488,-0.57,1.302,-0.748,-98.327,-130.004,-177.246,1
0.583576,-0.522,1.239,-0.735,-74.646,-137.39,-175.598,1
0.591916,-0.441,1.159,-0.694,-56.152,-142.883,-174.133,1
0.598974,-0.412,1.075,-0.628,-37.902,-147.949,-173.4,1
0.607549,-0.439,0.983,-0.563,-26.367,-150.024,-172.241,1
0.615866,-0.423,0.887,-0.509,-35.339,-150.085,-171.813,1
0.624125,-0.416,0.814,-0.42,-57.678,-148.986,-171.203,1
0.632273,-0.437,0.783,-0.314,-84.167,-147.094,-171.081,1
0.641713,-0.455,0.754,-0.191,-102.294,-145.263,-170.776,1
0.648751,-0.45,0.727,-0.087,-109.558,-144.47,-170.898,1
0.656303,-0.455,0.668,0.034,-111.022,-143.615,-170.837,1
0.66412,-0.403,0.603,0.115,-110.534,-142.761,-171.081,1
0.67254,-0.34,0.531,0.209,-110.412,-141.357,-170.898,1
0.680339,-0.287,0.432,0.296,-110.961,-139.648,-169.921,1
0.688547,-0.201,0.321,0.408,-112.243,-136.596,-167.785,1
0.697401,-0.162,0.239,0.492,-115.783,-133.422,-165.039,1
0.705899,-0.07,0.208,0.568,-117.614,-128.723,-161.743,1
0.714066,-0.078,0.171,0.605,-119.873,-125.549,-158.569,1
0.720678,-0.062,0.122,0.633,-122.314,-121.643,-155.517,1
0.728979,-0.068,0.096,0.655,-124.877,-117.797,-151.123,1
0.737392,-0.076,0.103,0.644,-121.215,-114.013,-146.972,1
0.746213,-0.067,0.117,0.608,-113.586,-112.121,-143.737,1
0.752896,-0.054,0.137,0.557,-98.022,-109.68,-140.808,1
0.761593,-0.076,0.141,0.506,-87.097,-108.825,-138.183,1
0.769644,-0.129,0.154,0.434,-85.083,-107.177,-136.352,1
0.777687,-0.183,0.166,0.333,-99.792,-106.872,-135.07,1
0.784507,-0.194,0.186,0.286,-114.318,-106.75,-133.422,1
0.794648,-0.212,0.227,0.215,-114.257,-109.252,-132.934,1
0.801347,-0.292,0.24,0.149,-97.106,-114.074,-133.544,1
0.809274,-0.407,0.196,0.12,-85.388,-116.76,-134.521,1
0.817413,-0.443,0.091,0.048,-93.017,-118.896,-135.62,1
0.82535,-0.475,0.0,0.004,-115.051,-121.52,-136.108,1
0.83179,-0.492,-0.066,-0.014,-134.643,-124.389,-135.925,1
0.83953,-0.55,-0.145,-0.038,-146.057,-129.028,-134.399,1
0.848312,-0.599,-0.22,-0.058,-148.986,-134.948,-132.812,1
0.85493,-0.666,-0.314,-0.055,-144.47,-141.296,-131.103,1
0.863775,-0.703,-0.422,-0.045,-142.333,-146.85,-127.563,1
0.870335,-0.74,-0.507,-0.076,-143.798,-152.465,-123.474,1
0.878888,-0.801,-0.584,-0.094,-145.69,-158.386,-118.53,1
0.885483,-0.865,-0.659,-0.129,-147.277,-164.611,-112.854,1
0.893594,-0.932,-0.744,-0.181,-157.653,-171.874,-105.651,1
0.901427,-1.023,-0.791,-0.204,-168.09,-177.673,-96.984,1
0.908482,-1.091,-0.794,-0.248,-164.489,-186.035,-88.012,1
0.916289,-1.199,-0.819,-0.264,-144.836,-195.861,-78.674,1
0.924563,-1.294,-0.842,-0.266,-113.281,-207.214,-69.335,1
0.932953,-1.39,-0.918,-0.256,-80.322,-220.214,-58.471,1
0.941928,-1.531,-0.946,-0.26,-59.936,-230.285,-50.292,1
0.949626,-1.699,-1.028,-0.279,-46.997,-242.736,-39.672,1
0.957646,-1.779,-1.094,-0.29,-45.227,-251.953,-29.296,1
0.965877,-1.914,-1.156,-0.296,-47.912,-263.183,-17.639,1
0.973725,-2.057,-1.236,-0.312,-66.162,-274.78,-2.685,1
0.980388,-2.33,-1.239,-0.295,-91.186,-285.4,11.657,1
0.988682,-2.416,-1.229,-0.223,-103.881,-295.837,27.893,1
0.996616,-2.593,-1.306,-0.213,-128.967,-305.053,46.936,1
1.004891,-2.825,-1.355,-0.145,-178.222,-311.767,69.091,1
1.012787,-2.913,-1.3,-0.023,-212.768,-318.969,98.449,1
1.021097,-3.209,-1.251,0.09,-222.045,-325.073,125.305,1
1.029925,-3.353,-1.264,0.23,-216.979,-331.481,158.752,1
1.036798,-3.573,-1.211,0.348,-217.651,-335.266,187.133,1
1.044308,-3.843,-1.187,0.454,-223.022,-337.585,216.735,1
1.052907,-3.974,-1.156,0.551,-233.581,-336.12,247.924,1
1.061026,-4.396,-1.149,0.688,-266.113,-332.458,282.287,1
1.067792,-4.714,-1.001,0.729,-304.199,-320.739,323.974,1
1.076122,-5.096,-0.875,0.864,-311.828,-314.209,360.9,1
1.084716,-5.158,-1.08,1.016,-359.497,-292.48,411.987,1
1.093678,-5.532,-0.995,1.088,-404.602,-271.362,455.627,1
1.100305,-6.101,-0.791,1.377,-410.888,-246.582,499.389,1
1.108685,-6.664,-0.662,1.515,-366.577,-219.97,546.569,1
1.115625,-7.174,-0.584,1.735,-314.331,-197.082,583.19,1
1.123858,-7.66,-0.576,1.846,-279.663,-172.546,617.065,1
1.131723,-8.385,-0.536,1.908,-284.057,-143.188,650.756,1
1.139548,-9.117,-0.418,1.842,-322.387,-108.886,684.997,1
1.147595,-10.071,-0.151,1.797,-369.14,-68.298,719.116,1
1.154645,-10.825,0.136,1.722,-392.028,-19.104,757.324,1
1.163012,-11.582,0.44,1.658,-367.614,19.836,786.987,1
1.170875,-12.29,0.732,1.563,-324.768,53.161,811.706,1
1.178589,-12.883,0.995,1.496,-274.414,81.298,832.336,1
1.185191,-13.37,1.233,1.44,-226.867,105.773,849.06,1
1.193447,-13.858,1.442,1.41,-192.504,128.784,862.792,1
1.200104,-14.373,1.626,1.377,-181.823,154.479,873.596,1
1.207612,-15.27,1.855,1.355,-207.031,185.974,882.568,1
1.215891,-15.871,2.09,1.308,-243.164,226.989,885.559,1
1.222974,-15.996,2.278,1.207,-292.663,272.277,884.399,1
1.23068,-15.999,2.391,1.052,-327.758,321.716,879.577,1
1.239201,-15.999,2.448,0.806,-386.474,372.497,868.286,1
1.246886,-15.999,2.526,0.671,-467.651,432.8,849.304,1
1.25404,-15.999,2.629,0.479,-543.212,502.014,821.777,1
1.261682,-15.999,2.705,0.247,-599.182,573.181,786.498,1
1.268539,-15.999,2.94,0.108,-588.745,635.925,745.117,1
1.277029,-15.999,2.729,-0.173,-577.575,697.021,703.979,1
1.28405,-15.999,2.549,-0.464,-646.545,748.535,657.47,1
1.292635,-15.999,2.479,-0.622,-735.229,813.842,597.717,1
1.299371,-15.999,2.383,-1.049,-843.566,862.121,520.019,1
1.307279,-15.999,2.246,-1.384,-940.49,913.207,425.964,1
1.314205,-15.999,2.211,-1.809,-1019.897,943.664,316.223,1
1.32257,-15.999,2.171,-2.022,-1078.796,961.486,195.19,1
1.329173,-15.273,1.961,-2.258,-1119.69,956.603,70.007,1
1.338679,-13.872,1.651,-2.408,-1133.667,931.64,-52.856,1
1.345049,-12.432,1.236,-2.457,-1136.108,882.385,-166.259,1
1.353312,-11.082,0.994,-2.103,-1105.957,814.086,-265.625,1
1.360456,-9.953,0.905,-1.747,-948.913,721.313,-352.233,1
1.368599,-8.884,0.777,-1.461,-727.905,634.033,-398.681,1
1.376697,-7.781,0.512,-1.304,-484.741,557.678,-421.569,1
1.385008,-6.915,0.093,-1.387,-276.55,488.464,-425.537,1
1.392658,-6.467,-0.14,-1.563,-193.847,444.763,-418.762,1
1.401258,-6.116,-0.239,-1.726,-162.353,406.616,-410.095,1
1.408252,-5.751,-0.305,-1.818,-154.907,374.816,-403.564,1
1.416248,-5.443,-0.478,-1.932,-189.575,346.496,-398.62,1
1.425024,-5.211,-0.652,-2.002,-260.253,325.317,-397.338,1
1.432913,-4.754,-0.865,-2.019,-355.468,303.649,-397.216,1
1.441233,-4.434,-0.995,-1.954,-441.589,277.16,-396.606,1
1.448031,-3.986,-1.036,-1.813,-473.266,236.938,-393.249,1
1.456453,-3.608,-1.048,-1.687,-422.485,195.861,-386.779,1
1.464676,-3.359,-1.066,-1.595,-316.406,153.503,-376.953,1
1.471353,-3.113,-1.146,-1.542,-195.19,116.699,-364.135,1
1.480826,-3.044,-1.294,-1.589,-124.267,90.026,-350.158,1
1.48757,-2.713,-1.441,-1.626,-101.989,64.392,-332.092,1
1.495646,-2.471,-1.463,-1.536,-85.937,48.583,-316.589,1
1.504096,-2.142,-1.521,-1.49,-73.059,34.729,-301.391,1
1.510498,-1.892,-1.558,-1.416,-69.763,21.545,-283.874,1
1.518453,-1.698,-1.56,-1.345,-75.561,14.526,-271.301,1
1.526916,-1.487,-1.608,-1.32,-92.468,6.408,-255.676,1
1.534878,-1.351,-1.558,-1.251,-109.985,-1.77,-237.792,1
1.542649,-1.208,-1.529,-1.205,-100.952,-12.207,-222.473,1
1.551331,-1.078,-1.511,-1.128,-63.964,-24.169,-205.261,1
1.559503,-0.962,-1.547,-1.112,-33.569,-33.142,-190.856,1
1.566218,-0.89,-1.54,-1.069,-14.282,-39.428,-177.307,1
1.575369,-0.814,-1.584,-1.028,-10.498,-44.128,-162.841,1
1.58347,-0.759,-1.563,-0.999,-11.596,-47.119,-147.033,1
1.590265,-0.683,-1.554,-0.963,-15.502,-49.438,-133.85,1
1.598996,-0.613,-1.51,-0.935,-20.385,-50.781,-121.154,1
1.605963,-0.52,-1.453,-0.916,-27.832,-52.734,-106.872,1
1.615644,-0.478,-1.391,-0.903,-35.339,-53.71,-94.97,1
1.622425,-0.406,-1.301,-0.892,-40.405,-55.419,-84.35,1
1.63043,-0.361,-1.229,-0.865,-38.024,-57.861,-72.448,1
1.638891,-0.307,-1.166,-0.848,-34.484,-60.119,-63.293,1
1.646619,-0.241,-1.088,-0.822,-32.348,-61.645,-53.344,1
1.654886,-0.202,-1.027,-0.824,-33.203,-62.744,-45.654,1
1.662656,-0.177,-0.954,-0.824,-34.118,-64.086,-38.635,1
1.670877,-0.097,-0.894,-0.848,-35.583,-65.002,-31.494,1
1.678553,-0.08,-0.856,-0.872,-48.4,-66.528,-25.939,1
1.685484,-0.038,-0.808,-0.87,-60.729,-67.077,-21.057,1
1.693435,0.024,-0.745,-0.855,-60.241,-69.091,-16.418,1
1.701401,0.058,-0.709,-0.833,-49.926,-71.96,-12.084,1
1.708352,0.113,-0.701,-0.818,-37.353,-74.951,-7.507,1
1.717126,0.168,-0.71,-0.786,-26.794,-78.063,-3.479,1
1.725876,0.221,-0.719,-0.728,-19.897,-78.491,1.525,1
1.732565,0.278,-0.716,-0.695,-20.69,-78.735,5.737,1
1.741065,0.328,-0.701,-0.656,-24.353,-78.002,10.498,1
1.749372,0.344,-0.66,-0.628,-28.564,-77.514,14.77,1
1.756056,0.372,-0.616,-0.576,-29.479,-76.843,18.859,1
1.76487,0.403,-0.578,-0.516,-30.151,-75.378,23.559,1
1.771517,0.43,-0.555,-0.464,-33.691,-73.181,27.099,1
1.779711,0.458,-0.527,-0.417,-39.55,-70.495,30.456,1
1.786856,0.488,-0.511,-0.369,-45.776,-67.565,33.996,1
1.796067,0.507,-0.489,-0.328,-50.476,-64.88,37.658,1
1.802833,0.552,-0.46,-0.285,-52.49,-62.194,41.076,1
1.81106,0.577,-0.421,-0.255,-49.865,-59.387,45.043,1
1.819843,0.596,-0.397,-0.235,-45.959,-57.067,47.851,1
1.826537,0.618,-0.378,-0.214,-44.494,-54.748,50.903,1
1.83477,0.651,-0.355,-0.196,-44.738,-52.429,53.466,1
1.844333,0.679,-0.33,-0.171,-43.334,-50.17,55.969,1
1.852618,0.706,-0.299,-0.148,-41.687,-47.79,58.776,1
1.860326,0.716,-0.262,-0.139,-41.625,-45.349,60.791,1
1.866836,0.709,-0.226,-0.143,-42.297,-43.212,62.377,1
1.875592,0.699,-0.179,-0.137,-43.457,-40.893,64.147,1
1.882349,0.693,-0.152,-0.145,-45.227,-38.879,65.246,1
1.891846,0.685,-0.129,-0.147,-48.034,-35.949,66.65,1
1.898619,0.695,-0.107,-0.157,-50.231,-33.508,67.993,1
1.907024,0.706,-0.073,-0.165,-51.086,-30.883,68.908,1
1.915415,0.721,-0.046,-0.179,-52.856,-28.808,70.007,1
1.922497,0.73,-0.024,-0.185,-55.175,-26.123,71.166,1
1.930966,0.737,-0.006,-0.2,-57.739,-24.23,71.411,1
1.937065,0.745,0.015,-0.206,-61.645,-21.911,72.082,1
1.945301,0.744,0.028,-0.222,-66.528,-19.897,72.57,1
1.953703,0.775,0.041,-0.231,-70.19,-18.005,73.12,1
1.960589,0.784,0.062,-0.241,-71.35,-16.418,73.669,1
1.968983,0.77,0.082,-0.242,-71.35,-14.648,73.73,1
1.977449,0.764,0.084,-0.252,-72.265,-12.512,74.096,1
1.984116,0.759,0.084,-0.258,-74.89,-10.314,74.707,1
1.99219,0.766,0.094,-0.278,-77.209,-8.3,75.378,1
2.000772,0.769,0.106,-0.293,-76.599,-6.713,76.11,1
2.009135,0.76,0.112,-0.296,-72.265,-5.371,76.66,1
2.017657,0.725,0.123,-0.304,-65.246,-4.577,76.477,1
2.024658,0.794,0.104,-0.313,-59.814,-3.051,77.148,1
2.031674,0.821,0.095,-0.336,-57.556,-1.647,77.453,1
2.041707,0.867,0.087,-0.364,-59.448,-0.244,77.819,1
2.048296,0.905,0.065,-0.393,-65.856,1.098,78.552,1
2.054895,0.887,0.051,-0.423,-77.27,3.723,79.467,1
2.062143,0.852,0.056,-0.457,-88.073,4.821,80.383,1
2.069996,0.882,0.058,-0.466,-95.092,6.469,81.237,1
2.076982,0.874,0.057,-0.494,-101.501,7.446,81.848,1
2.084872,0.911,0.058,-0.479,-104.736,8.605,82.763,1
2.091948,0.92,0.059,-0.503,-106.201,8.789,83.862,1
2.098967,1.038,0.033,-0.513,-108.154,8.3,85.998,1
2.107272,1.067,0.071,-0.529,-107.116,9.338,87.89,1
2.114008,1.042,0.109,-0.564,-103.82,7.934,89.782,1
2.12245,1.014,0.166,-0.589,-96.191,7.019,91.064,1
2.129054,0.995,0.205,-0.635,-81.298,4.272,92.651,1
2.136032,0.962,0.241,-0.687,-68.481,1.892,93.566,1
2.144026,0.936,0.268,-0.736,-59.814,-0.549,93.688,1
2.152704,0.929,0.297,-0.781,-52.734,-2.807,93.566,1
2.160239,0.95,0.332,-0.853,-53.161,-5.554,93.444,1
2.168007,0.98,0.365,-0.901,-60.18,-7.446,92.346,1
2.175454,1.008,0.387,-0.934,-72.143,-9.765,90.698,1
2.182213,0.995,0.424,-0.954,-83.557,-12.023,88.806,1
2.190357,0.958,0.478,-0.957,-85.571,-14.831,86.853,1
2.197092,0.907,0.535,-0.971,-78.796,-17.761,84.472,1
2.204889,0.884,0.563,-0.987,-64.331,-22.094,81.848,1
2.211597,0.875,0.576,-0.992,-51.757,-26.245,78.979,1
2.219878,0.928,0.563,-1.002,-51.879,-30.029,76.049,1
2.22808,0.955,0.58,-0.984,-63.598,-32.47,73.181,1
2.23508,0.936,0.605,-0.961,-75.5,-34.423,69.702,1
2.241658,0.914,0.617,-0.929,-83.618,-36.437,65.49,1
2.250371,0.899,0.622,-0.911,-88.134,-38.757,61.157,1
2.257295,0.878,0.604,-0.887,-89.05,-41.809,56.823,1
2.264514,0.859,0.571,-0.867,-89.66,-44.128,53.222,1
2.272506,0.882,0.541,-0.866,-91.369,-47.424,50.598,1
2.281158,0.89,0.529,-0.842,-92.651,-50.354,48.095,1
2.287877,0.898,0.512,-0.82,-93.749,-53.405,45.715,1
2.295859,0.893,0.492,-0.792,-95.092,-56.518,43.579,1
2.303081,0.883,0.474,-0.751,-96.557,-59.204,41.564,1
2.309646,0.889,0.451,-0.699,-97.656,-62.316,40.039,1
2.318085,0.905,0.436,-0.653,-98.205,-64.392,39.367,1
2.324677,0.922,0.434,-0.616,-98.205,-66.101,38.757,1
2.332845,0.93,0.425,-0.579,-98.876,-67.932,38.085,1
2.341051,0.938,0.42,-0.548,-99.914,-69.763,37.414,1
2.349223,0.947,0.411,-0.522,-100.891,-71.35,37.048,1
2.356235,0.945,0.396,-0.489,-101.623,-72.875,36.56,1
2.363521,0.949,0.383,-0.451,-103.088,-73.974,36.682,1
2.371347,0.934,0.369,-0.417,-103.82,-74.707,36.682,1
2.380029,0.914,0.356,-0.385,-102.416,-75.378,36.682,1
2.387859,0.894,0.334,-0.348,-100.891,-76.049,36.987,1
2.396368,0.897,0.322,-0.311,-101.013,-75.988,37.109,1
2.404534,0.873,0.323,-0.269,-100.769,-76.11,38.208,1
2.411662,0.855,0.334,-0.228,-98.022,-75.378,39.611,1
2.421213,0.837,0.343,-0.199,-95.458,-74.401,40.588,1
2.428489,0.793,0.345,-0.176,-94.726,-73.12,40.893,1
2.436659,0.78,0.34,-0.163,-95.581,-71.96,40.588,1
2.444968,0.767,0.312,-0.147,-96.191,-71.105,40.039,1
2.452008,0.75,0.289,-0.136,-95.153,-69.335,39.672,1
2.460469,0.721,0.241,-0.129,-94.787,-67.993,39.123,1
2.467463,0.703,0.189,-0.129,-95.947,-66.528,39.916,1
2.475699,0.691,0.135,-0.12,-95.214,-65.002,41.137,1
2.482689,0.677,0.102,-0.096,-90.454,-63.72,43.029,1
2.491162,0.667,0.063,-0.06,-83.129,-61.889,45.959,1
2.497559,0.726,0.052,-0.042,-75.439,-59.57,48.828,1
2.504558,0.753,0.047,-0.031,-66.223,-58.837,50.781,1
2.513017,0.715,0.045,0.005,-54.077,-58.166,52.795,1
2.519787,0.713,0.024,0.035,-44.006,-57.25,54.809,1
2.526674,0.711,0.007,0.051,-36.193,-56.213,57.373,1
2.533593,0.709,-0.022,0.069,-33.813,-54.748,60.729,1
2.542097,0.721,-0.037,0.083,-36.865,-52.49,64.392,1
2.548791,0.741,-0.031,0.094,-42.785,-49.743,68.237,1
2.55679,0.776,-0.019,0.099,-48.645,-47.363,72.021,1
2.564583,0.782,0.001,0.097,-57.067,-45.104,75.195,1
2.571616,0.753,0.015,0.102,-67.382,-42.297,78.063,1
2.580346,0.715,0.03,0.107,-77.148,-39.672,80.139,1
2.586948,0.703,0.045,0.109,-89.843,-36.071,82.885,1
2.594744,0.704,0.065,0.125,-97.106,-32.592,85.327,1
2.601768,0.72,0.094,0.14,-99.365,-29.296,88.195,1
2.609712,0.724,0.129,0.135,-96.252,-26.428,91.064,1
2.616638,0.71,0.172,0.132,-90.759,-24.536,93.627,1
2.62421,0.698,0.196,0.114,-83.618,-22.399,96.008,1
2.632212,0.689,0.214,0.092,-79.833,-20.263,98.388,1
2.640655,0.686,0.227,0.071,-79.345,-17.456,100.769,1
2.647172,0.667,0.25,0.043,-80.871,-15.441,102.233,1
2.654314,0.644,0.29,0.025,-80.871,-13.549,103.637,1
2.66253,0.628,0.327,0.01,-77.575,-12.084,105.346,1
2.670867,0.616,0.378,-0.005,-68.542,-11.657,105.895,1
2.677567,0.586,0.415,-0.023,-57.067,-11.169,106.018,1
2.687661,0.559,0.431,-0.037,-45.166,-10.498,105.407,1
2.694262,0.543,0.425,-0.052,-41.625,-9.216,104.919,1
2.701411,0.526,0.427,-0.056,-44.677,-7.507,104.553,1
2.709283,0.513,0.445,-0.053,-51.757,-4.638,104.614,1
2.717304,0.526,0.464,-0.066,-58.349,-2.136,104.858,1
2.725257,0.535,0.494,-0.081,-61.828,-0.244,104.675,1
2.730735,0.547,0.515,-0.094,-61.95,1.159,104.614,1
2.738976,0.584,0.537,-0.112,-58.715,2.38,104.736,1
2.746016,0.626,0.598,-0.112,-50.476,3.54,105.407,1
2.753891,0.651,0.663,-0.148,-37.292,2.441,105.224,1
2.760599,0.632,0.684,-0.141,-18.188,0.793,104.736,1
2.767568,0.625,0.676,-0.16,-4.211,0.793,104.553,1
2.77616,0.623,0.683,-0.161,-2.624,1.342,104.064,1
2.782865,0.618,0.683,-0.211,-6.591,2.38,102.783,1
2.791555,0.561,0.672,-0.182,-14.892,3.234,101.501,1
2.797103,0.555,0.667,-0.194,-24.291,6.347,100.83,1
2.804858,0.587,0.703,-0.209,-28.32,7.08,100.524,1
2.813052,0.607,0.756,-0.214,-24.047,8.056,100.036,1
2.82094,0.683,0.795,-0.242,-14.648,7.568,99.304,1
2.828501,0.585,0.829,-0.267,-8.789,6.652,98.449,1
2.835495,0.553,0.822,-0.263,-8.728,6.958,98.144,1
2.842928,0.575,0.835,-0.283,-10.314,6.896,97.229,1
2.851358,0.535,0.826,-0.294,-13.305,7.446,96.801,1
2.85978,0.485,0.829,-0.276,-27.587,9.155,97.717,1
2.866477,0.526,0.85,-0.385,-28.137,7.873,94.421,1
2.874662,0.459,0.883,-0.286,-17.028,8.117,92.651,1
2.881253,0.517,0.932,-0.366,1.525,8.544,92.529,1
2.888345,0.585,0.994,-0.395,17.517,4.516,91.369,1
2.895896,0.584,0.97,-0.417,27.709,5.065,89.965,1
2.902993,0.547,1.079,-0.427,8.972,8.056,90.332,1
2.911254,0.638,1.072,-0.565,-8.911,3.723,86.486,1
2.919126,0.522,1.146,-0.467,-16.052,6.713,83.801,1
2.926781,0.554,1.175,-0.564,-23.01,4.577,81.115,1
2.93337,0.591,1.168,-0.528,-24.719,2.136,77.514,1
2.941829,0.603,1.136,-0.543,-27.343,1.281,74.951,1
2.950085,0.62,1.112,-0.55,-33.508,-0.915,72.265,1
2.958339,0.633,1.129,-0.555,-37.78,-1.342,70.495,1
2.965034,0.676,1.17,-0.577,-36.56,-4.394,68.42,1
2.972532,0.712,1.208,-0.58,-31.188,-6.286,67.504,1
2.979419,0.723,1.239,-0.601,-24.902,-9.277,65.612,1
2.98635,0.725,1.259,-0.606,-21.728,-11.901,64.025,1
2.995018,0.734,1.263,-0.615,-21.301,-14.16,62.011,1
3.002055,0.736,1.254,-0.62,-26.245,-16.54,59.692,1
3.010018,0.73,1.193,-0.609,-40.954,-17.578,58.227,1
3.017203,0.766,1.198,-0.611,-55.786,-17.089,54.992,1
3.025308,0.668,1.215,-0.586,-71.35,-16.967,52.612,1
3.033654,0.711,1.256,-0.586,-83.801,-16.845,51.086,1
3.04031,0.654,1.143,-0.507,-111.328,-17.456,57.128,1
3.04818,0.882,1.417,-0.731,-98.999,-22.155,51.025,1
3.056543,0.588,1.516,-0.474,-61.279,-26.062,46.997,1
3.064759,0.75,1.554,-0.655,-30.212,-31.555,44.433,1
3.071468,0.693,1.479,-0.571,-20.996,-39.306,42.236,1
3.079829,0.723,1.652,-0.48,-48.461,-31.677,44.067,1
3.086038,0.834,1.621,-0.606,-51.33,-46.936,38.696,1
3.094289,0.584,1.645,-0.37,-25.085,-42.846,36.254,1
3.101337,0.661,1.634,-0.517,-12.817,-49.194,33.203,1
3.110218,0.456,1.239,-0.422,-34.667,-53.771,32.104,1
3.116909,0.765,1.476,-0.489,-67.016,-43.457,26.855,1
3.123792,0.474,1.654,-0.412,-59.57,-55.48,21.606,1
3.131557,0.541,1.647,-0.405,-32.531,-53.161,19.287,1
3.139816,0.581,1.693,-0.497,-14.221,-62.072,13.427,1
3.147803,0.544,1.625,-0.436,-7.019,-63.293,9.216,1
3.154785,0.553,1.591,-0.495,-13.061,-64.453,3.662,1
3.16333,0.549,1.555,-0.479,-28.076,-65.856,-1.464,1
3.172201,0.505,1.514,-0.476,-46.752,-65.734,-6.225,1
3.178844,0.541,1.486,-0.454,-68.054,-67.993,-11.23,1
3.187167,0.51,1.464,-0.432,-84.96,-68.481,-14.892,1
3.195411,0.495,1.43,-0.416,-107.666,-69.335,-18.066,1
3.204172,0.464,1.398,-0.418,-132.446,-69.641,-21.057,1
3.210623,0.435,1.372,-0.398,-162.597,-69.58,-23.254,1
3.219636,0.454,1.342,-0.376,-191.284,-69.152,-24.658,1
3.227374,0.508,1.324,-0.336,-205.871,-69.824,-24.963,1
3.234435,0.57,1.314,-0.293,-195.068,-72.082,-25.878,1
3.242316,0.633,1.284,-0.231,-170.043,-74.646,-26.855,1
3.251458,0.653,1.237,-0.222,-146.545,-76.782,-28.015,1
3.260292,0.622,1.215,-0.167,-127.014,-78.552,-30.334,1
3.267004,0.607,1.187,-0.156,-118.103,-78.552,-32.653,1
3.275244,0.553,1.174,-0.16,-123.901,-77.514,-34.912,1
3.284119,0.514,1.176,-0.168,-134.765,-76.11,-37.17,1
3.292624,0.484,1.192,-0.2,-144.592,-74.34,-39.001,1
3.299389,0.479,1.221,-0.261,-148.498,-74.157,-41.32,1
3.307666,0.476,1.217,-0.332,-151.489,-74.89,-43.64,1
3.314153,0.43,1.227,-0.387,-156.921,-76.66,-46.264,1
3.322581,0.459,1.22,-0.409,-156.494,-78.552,-49.133,1
3.329505,0.437,1.208,-0.425,-151.062,-80.932,-51.513,1
3.337444,0.395,1.187,-0.444,-147.521,-83.984,-53.771,1
3.345939,0.376,1.167,-0.437,-141.967,-88.439,-55.786,1
3.353067,0.395,1.162,-0.426,-129.089,-91.735,-56.762,1
3.360082,0.415,1.144,-0.455,-113.342,-96.13,-57.678,1
3.36702,0.402,1.132,-0.475,-97.167,-99.975,-58.532,1
3.375536,0.439,1.092,-0.525,-85.083,-104.064,-60.058,1
3.381869,0.436,1.056,-0.578,-79.895,-107.299,-61.34,1
3.390205,0.404,1.02,-0.629,-81.665,-110.168,-63.11,1
3.39664,0.367,0.97,-0.68,-89.294,-112.854,-64.514,1
3.404911,0.349,0.924,-0.705,-100.158,-115.478,-65.856,1
3.411425,0.334,0.883,-0.686,-108.276,-118.408,-66.345,1
3.419784,0.307,0.874,-0.652,-105.163,-121.887,-66.162,1
3.426942,0.428,0.91,-0.613,-78.979,-126.831,-66.162,1
3.433742,0.473,0.88,-0.563,-48.583,-133.789,-67.199,1
3.442132,0.48,0.851,-0.466,-20.935,-136.169,-68.359,1
3.448842,0.507,0.795,-0.451,-5.432,-140.38,-68.908,1
3.457602,0.499,0.771,-0.377,6.469,-139.343,-69.396,1
3.464334,0.492,0.756,-0.378,11.047,-139.892,-70.19,1
3.47105,0.611,0.736,-0.321,15.747,-139.343,-71.35,1
3.479343,0.588,0.727,-0.31,12.756,-139.465,-72.692,1
3.48771,0.535,0.747,-0.196,13.122,-136.474,-74.462,1
3.494349,0.631,0.711,-0.183,0.793,-134.155,-75.805,1
3.502448,0.631,0.701,-0.113,-16.601,-130.615,-76.904,1
3.510944,0.667,0.669,-0.118,-36.987,-126.22,-78.247,1
3.518643,0.624,0.684,-0.053,-53.1,-123.779,-79.772,1
3.527103,0.651,0.674,0.008,-61.767,-120.239,-81.542,1
3.535218,0.644,0.679,0.044,-76.599,-115.6,-83.068,1
3.54183,0.661,0.682,0.055,-91.247,-110.9,-83.435,1
3.550577,0.657,0.726,0.058,-104.919,-107.177,-84.167,1
3.558992,0.664,0.799,0.033,-105.041,-104.553,-84.838,1
3.565488,0.66,0.817,0.088,-101.623,-104.064,-86.73,1
3.574181,0.649,0.818,0.119,-107.238,-100.524,-89.477,1
3.581238,0.658,0.806,0.146,-121.032,-97.839,-91.552,1
3.588267,0.631,0.809,0.204,-131.103,-94.238,-93.017,1
3.595961,0.613,0.807,0.242,-132.934,-91.918,-95.031,1
3.603138,0.564,0.765,0.296,-131.225,-89.477,-96.984,1
3.612096,0.535,0.687,0.33,-130.981,-86.975,-98.693,1
3.618886,0.497,0.604,0.369,-130.981,-84.167,-99.853,1
3.627106,0.526,0.501,0.394,-130.798,-82.397,-100.219,1
3.635067,0.565,0.395,0.428,-127.99,-79.101,-100.219,1
3.642921,0.634,0.303,0.466,-126.098,-78.002,-99.304,1
3.649692,0.721,0.206,0.572,-122.619,-75.195,-97.9,1
3.658332,0.828,0.102,0.639,-121.52,-69.824,-95.52,1
3.66499,0.872,0.021,0.697,-124.633,-64.819,-92.712,1
3.673366,0.916,-0.005,0.743,-120.3,-59.02,-89.172,1
3.680436,0.945,-0.029,0.798,-109.863,-56.213,-85.327,1
3.687414,0.955,-0.066,0.791,-94.726,-52.307,-80.871,1
3.696087,1.002,-0.087,0.834,-77.819,-48.828,-76.354,1
3.703071,1.054,-0.152,0.83,-69.58,-42.419,-70.922,1
3.710047,1.067,-0.228,0.785,-83.557,-34.973,-65.551,1
3.718071,1.027,-0.231,0.752,-105.041,-27.343,-60.058,1
3.724928,0.986,-0.212,0.721,-113.83,-21.545,-54.321,1
3.73306,0.9,-0.23,0.685,-109.374,-17.089,-49.133,1
3.739975,0.866,-0.289,0.653,-98.205,-13.793,-42.907,1
3.748252,0.822,-0.347,0.641,-81.176,-11.169,-36.315,1
3.756937,0.776,-0.411,0.637,-67.504,-7.446,-29.418,1
3.763891,0.739,-0.454,0.604,-63.476,-2.868,-22.033,1
3.771831,0.625,-0.452,0.566,-64.88,3.051,-12.878,1
3.780233,0.729,-0.47,0.523,-72.448,7.08,-5.249,1
3.787234,0.687,-0.41,0.516,-57.128,8.178,1.77,1
3.79508,0.696,-0.437,0.506,-30.517,9.155,8.789,1
3.802966,0.655,-0.486,0.47,-19.531,10.62,16.113,1
3.809542,0.658,-0.517,0.458,-15.93,11.718,23.254,1
3.816712,0.675,-0.539,0.492,-16.723,11.718,31.311,1
3.824769,0.622,-0.551,0.531,-10.192,14.831,38.879,1
3.833175,0.646,-0.571,0.547,-16.296,14.77,47.058,1
3.840295,0.646,-0.529,0.625,-14.343,17.944,54.321,1
3.847827,0.721,-0.494,0.641,-16.723,20.08,62.011,1
3.854946,0.664,-0.397,0.698,-15.808,22.338,68.359,1
3.862392,0.758,-0.149,0.807,-1.892,23.742,74.035,1
3.870367,0.761,0.121,0.835,26.916,25.329,78.247,1
3.877002,0.719,0.382,0.825,40.893,25.573,80.078,1
3.883927,0.754,0.61,0.81,37.597,29.968,79.956,1
3.891004,0.766,0.915,0.731,10.742,35.156,77.27,1
3.898773,0.832,1.297,0.64,-12.451,39.55,73.73,1
3.905626,0.841,1.66,0.542,-26.977,42.297,67.504,1
3.914015,0.885,2.076,0.366,-30.639,43.395,58.715,1
3.920569,0.93,2.454,0.149,-42.602,43.151,46.63,1
3.928468,0.896,2.819,-0.041,-72.387,43.701,30.883,1
3.935393,0.817,3.158,-0.222,-108.52,43.884,11.779,1
3.942493,0.735,3.412,-0.37,-128.54,43.334,-6.958,1
3.951336,0.626,3.604,-0.594,-137.634,38.513,-32.409,1
3.957657,0.461,3.637,-0.813,-138.732,29.968,-58.593,1
3.965954,0.325,3.652,-1.067,-125.854,20.385,-86.425,1
3.974092,0.158,3.545,-1.357,-108.093,5.554,-114.257,1
3.980841,0.084,3.327,-1.61,-101.196,-9.094,-140.258,1
3.990434,-0.058,3.013,-1.93,-100.891,-32.104,-171.02,1
3.997417,-0.213,2.638,-2.067,-109.863,-47.851,-193.908,1
4.005842,-0.435,2.159,-2.301,-131.347,-69.152,-213.073,1
4.012338,-0.692,1.697,-2.357,-147.033,-92.773,-228.881,1
4.020144,-0.906,1.208,-2.358,-152.221,-116.516,-239.624,1
4.028924,-1.124,0.693,-2.313,-143.737,-142.761,-246.582,1
4.035613,-1.372,0.193,-2.212,-107.116,-174.804,-249.328,1
4.043834,-1.65,-0.302,-2.098,-57.861,-201.904,-248.168,1
4.052155,-1.884,-0.838,-2.04,-10.009,-227.172,-243.53,1
4.0606,-2.208,-1.547,-1.955,7.263,-254.821,-232.177,1
4.068664,-2.442,-2.023,-1.796,-0.793,-271.728,-216.491,1
4.076957,-2.704,-2.469,-1.736,-16.235,-291.442,-196.044,1
4.084174,-3.034,-2.762,-1.562,-5.004,-316.467,-167.785,1
4.09245,-3.226,-3.158,-1.544,14.16,-342.651,-141.418,1
4.09948,-3.784,-3.565,-1.331,15.93,-368.896,-112.06,1
4.109103,-4.249,-3.911,-1.173,-6.713,-389.404,-77.453,1
4.116218,-4.72,-4.236,-0.923,-45.043,-414.611,-29.907,1
4.124412,-5.327,-4.456,-0.515,-52.124,-437.438,24.353,1
4.132968,-5.831,-4.71,-0.149,-51.147,-455.627,75.622,1
4.141269,-6.423,-4.972,0.194,-76.904,-469.97,132.812,1
4.147499,-7.081,-5.192,0.765,-101.074,-479.736,195.495,1
4.155626,-7.675,-5.415,1.278,-117.248,-485.717,264.404,1
4.163887,-8.341,-5.546,1.911,-140.869,-482.543,351.074,1
4.17212,-9.179,-5.585,2.573,-158.996,-470.886,429.138,1
4.178766,-10.209,-5.644,3.279,-181.823,-445.373,510.07,1
4.187115,-11.184,-5.68,3.938,-219.543,-407.897,594.055,1
4.195198,-12.153,-5.615,4.68,-258.178,-355.957,682.8,1
4.202181,-13.415,-5.366,5.201,-307.189,-284.301,774.047,1
4.211582,-15.309,-4.704,5.564,-360.29,-184.57,879.577,1
4.21856,-15.994,-3.897,5.596,-399.475,-82.397,966.064,1
4.226659,-15.999,-2.873,5.221,-445.922,29.296,1045.288,1
4.235013,-15.999,-1.614,4.625,-475.83,146.972,1113.83,1
4.243063,-15.999,0.015,3.772,-463.195,284.301,1176.879,1
4.250074,-15.999,1.35,2.959,-414.855,389.221,1215.759,1
4.257179,-15.999,2.544,2.152,-353.454,483.459,1243.835,1
4.264134,-15.999,3.658,1.439,-306.091,564.758,1261.657,1
4.271861,-15.999,4.634,0.826,-274.597,639.648,1270.874,1
4.280447,-15.999,5.509,0.253,-278.686,714.355,1271.85,1
4.287131,-15.999,6.306,-0.275,-307.8,777.16,1261.901,1
4.293904,-15.999,6.721,-0.556,-358.581,857.177,1236.633,1
4.303003,-15.999,6.844,-0.697,-416.748,949.157,1201.477,1
4.309553,-15.999,6.611,-1.318,-493.957,1052.795,1157.714,1
4.317754,-15.999,6.386,-1.5,-573.974,1177.124,1091.064,1
4.326483,-15.999,6.041,-2.11,-646.423,1291.87,1018.188,1
4.333032,-15.999,5.96,-2.784,-737.731,1382.934,925.292,1
4.341837,-15.999,5.687,-3.539,-828.308,1479.919,802.246,1
4.348481,-15.999,5.466,-4.772,-950.866,1549.804,650.817,1
4.355261,-15.999,5.387,-5.563,-1050.903,1593.749,461.547,1
4.363333,-15.999,4.417,-6.483,-1150.451,1613.464,248.718,1
4.371344,-15.999,3.782,-7.3,-1227.6,1587.219,12.207,1
4.378348,-15.999,2.637,-7.56,-1182.373,1508.3,-215.759,1
4.386704,-15.999,1.221,-6.998,-1061.462,1386.596,-400.085,1
4.395143,-15.999,0.293,-5.958,-847.29,1259.46,-521.545,1
4.402803,-15.999,-0.295,-5.673,-540.222,1098.51,-591.918,1
4.411396,-15.999,-1.154,-5.222,-335.998,979.248,-607.36,1
4.419556,-15.999,-1.822,-5.205,-195.983,891.723,-594.543,1
4.426723,-15.999,-2.568,-5.468,-132.263,796.569,-565.673,1
4.435015,-15.8,-3.049,-5.42,-166.748,735.839,-535.461,1
4.442073,-13.281,-3.253,-5.452,-227.966,669.128,-509.399,1
4.449924,-10.838,-3.312,-5.154,-282.043,601.074,-487.243,1
4.458528,-9.035,-3.196,-4.871,-310.485,520.202,-465.209,1
4.465176,-7.592,-3.151,-4.464,-311.34,460.388,-449.523,1
4.473043,-6.431,-3.084,-4.084,-306.213,394.348,-428.71,1
4.481486,-5.492,-2.864,-3.671,-269.348,328.491,-406.921,1
4.488578,-4.779,-2.749,-3.291,-208.618,272.888,-382.446,1
4.496659,-4.217,-2.651,-3.089,-149.841,216.369,-351.135,1
4.505255,-3.862,-2.458,-2.827,-119.323,177.734,-324.829,1
4.513577,-3.48,-2.256,-2.692,-102.6,145.507,-299.682,1
4.520352,-3.113,-1.998,-2.521,-100.524,110.656,-272.827,1
4.528801,-2.849,-1.77,-2.369,-98.815,85.205,-250.488,1
4.537515,-2.538,-1.511,-2.199,-93.2,59.57,-229.553,1
4.544093,-2.308,-1.3,-2.006,-72.509,32.531,-205.81,1
4.552688,-2.063,-1.089,-1.849,-47.302,11.474,-186.34,1
4.56131,-1.843,-0.828,-1.645,-24.047,-6.469,-168.579,1
4.569452,-1.697,-0.608,-1.511,-3.662,-22.766,-149.108,1
4.576484,-1.541,-0.338,-1.396,5.31,-32.653,-134.277,1
4.584853,-1.479,-0.128,-1.352,-1.586,-40.283,-119.934,1
4.593496,-1.496,0.046,-1.347,-28.198,-43.518,-109.68,1
4.603655,-1.485,0.232,-1.362,-72.265,-45.593,-100.708,1
4.612001,-1.592,0.377,-1.359,-114.807,-46.02,-93.261,1
4.61979,-1.478,0.513,-1.331,-115.051,-53.344,-87.707,1
4.626486,-1.519,0.574,-1.295,-92.529,-59.082,-84.716,1
4.633394,-1.458,0.601,-1.274,-69.213,-65.673,-83.068,1
4.641689,-1.406,0.625,-1.237,-44.128,-71.716,-82.946,1
4.650246,-1.298,0.636,-1.225,-22.399,-76.721,-83.251,1
4.65774,-1.203,0.637,-1.215,-5.981,-81.787,-84.899,1
4.666428,-1.177,0.579,-1.207,3.723,-85.327,-86.975,1
4.674316,-1.107,0.502,-1.195,4.394,-88.256,-88.256,1
4.681193,-1.028,0.408,-1.156,1.953,-89.05,-89.294,1
4.689286,-0.966,0.297,-1.13,-7.385,-89.233,-89.172,1
4.697632,-0.895,0.19,-1.085,-16.357,-89.904,-88.317,1
4.705823,-0.796,0.069,-1.018,-16.052,-90.148,-85.815,1
4.71431,-0.697,-0.023,-0.959,-13.122,-90.27,-82.885,1
4.721056,-0.585,-0.166,-0.907,-16.235,-89.111,-78.552,1
4.729219,-0.536,-0.246,-0.871,-23.498,-86.669,-73.181,1
4.737757,-0.443,-0.347,-0.861,-33.386,-85.205,-67.81,1
4.744514,-0.394,-0.449,-0.829,-47.424,-82.641,-61.828,1
4.752461,-0.361,-0.501,-0.812,-64.086,-80.017,-54.626,1
4.761219,-0.323,-0.561,-0.78,-75.134,-78.063,-47.79,1
4.768089,-0.285,-0.586,-0.75,-76.904,-76.965,-41.076,1
4.776147,-0.259,-0.621,-0.714,-71.228,-75.927,-34.606,1
4.785274,-0.247,-0.681,-0.678,-68.481,-74.707,-27.832,1
4.79205,-0.252,-0.709,-0.632,-68.603,-72.875,-19.897,1
4.79995,-0.231,-0.734,-0.592,-67.077,-71.228,-12.756,1
4.807177,-0.261,-0.724,-0.536,-60.791,-69.58,-6.042,1
4.815759,-0.205,-0.756,-0.489,-50.292,-68.298,1.159,1
4.823904,-0.15,-0.792,-0.419,-40.527,-66.284,9.155,1
4.832162,-0.145,-0.838,-0.365,-38.452,-63.476,16.723,1
4.8394,-0.145,-0.856,-0.335,-39.733,-59.02,25.878,1
4.847393,-0.184,-0.87,-0.311,-43.823,-54.992,34.057,1
4.854924,-0.227,-0.879,-0.299,-50.17,-50.903,42.541,1
4.862721,-0.269,-0.9,-0.295,-56.823,-45.776,51.574,1
4.871574,-0.272,-0.919,-0.305,-60.791,-41.809,61.279,1
4.87823,-0.255,-0.953,-0.314,-62.133,-37.353,71.533,1
4.886003,-0.251,-0.96,-0.35,-65.185,-33.935,81.848,1
4.89411,-0.21,-1.012,-0.378,-78.491,-29.663,92.468,1
4.90279,-0.073,-1.122,-0.424,-134.094,-20.874,105.041,1
4.910165,-0.395,-0.942,-0.335,-201.721,-11.413,117.065,1
4.918501,-0.286,-0.834,-0.251,-186.035,-3.906,128.051,1
4.925457,-0.274,-0.87,-0.237,-154.968,-2.563,139.892,1
4.933721,-0.261,-0.865,-0.25,-130.31,2.319,152.893,1
4.942229,-0.326,-0.854,-0.266,-112.426,5.126,168.334,1
4.949261,-0.303,-0.794,-0.319,-92.956,9.765,181.64,1
4.958068,-0.34,-0.789,-0.378,-83.129,10.192,193.908,1
4.964769,-0.42,-0.746,-0.427,-85.754,14.648,208.496,1
4.973169,-0.468,-0.659,-0.501,-84.533,15.563,220.092,1
4.981314,-0.53,-0.582,-0.554,-71.472,15.197,231.262,1
4.989094,-0.614,-0.556,-0.64,-54.748,13.0,243.347,1
4.997671,-0.634,-0.494,-0.671,-43.457,10.559,254.577,1
5.00564,-0.584,-0.416,-0.787,-24.169,6.958,267.211,1
5.012543,-0.606,-0.364,-0.87,-17.028,2.624,278.076,1
5.020836,-0.621,-0.287,-0.937,-10.681,-0.244,288.879,1
5.028863,-0.746,-0.213,-1.03,-16.723,-5.004,299.011,1
5.037585,-0.901,-0.094,-1.057,-36.682,-6.958,307.983,1
5.044207,-1.013,0.073,-1.092,-56.274,-9.399,315.49,1
5.053167,-1.149,0.301,-1.093,-58.349,-13.671,321.533,1
5.059837,-1.225,0.473,-1.099,-36.071,-21.545,327.819,1
5.06884,-1.294,0.612,-1.11,-9.094,-31.188,331.359,1
5.076707,-1.372,0.753,-1.12,12.573,-40.954,334.472,1
5.087267,-1.422,0.888,-1.134,26.367,-52.917,336.608,1
5.093743,-1.477,1.025,-1.12,38.208,-64.575,337.524,1
5.101852,-1.456,1.143,-1.111,40.344,-74.951,337.829,1
5.110217,-1.431,1.262,-1.091,29.357,-82.458,337.585,1
5.11812,-1.478,1.419,-1.041,9.338,-87.524,336.608,1
5.125217,-1.525,1.568,-1.001,-10.07,-91.125,334.594,1
5.133522,-1.548,1.697,-0.939,-21.85,-96.008,331.481,1
5.140648,-1.495,1.858,-0.886,-13.854,-100.952,328.796,1
5.149023,-1.454,2.03,-0.862,11.047,-108.886,324.89,1
5.156971,-1.424,2.161,-0.863,39.306,-117.98,320.007,1
5.164912,-1.434,2.258,-0.864,59.509,-127.563,313.415,1
5.171985,-1.418,2.323,-0.831,73.303,-137.695,304.992,1
5.180277,-1.394,2.369,-0.798,81.054,-145.019,296.752,1
5.188681,-1.372,2.397,-0.734,83.679,-151.184,287.963,1
5.196748,-1.281,2.449,-0.657,81.054,-155.09,279.418,1
5.203897,-1.168,2.499,-0.595,82.763,-160.705,270.69,1
5.211807,-1.095,2.52,-0.532,95.275,-166.503,262.084,1
5.218801,-1.017,2.576,-0.454,111.816,-170.959,251.831,1
5.226723,-0.993,2.515,-0.39,113.22,-174.438,242.492,1
5.235111,-0.913,2.473,-0.331,113.159,-177.001,231.872,1
5.242144,-0.844,2.361,-0.3,100.402,-177.917,222.045,1
5.250336,-0.611,2.407,-0.221,88.684,-177.062,211.486,1
5.258536,-0.554,2.345,-0.164,87.402,-177.307,200.744,1
5.264979,-0.395,2.363,-0.111,80.383,-176.208,192.749,1
5.273297,-0.404,2.282,-0.066,84.472,-176.879,183.837,1
5.280359,-0.356,2.155,-0.056,81.176,-174.56,176.025,1
5.28783,-0.22,2.206,-0.014,65.795,-171.936,168.762,1
5.29459,-0.238,2.206,0.011,64.147,-170.715,161.926,1
5.302625,-0.248,2.182,0.017,60.913,-168.823,154.724,1
5.309117,-0.248,2.134,0.02,55.297,-167.114,147.705,1
5.316834,-0.283,2.023,0.027,44.982,-165.344,142.333,1
5.324664,-0.224,2.053,0.032,40.283,-161.926,134.277,1
5.331569,-0.2,2.047,0.039,45.41,-161.376,126.647,1
5.340392,-0.151,2.0,0.037,50.903,-160.034,119.812,1
5.346907,-0.119,1.954,0.041,55.48,-159.729,112.731,1
5.355627,-0.141,1.865,0.06,55.358,-158.203,106.14,1
5.362133,-0.146,1.774,0.069,46.508,-155.944,99.853,1
5.370512,-0.159,1.696,0.09,30.212,-152.343,93.811,1
5.377642,-0.179,1.634,0.106,11.901,-148.01,88.989,1
5.384611,-0.199,1.578,0.128,-2.136,-144.287,84.35,1
5.391588,-0.193,1.549,0.156,-6.103,-141.54,81.481,1
5.399727,-0.179,1.529,0.181,2.014,-140.441,79.406,1
5.406635,-0.168,1.516,0.208,16.967,-140.258,78.186,1
5.414562,-0.166,1.465,0.228,39.062,-141.601,77.148,1
5.421527,-0.176,1.415,0.238,56.213,-142.456,76.477,1
5.42857,-0.188,1.341,0.235,65.063,-142.639,75.317,1
5.435953,-0.176,1.271,0.208,68.908,-142.517,74.34,1
5.444877,-0.175,1.195,0.191,61.218,-140.38,73.547,1
5.451164,-0.174,1.163,0.174,45.41,-137.573,72.753,1
5.46,-0.172,1.139,0.145,17.517,-132.629,72.204,1
5.466201,-0.189,1.144,0.139,-11.291,-127.502,71.533,1
5.474871,-0.227,1.159,0.123,-33.508,-122.436,71.166,1
5.480701,-0.24,1.175,0.121,-44.25,-118.53,71.105,1
5.489374,-0.24,1.176,0.133,-44.433,-115.478,70.861,1
5.496841,-0.204,1.222,0.14,-25.512,-113.708,69.458,1
5.505143,-0.223,1.237,0.16,10.925,-114.807,67.993,1
5.513726,-0.204,1.217,0.161,44.189,-115.356,66.345,1
5.520251,-0.136,1.21,0.175,72.326,-117.126,64.453,1
5.527231,-0.101,1.192,0.191,89.477,-116.821,62.377,1
5.536088,-0.117,1.163,0.182,90.576,-115.173,60.607,1
5.543664,-0.096,1.175,0.196,81.176,-113.83,58.593,1
5.550326,-0.148,1.19,0.2,71.166,-111.022,56.823,1
5.558152,-0.157,1.208,0.208,62.316,-108.52,54.382,1
5.565186,-0.162,1.19,0.199,54.016,-106.628,52.001,1
5.57329,-0.136,1.196,0.203,41.809,-104.064,50.415,1
5.579923,-0.137,1.187,0.147,40.222,-102.416,48.095,1
5.58777,-0.135,1.193,0.15,44.677,-101.745,45.471,1
5.594229,-0.119,1.187,0.102,53.955,-101.074,43.029,1
5.602516,-0.123,1.181,0.067,67.26,-102.172,40.344,1
5.608915,-0.125,1.169,0.048,78.125,-102.416,37.536,1
5.617272,-0.142,1.143,0.034,77.026,-101.623,35.217,1
5.623813,-0.134,1.135,0.031,66.711,-98.937,32.531,1
5.632609,-0.122,1.149,0.043,50.598,-96.13,29.785,1
5.639429,-0.118,1.157,0.051,32.836,-92.59,28.015,1
5.646051,-0.117,1.185,0.066,17.7,-89.477,25.939,1
5.65429,-0.106,1.23,0.081,13.427,-87.89,23.986,1
5.662638,-0.136,1.261,0.094,16.967,-87.097,22.033,1
5.670997,-0.169,1.292,0.098,27.16,-87.646,20.019,1
5.677979,-0.199,1.301,0.113,37.902,-88.562,17.639,1
5.68645,-0.217,1.296,0.111,48.828,-89.477,15.319,1
5.694863,-0.241,1.273,0.105,58.349,-90.637,12.939,1
5.701579,-0.22,1.252,0.099,67.26,-91.308,10.314,1
5.708598,-0.221,1.233,0.099,72.265,-91.796,7.568,1
5.717533,-0.205,1.203,0.092,71.289,-91.735,5.249,1
5.7239,-0.219,1.177,0.103,61.95,-90.148,2.99,1
5.732362,-0.223,1.186,0.105,48.217,-88.5,0.732,1
5.739387,-0.189,1.207,0.136,40.649,-87.28,-1.403,1
5.74835,-0.144,1.194,0.145,40.649,-85.632,-3.784,1
5.754915,-0.124,1.166,0.148,40.771,-84.045,-6.469,1
5.763636,-0.108,1.136,0.144,37.719,-81.665,-8.972,1
5.770155,-0.092,1.116,0.144,33.142,-79.589,-11.169,1
5.777331,-0.084,1.111,0.141,28.32,-77.697,-12.756,1
5.78426,-0.073,1.105,0.141,24.719,-76.049,-13.671,1
5.793216,-0.076,1.104,0.144,22.033,-74.584,-14.587,1
5.799077,-0.078,1.09,0.142,20.874,-73.364,-14.709,1
5.807404,-0.071,1.069,0.135,17.395,-72.326,-15.136,1
5.814841,-0.067,1.041,0.131,8.422,-70.373,-15.075,1
5.823434,-0.071,1.039,0.118,-3.051,-68.481,-14.465,1
5.829761,-0.064,1.051,0.106,-10.253,-67.504,-14.099,1
5.838498,-0.084,1.068,0.104,-10.07,-66.65,-13.916,1
5.845598,-0.079,1.083,0.098,-2.197,-66.711,-13.916,1
5.852621,-0.088,1.084,0.104,7.385,-67.26,-13.916,1
5.860957,-0.087,1.079,0.103,15.869,-67.443,-14.404,1
5.867962,-0.082,1.073,0.104,22.46,-67.626,-14.892,1
5.875125,-0.095,1.054,0.106,25.207,-67.504,-15.686,1
5.882016,-0.086,1.04,0.114,25.085,-66.162,-16.418,1
5.890304,-0.077,1.017,0.098,24.536,-65.734,-17.15,1
5.897381,-0.083,0.995,0.112,22.033,-64.086,-18.066,1
5.904091,-0.07,0.964,0.1,16.845,-62.744,-18.554,1
5.912778,-0.074,0.951,0.104,10.864,-61.035,-18.737,1
5.919657,-0.079,0.963,0.124,5.737,-59.753,-18.554,1
5.926188,-0.085,0.959,0.162,4.272,-59.265,-18.737,1
5.935007,-0.073,0.946,0.195,5.737,-58.105,-18.432,1
5.941596,-0.066,0.933,0.218,6.164,-57.556,-17.944,1
5.950469,-0.064,0.921,0.247,6.286,-56.945,-17.578,1
5.958665,-0.064,0.919,0.277,10.498,-56.457,-16.174,1
5.965237,-0.062,0.911,0.284,17.272,-56.396,-15.38,1
5.97411,-0.049,0.89,0.283,21.728,-55.175,-14.465,1
5.982338,-0.028,0.863,0.247,20.812,-53.222,-13.916,1
5.989468,-0.02,0.853,0.224,14.526,-50.17,-13.183,1
5.998173,-0.001,0.855,0.199,7.141,-47.607,-12.634,1
6.005234,-0.002,0.861,0.187,2.136,-45.41,-12.023,1
6.012253,-0.021,0.869,0.184,1.159,-43.457,-11.962,1
6.020281,-0.027,0.877,0.197,7.202,-42.419,-11.84,1
6.028738,-0.024,0.883,0.22,14.343,-41.992,-11.108,1
6.037157,-0.049,0.895,0.242,22.338,-41.442,-10.559,1
6.04516,-0.059,0.889,0.254,28.625,-40.588,-9.704,1
6.051868,-0.056,0.879,0.247,27.832,-39.062,-9.338,1
6.060354,-0.052,0.864,0.244,21.301,-37.536,-8.85,1
6.066985,-0.034,0.86,0.24,12.023,-34.851,-7.873,1
6.075623,-0.021,0.87,0.223,1.77,-32.653,-7.263,1
6.084059,-0.023,0.882,0.202,-7.69,-29.602,-6.408,1
6.092544,-0.033,0.887,0.16,-18.005,-27.343,-5.554,1
6.099465,-0.02,0.887,0.147,-23.681,-25.573,-4.699,1
6.107469,-0.01,0.895,0.141,-24.108,-24.475,-3.723,1
6.115294,0.015,0.908,0.137,-15.197,-24.475,-2.746,1
6.123702,-0.019,0.902,0.124,-5.31,-24.597,-1.525,1
6.130311,-0.031,0.9,0.114,2.38,-24.902,-0.488,1
6.138683,-0.019,0.895,0.098,6.408,-25.085,0.305,1
6.145626,-0.002,0.909,0.085,7.995,-24.536,1.098,1
6.152691,0.011,0.917,0.062,6.652,-24.658,1.525,1
6.160907,0.01,0.93,0.053,5.187,-24.902,2.014,1
6.168064,0.016,0.935,0.04,4.028,-24.536,2.746,1
6.174839,0.018,0.947,0.03,1.22,-24.902,2.807,1
6.181891,0.013,0.955,0.032,-2.502,-24.841,2.929,1
6.190439,0.012,0.975,0.035,-6.164,-24.78,2.929,1
6.197512,0.012,0.982,0.046,-8.544,-24.78,3.051,1
6.205409,-0.003,0.981,0.044,-8.789,-24.902,3.112,1
6.211863,0.012,0.965,0.05,-10.742,-25.39,3.601,1
6.22019,0.049,0.994,0.081,-14.648,-24.963,5.004,1
6.226749,0.014,0.973,0.063,-6.652,-24.78,4.211,1
6.234802,0.014,1.004,0.097,5.92,-25.878,4.089,1
6.24119,0.022,0.994,0.088,16.967,-25.878,4.272,1
6.24921,0.007,1.006,0.097,24.658,-26.916,4.394,1
6.256223,0.0,0.91,0.099,21.057,-26.489,5.981,1
6.264478,0.011,0.98,0.077,19.104,-24.78,5.004,1
6.270906,-0.001,1.021,0.083,20.996,-26.977,4.333,1
6.277704,0.008,1.023,0.094,23.376,-25.695,4.211,1
6.285727,0.036,1.031,0.08,22.216,-26.855,3.54,1
6.292518,0.049,1.042,0.095,21.545,-26.794,3.295,1
6.2995,0.062,1.063,0.104,20.629,-26.611,2.929,1
6.307309,0.065,1.099,0.122,22.399,-27.343,2.319,1
6.315411,0.069,1.129,0.138,26.672,-27.404,1.831,1
6.322066,0.074,1.146,0.143,29.846,-26.855,1.098,1
6.330398,0.074,1.162,0.145,29.541,-26.367,-0.366,1
6.338593,0.074,1.179,0.155,26.489,-25.268,-2.014,1
6.345724,0.069,1.206,0.179,26.184,-24.719,-3.417,1
6.354542,0.083,1.228,0.214,32.287,-24.108,-5.249,1
6.361547,0.074,1.242,0.239,40.344,-23.559,-7.08,1
6.37003,0.084,1.225,0.254,46.264,-22.399,-8.666,1
6.376751,0.077,1.215,0.262,44.86,-20.385,-10.314,1
6.384974,0.062,1.214,0.264,37.109,-17.944,-11.84,1
6.393403,0.053,1.215,0.26,26.0,-15.075,-13.793,1
6.400013,0.054,1.205,0.247,12.817,-11.962,-15.441,1
6.408297,0.057,1.194,0.231,0.549,-9.277,-16.906,1
6.415459,0.053,1.2,0.21,-5.981,-6.896,-18.31,1
6.423295,0.043,1.194,0.18,-8.85,-5.187,-19.897,1
6.430198,0.036,1.19,0.149,-9.948,-3.967,-21.301,1
6.437336,0.035,1.164,0.113,-12.512,-3.051,-22.338,1
6.44578,0.032,1.146,0.083,-17.333,-1.77,-23.254,1
6.452915,0.032,1.142,0.048,-21.789,-0.976,-24.291,1
6.46166,0.038,1.131,0.023,-22.644,-0.854,-24.902,1
6.468576,0.041,1.118,-0.006,-20.996,-1.098,-25.817,1
6.476713,0.046,1.092,-0.03,-20.141,-1.953,-26.367,1
6.484706,0.046,1.064,-0.044,-21.179,-2.624,-26.733,1
6.493443,0.045,1.046,-0.059,-23.864,-2.868,-26.611,1
6.500168,0.054,1.041,-0.072,-26.245,-3.173,-26.55,1
6.507232,0.04,1.04,-0.099,-29.968,-3.784,-26.428,1
6.514708,0.026,1.041,-0.128,-34.545,-3.967,-26.489,1
6.521679,0.031,1.042,-0.162,-39.978,-5.065,-26.245,1
6.530092,0.036,1.041,-0.191,-44.616,-5.371,-26.55,1
6.538458,0.045,1.047,-0.224,-50.109,-6.652,-26.306,1
6.546848,0.05,1.055,-0.238,-52.795,-7.873,-26.611,1
6.553876,0.062,1.059,-0.258,-52.368,-9.399,-26.428,1
6.560903,0.069,1.064,-0.27,-49.804,-11.962,-26.489,1
6.569669,0.069,1.072,-0.273,-45.959,-13.671,-26.123,1
6.576459,0.057,1.09,-0.27,-40.71,-16.235,-26.306,1
6.58515,0.057,1.097,-0.271,-33.508,-18.798,-26.0,1
6.592275,0.075,1.097,-0.27,-27.16,-21.545,-25.756,1
6.600191,0.088,1.094,-0.272,-19.714,-23.925,-25.268,1
6.60896,0.098,1.086,-0.274,-10.192,-27.16,-24.658,1
6.616952,0.125,1.074,-0.285,2.685,-29.785,-24.597,1
6.625026,0.139,1.058,-0.311,22.949,-34.484,-23.803,1
6.631296,0.157,1.058,-0.306,48.095,-39.794,-23.437,1
6.638683,0.195,1.042,-0.307,78.186,-45.349,-23.193,1
6.646774,0.157,1.056,-0.282,106.018,-49.682,-23.925,1
6.654682,0.075,1.089,-0.237,125.061,-53.588,-25.085,1
6.66163,0.046,1.142,-0.166,136.23,-54.321,-26.367,1
6.670019,0.062,1.161,-0.156,134.155,-54.626,-28.381,1
6.678158,0.098,1.176,-0.117,119.384,-52.795,-30.517,1
6.68527,0.15,1.173,-0.119,92.102,-50.781,-32.958,1
6.693099,0.216,1.199,-0.111,64.819,-47.302,-35.827,1
6.699757,0.215,1.222,-0.12,38.94,-46.691,-38.574,1
6.706954,0.189,1.262,-0.099,23.437,-45.41,-40.832,1
6.714851,0.2,1.288,-0.094,20.751,-46.447,-42.968,1
6.721459,0.209,1.316,-0.071,26.245,-47.18,-45.166,1
6.729619,0.162,1.312,-0.057,28.015,-47.729,-47.302,1
6.736874,0.157,1.303,-0.054,25.451,-47.18,-49.072,1
6.743804,0.167,1.295,-0.063,16.296,-46.508,-51.33,1
6.752542,0.158,1.286,-0.061,2.929,-45.41,-53.1,1
6.75939,0.172,1.27,-0.083,-16.296,-44.799,-54.382,1
6.766565,0.117,1.254,-0.089,-40.283,-42.541,-54.809,1
6.774688,0.199,1.256,-0.124,-62.866,-41.259,-55.297,1
6.78337,0.231,1.273,-0.128,-76.232,-41.809,-55.969,1
6.791779,0.267,1.287,-0.108,-78.186,-42.236,-56.396,1
6.799029,0.244,1.278,-0.104,-78.735,-43.212,-56.03,1
6.805036,0.235,1.268,-0.112,-80.749,-43.823,-55.847,1
6.812895,0.208,1.263,-0.086,-90.82,-43.334,-54.992,1
6.821577,0.297,1.299,-0.076,-105.224,-40.405,-54.809,1
6.828314,0.292,1.396,-0.097,-107.666,-43.029,-55.725,1
6.836589,0.269,1.452,-0.094,-99.06,-44.128,-57.067,1
6.843284,0.293,1.455,-0.116,-94.787,-44.738,-59.265,1
6.852058,0.277,1.475,-0.176,-99.914,-45.898,-61.34,1
6.858659,0.279,1.465,-0.185,-109.374,-47.485,-63.293,1
6.866708,0.292,1.465,-0.187,-118.286,-47.241,-64.697,1
6.874978,0.258,1.505,-0.202,-123.657,-49.194,-66.101,1
6.8836,0.236,1.534,-0.195,-120.849,-51.086,-67.565,1
6.892318,0.198,1.575,-0.19,-106.933,-54.138,-70.251,1
6.899361,0.192,1.581,-0.13,-81.176,-56.884,-73.303,1
6.907866,0.245,1.56,-0.113,-62.194,-58.166,-75.622,1
6.914603,0.278,1.547,-0.117,-55.603,-57.861,-78.186,1
6.921713,0.258,1.554,-0.151,-60.18,-56.823,-80.627,1
6.930129,0.253,1.581,-0.176,-70.983,-55.969,-83.618,1
6.937113,0.183,1.629,-0.195,-80.078,-55.297,-86.853,1
6.946265,0.2,1.657,-0.209,-82.031,-55.664,-90.515,1
6.95481,0.151,1.681,-0.225,-83.068,-56.518,-94.543,1
6.961883,0.179,1.684,-0.218,-80.993,-57.983,-98.449,1
6.970165,0.163,1.665,-0.211,-80.139,-58.288,-102.05,1
6.977237,0.177,1.647,-0.225,-83.068,-59.326,-105.468,1
6.985074,0.161,1.621,-0.225,-90.332,-59.387,-109.619,1
6.993475,0.135,1.621,-0.226,-99.67,-59.509,-113.098,1
7.000082,0.117,1.632,-0.206,-106.262,-60.546,-117.004,1
7.007119,0.108,1.629,-0.174,-107.177,-60.852,-120.544,1
7.015214,0.131,1.624,-0.159,-108.947,-60.852,-123.84,1
7.022909,0.154,1.605,-0.131,-116.455,-61.096,-126.77,1
7.031617,0.148,1.586,-0.093,-127.99,-59.204,-129.638,1
7.039589,0.153,1.567,-0.049,-138.061,-58.898,-132.385,1
7.048042,0.168,1.538,0.018,-145.019,-57.189,-134.521,1
7.055919,0.203,1.502,0.051,-157.836,-54.382,-135.986,1
7.064668,0.241,1.481,0.076,-173.828,-51.513,-137.023,1
7.071581,0.285,1.494,0.086,-182.8,-49.865,-137.939,1
7.078622,0.339,1.479,0.11,-175.72,-49.438,-138.977,1
7.085621,0.377,1.422,0.138,-165.954,-48.706,-139.892,1
7.092539,0.392,1.355,0.182,-161.804,-47.241,-140.136,1
7.100773,0.416,1.301,0.24,-157.592,-45.288,-140.625,1
7.108771,0.44,1.217,0.315,-158.02,-40.893,-140.441,1
7.117416,0.453,1.173,0.358,-162.353,-36.56,-140.319,1
7.125235,0.462,1.143,0.39,-163.208,-32.165,-140.441,1
7.133977,0.501,1.097,0.407,-162.17,-28.076,-140.197,1
7.141051,0.536,1.078,0.414,-160.949,-22.644,-140.441,1
7.149679,0.551,1.062,0.418,-160.217,-18.737,-140.808,1
7.156313,0.553,1.044,0.433,-159.729,-14.465,-141.54,1
7.164544,0.551,1.003,0.432,-165.527,-10.253,-141.906,1
7.171155,0.563,0.963,0.423,-179.382,-5.737,-142.7,1
7.17986,0.549,0.928,0.416,-192.26,-1.831,-143.188,1
7.186694,0.571,0.882,0.393,-202.27,0.61,-143.371,1
7.193345,0.561,0.837,0.375,-208.007,1.831,-143.127,1
7.201503,0.528,0.823,0.363,-204.589,1.953,-142.761,1
7.208109,0.499,0.798,0.346,-193.115,1.525,-142.028,1
7.21691,0.502,0.768,0.307,-180.603,0.488,-140.869,1
7.2237,0.513,0.757,0.289,-169.982,-0.305,-139.526,1
7.230364,0.506,0.752,0.244,-155.822,-0.549,-137.512,1
7.238808,0.501,0.741,0.205,-148.01,-1.525,-135.437,1
7.246905,0.473,0.741,0.144,-154.174,-0.854,-132.629,1
7.255758,0.417,0.798,0.045,-174.072,-0.671,-130.676,1
7.262438,0.364,0.879,-0.019,-178.771,-3.784,-129.577,1
7.27075,0.336,0.907,-0.048,-164.855,-8.361,-129.455,1
7.277861,0.357,0.854,-0.091,-154.846,-12.695,-128.906,1
7.286593,0.316,0.831,-0.122,-152.648,-17.089,-127.746,1
7.293712,0.269,0.811,-0.173,-151.245,-20.812,-127.38,1
7.301949,0.233,0.759,-0.22,-142.333,-28.381,-127.197,1
7.308506,0.199,0.665,-0.262,-139.709,-33.386,-126.892,1
7.317136,0.182,0.596,-0.299,-144.104,-39.306,-126.77,1
7.325355,0.13,0.536,-0.279,-144.104,-44.799,-126.586,1
7.333668,0.096,0.478,-0.256,-135.681,-51.452,-126.098,1
7.341701,0.117,0.409,-0.224,-123.413,-57.922,-125.427,1
7.348952,0.158,0.344,-0.134,-103.332,-65.795,-123.352,1
7.357152,0.163,0.294,-0.062,-79.589,-70.617,-121.093,1
7.365346,0.192,0.222,-0.006,-55.297,-75.5,-119.079,1
7.373326,0.206,0.155,0.048,-35.095,-78.918,-116.943,1
7.381469,0.182,0.078,0.087,-19.47,-81.176,-115.051,1
7.388531,0.194,0.01,0.103,-10.742,-82.275,-113.525,1
7.397166,0.185,-0.062,0.079,-21.606,-82.58,-112.609,1
7.405858,0.02,-0.145,0.078,-40.344,-82.092,-111.816,1
7.414568,0.124,-0.197,-0.035,-110.168,-75.927,-108.337,1
7.422895,0.145,-0.077,-0.03,-107.666,-87.951,-109.802,1
7.429612,0.068,-0.228,0.047,-83.129,-88.5,-108.947,1
7.436638,0.011,-0.327,-0.12,-101.745,-91.857,-108.337,1
7.44522,0.067,-0.346,-0.01,-110.717,-96.191,-107.727,1
7.452922,0.087,-0.431,-0.074,-94.238,-98.754,-105.59,1
7.461316,0.135,-0.51,-0.067,-75.256,-105.041,-104.37,1
7.467731,0.186,-0.615,-0.105,-60.119,-107.543,-101.745,1
7.476639,0.158,-0.677,-0.173,-61.157,-112.67,-99.792,1
7.483778,0.073,-0.71,-0.191,-63.171,-115.783,-97.717,1
7.492095,-0.024,-0.765,-0.249,-66.345,-121.276,-95.397,1
7.500353,-0.108,-0.832,-0.292,-72.326,-125.915,-93.2,1
7.509854,-0.211,-0.876,-0.315,-66.467,-134.094,-89.599,1
7.516458,-0.309,-0.92,-0.324,-45.227,-142.272,-86.181,1
7.524853,-0.418,-1.044,-0.375,-35.644,-150.085,-82.58,1
7.533114,-0.565,-1.117,-0.378,-40.893,-158.142,-77.392,1
7.541543,-0.702,-1.169,-0.392,-37.292,-166.32,-71.96,1
7.549967,-0.827,-1.269,-0.418,-29.418,-175.659,-65.49,1
7.558228,-1.026,-1.395,-0.474,-29.602,-186.218,-56.213,1
7.564904,-1.117,-1.525,-0.534,-34.973,-197.448,-46.63,1
7.574822,-1.286,-1.704,-0.583,-42.419,-211.181,-32.47,1
7.581924,-1.473,-1.749,-0.636,-31.066,-225.585,-15.747,1
7.590499,-1.655,-1.983,-0.712,-36.071,-242.675,1.403,1
7.597587,-1.898,-2.079,-0.709,-48.767,-256.286,21.789,1
7.605979,-2.196,-2.316,-0.692,-64.453,-274.902,46.813,1
7.61551,-2.612,-2.472,-0.673,-78.735,-292.114,80.017,1
7.623867,-3.308,-2.625,-0.54,-88.256,-313.781,116.516,1
7.632586,-3.903,-2.767,-0.472,-108.337,-329.345,157.104,1
7.638814,-4.479,-2.824,-0.321,-120.422,-342.651,195.434,1
7.647426,-5.149,-2.813,-0.147,-73.242,-355.651,234.558,1
7.656134,-5.965,-2.965,-0.048,-3.234,-376.159,279.602,1
7.66446,-6.741,-3.103,0.001,44.006,-391.052,318.786,1
7.670771,-7.516,-3.297,0.004,58.349,-408.386,359.13,1
7.679478,-8.545,-3.5,0.08,28.32,-418.212,404.602,1
7.687704,-9.539,-3.507,0.193,-38.513,-423.706,465.454,1
7.694259,-10.699,-3.446,0.397,-90.332,-421.386,524.78,1
7.702791,-12.019,-3.343,0.587,-133.605,-414.733,589.538,1
7.711399,-13.307,-3.2,0.86,-181.64,-400.756,660.095,1
7.718053,-14.736,-2.986,1.284,-235.595,-375.793,750.732,1
7.725742,-15.999,-2.718,1.758,-261.352,-339.05,834.533,1
7.734422,-15.999,-2.354,2.173,-291.259,-287.719,921.691,1
7.741414,-15.999,-1.863,2.545,-339.294,-216.613,1009.399,1
7.74896,-15.999,-1.138,2.732,-394.897,-129.333,1093.444,1
7.758676,-15.999,-0.271,2.853,-446.411,-24.78,1168.212,1
7.766097,-15.999,0.789,2.716,-515.441,118.286,1240.722,1
7.772849,-15.999,1.826,2.417,-570.861,254.15,1286.865,1
7.781726,-15.999,3.138,2.108,-559.631,397.46,1313.232,1
7.789791,-15.999,4.381,1.534,-511.23,549.926,1320.19,1
7.796581,-15.999,5.27,0.945,-526.245,682.311,1307.434,1
7.804722,-15.999,5.798,0.291,-581.543,818.969,1277.16,1
7.811842,-15.999,6.354,-0.401,-640.136,966.308,1234.13,1
7.818794,-15.999,6.708,-1.141,-674.133,1095.459,1179.809,1
7.827876,-15.999,6.208,-2.01,-739.99,1215.881,1127.99,1
7.834681,-15.999,5.903,-3.275,-902.526,1351.074,1043.212,1
7.843149,-15.999,5.606,-4.056,-1062.377,1516.113,890.686,1
7.849795,-15.999,5.692,-5.141,-1193.847,1617.492,702.331,1
7.858274,-15.999,5.227,-5.883,-1279.296,1688.903,467.529,1
7.864819,-15.999,4.804,-6.147,-1305.847,1710.876,210.205,1
7.873008,-15.999,4.47,-6.329,-1246.826,1673.4,-49.682,1
7.880708,-15.999,2.557,-6.174,-1225.402,1590.881,-282.104,1
7.88875,-15.999,1.633,-5.553,-1141.784,1480.895,-474.487,1
7.896686,-15.999,0.794,-5.07,-938.537,1346.679,-614.44,1
7.903301,-15.999,-0.27,-4.695,-706.176,1211.486,-695.495,1
7.911908,-15.999,-1.099,-4.623,-522.399,1092.163,-728.454,1
7.920603,-15.999,-1.837,-4.618,-382.995,963.012,-734.13,1
7.92852,-15.999,-2.461,-4.5,-273.498,869.567,-720.031,1
7.936886,-15.999,-2.866,-4.66,-191.711,771.667,-686.767,1
7.944008,-15.999,-3.096,-4.603,-204.04,699.523,-656.066,1
7.952252,-15.114,-3.085,-4.52,-253.478,617.431,-623.596,1
7.960829,-12.979,-3.096,-4.281,-292.419,542.541,-600.524,1
7.970429,-10.738,-2.997,-3.914,-307.495,461.425,-574.462,1
7.979155,-8.827,-2.857,-3.418,-319.824,379.211,-549.255,1
7.987772,-7.57,-2.772,-3.087,-306.518,308.776,-521.179,1
7.996209,-6.408,-2.642,-2.712,-274.902,248.657,-495.666,1
8.003511,-5.668,-2.6,-2.504,-212.829,191.589,-462.585,1
8.01134,-5.084,-2.587,-2.33,-162.17,140.563,-427.673,1
8.019619,-4.759,-2.467,-2.122,-127.929,107.666,-398.376,1
8.027963,-4.375,-2.331,-2.039,-102.539,79.284,-370.239,1
8.036313,-3.982,-2.118,-1.86,-80.871,53.588,-343.811,1
8.043287,-3.633,-1.955,-1.741,-60.913,29.113,-314.575,1
8.051688,-3.275,-1.796,-1.613,-53.527,9.582,-292.236,1
8.060057,-2.896,-1.6,-1.439,-54.687,-7.629,-268.432,1
8.068094,-2.609,-1.507,-1.326,-67.016,-20.019,-248.962,1
8.076822,-2.434,-1.375,-1.188,-82.641,-31.188,-226.501,1
8.085796,-2.231,-1.228,-1.072,-74.646,-42.785,-204.162,1
8.093934,-2.034,-1.122,-1.001,-43.884,-52.612,-183.288,1
8.102622,-1.856,-1.061,-0.969,-22.094,-58.532,-166.015,1
8.111315,-1.645,-0.982,-0.939,-13.427,-62.927,-147.583,1
8.119767,-1.515,-0.954,-0.921,-23.864,-63.049,-132.69,1
8.128622,-1.3,-0.915,-0.888,-46.386,-64.758,-115.722,1
8.135586,-1.174,-0.855,-0.838,-53.955,-63.171,-101.44,1
8.144431,-1.031,-0.817,-0.806,-59.02,-64.147,-86.669,1
8.153341,-0.944,-0.797,-0.761,-69.03,-62.622,-74.523,1
8.160048,-0.844,-0.733,-0.738,-78.247,-62.194,-61.828,1
8.170076,-0.739,-0.67,-0.707,-81.115,-62.255,-52.062,1
8.177132,-0.679,-0.624,-0.683,-79.162,-62.377,-40.405,1
8.18586,-0.634,-0.6,-0.682,-75.195,-63.293,-32.409,1
8.193964,-0.592,-0.569,-0.669,-64.331,-64.392,-24.963,1
8.201174,-0.566,-0.54,-0.653,-44.799,-66.65,-17.395,1
8.209942,-0.526,-0.546,-0.645,-28.503,-68.054,-11.474,1
8.216656,-0.449,-0.559,-0.627,-15.747,-69.335,-6.347,1
8.225164,-0.394,-0.586,-0.603,-5.859,-69.335,-1.342,1
8.233837,-0.299,-0.6,-0.583,2.258,-69.702,4.272,1
8.240879,-0.201,-0.603,-0.555,9.643,-69.213,8.911,1
8.249281,-0.11,-0.618,-0.553,12.817,-68.908,13.305,1
8.255999,-0.039,-0.621,-0.541,9.46,-67.199,17.639,1
8.264273,-0.011,-0.596,-0.549,-2.197,-64.758,22.46,1
8.272547,-0.018,-0.568,-0.56,-17.395,-62.194,26.611,1
8.280782,-0.038,-0.547,-0.562,-35.705,-59.448,30.395,1
8.289081,-0.086,-0.509,-0.563,-54.321,-56.03,35.156,1
8.297112,-0.109,-0.479,-0.56,-61.828,-53.649,39.367,1
8.305493,-0.11,-0.441,-0.555,-59.02,-51.635,43.212,1
8.312167,-0.107,-0.419,-0.557,-44.677,-50.842,47.607,1
8.320447,-0.114,-0.404,-0.567,-29.357,-50.292,51.391,1
8.329174,-0.12,-0.419,-0.578,-18.737,-49.316,54.687,1
8.336213,-0.125,-0.434,-0.589,-14.404,-47.668,59.387,1
8.345243,-0.119,-0.458,-0.605,-17.7,-45.532,63.72,1
8.353854,-0.085,-0.492,-0.615,-26.55,-42.663,68.664,1
8.360555,-0.057,-0.515,-0.627,-42.175,-38.024,75.561,1
8.369301,-0.024,-0.513,-0.655,-58.227,-34.24,81.726,1
8.37643,-0.009,-0.504,-0.69,-74.096,-30.761,87.89,1
8.384918,0.019,-0.482,-0.708,-86.303,-27.648,95.214,1
8.394955,0.061,-0.449,-0.734,-83.496,-26.306,101.257,1
8.401953,0.129,-0.41,-0.767,-68.176,-27.343,108.825,1
8.409435,0.125,-0.359,-0.783,-47.241,-29.663,114.929,1
8.418097,0.159,-0.377,-0.821,-29.724,-32.226,120.91,1
8.426276,0.098,-0.39,-0.835,-24.475,-33.325,127.624,1
8.433183,0.01,-0.351,-0.783,-31.066,-33.203,133.972,1
8.442055,0.081,-0.392,-0.798,-49.011,-29.479,139.709,1
8.45084,0.013,-0.289,-0.68,-70.068,-26.245,147.094,1
8.457553,0.122,-0.239,-0.722,-61.706,-21.85,153.869,1
8.465538,0.061,-0.203,-0.691,-64.392,-23.071,159.301,1
8.474164,0.054,-0.187,-0.704,-64.88,-19.165,164.489,1
8.481245,0.041,-0.139,-0.717,-66.894,-20.141,168.212,1
8.490122,0.02,-0.097,-0.684,-64.819,-17.639,172.058,1
8.497102,0.009,-0.076,-0.698,-66.772,-16.906,175.903,1
8.504213,0.018,-0.026,-0.681,-62.072,-15.014,179.443,1
8.512095,0.031,0.008,-0.668,-46.874,-15.014,183.837,1
8.520876,0.009,0.018,-0.639,-33.813,-13.549,187.744,1
8.527849,-0.001,0.03,-0.617,-27.526,-11.718,192.016,1
8.536607,-0.015,0.041,-0.596,-28.991,-8.728,196.166,1
8.543638,-0.038,0.053,-0.58,-40.893,-4.028,201.171,1
8.551138,-0.071,0.073,-0.568,-56.701,1.342,205.139,1
8.559189,-0.103,0.125,-0.581,-73.852,6.835,209.411,1
8.567318,-0.123,0.186,-0.611,-89.538,11.352,212.219,1
8.574166,-0.163,0.242,-0.617,-99.548,15.747,215.087,1
8.582397,-0.161,0.331,-0.618,-97.167,18.676,217.956,1
8.590509,-0.21,0.406,-0.596,-80.688,19.836,220.52,1
8.597446,-0.23,0.448,-0.571,-55.664,19.287,223.266,1
8.605607,-0.22,0.478,-0.551,-20.08,17.578,226.989,1
8.614353,-0.203,0.483,-0.535,11.901,15.38,230.834,1
8.620927,-0.204,0.49,-0.527,38.757,13.122,235.229,1
8.629165,-0.226,0.478,-0.527,55.053,10.559,239.379,1
8.636103,-0.253,0.492,-0.522,59.875,9.338,243.591,1
8.644436,-0.306,0.523,-0.529,53.1,8.728,247.131,1
8.652737,-0.362,0.571,-0.532,39.489,7.934,249.938,1
8.659753,-0.425,0.637,-0.541,23.986,8.117,252.075,1
8.666862,-0.491,0.694,-0.541,9.948,7.995,253.54,1
8.675016,-0.529,0.736,-0.541,-3.845,8.728,254.516,1
8.683837,-0.529,0.776,-0.552,-20.996,10.192,255.004,1
8.690526,-0.533,0.816,-0.576,-34.24,11.84,255.554,1
8.698145,-0.542,0.866,-0.581,-43.64,13.366,255.92,1
8.705201,-0.54,0.931,-0.6,-47.607,15.38,256.713,1
8.713778,-0.512,1.047,-0.631,-42.907,16.113,256.713,1
8.720492,-0.503,1.152,-0.659,-27.038,14.831,255.737,1
8.72897,-0.506,1.248,-0.694,-2.868,12.39,254.211,1
8.736981,-0.52,1.316,-0.741,24.719,8.3,252.563,1
8.744786,-0.434,1.345,-0.736,57.922,3.234,250.244,1
8.753342,-0.42,1.379,-0.75,79.101,-1.22,248.352,1
8.760128,-0.474,1.345,-0.776,82.58,-5.554,244.018,1
8.768658,-0.571,1.367,-0.769,60.668,-4.821,241.027,1
8.775389,-0.556,1.399,-0.777,36.926,-5.554,236.755,1
8.783619,-0.496,1.433,-0.747,18.493,-3.845,232.727,1
8.7922,-0.477,1.477,-0.758,0.427,-2.441,227.783,1
8.798652,-0.446,1.541,-0.759,-6.225,-2.014,223.632,1
8.806803,-0.437,1.629,-0.772,-2.319,-2.624,219.177,1
8.814761,-0.419,1.704,-0.802,10.559,-4.882,214.233,1
8.823306,-0.416,1.734,-0.821,26.367,-8.728,209.106,1
8.83037,-0.449,1.765,-0.822,43.09,-12.573,203.308,1
8.839172,-0.393,1.791,-0.818,58.898,-16.601,197.937,1
8.847646,-0.354,1.811,-0.84,64.88,-20.446,191.955,1
8.854321,-0.312,1.78,-0.854,50.598,-23.132,187.561,1
8.862615,-0.299,1.854,-0.86,41.992,-25.207,180.419,1
8.869347,-0.342,1.848,-0.841,32.714,-25.695,173.278,1
8.878023,-0.332,1.811,-0.838,14.099,-26.245,165.1,1
8.886617,-0.323,1.682,-0.833,-11.779,-25.329,159.484,1
8.895203,-0.258,1.687,-0.818,-31.738,-22.888,151.733,1
8.901885,-0.299,1.699,-0.79,-47.851,-21.24,144.287,1
8.910138,-0.266,1.696,-0.81,-59.753,-20.019,138.427,1
8.918124,-0.252,1.706,-0.799,-62.438,-20.568,132.873,1
8.924819,-0.255,1.701,-0.806,-57.006,-20.629,127.197,1
8.933571,-0.236,1.692,-0.807,-49.682,-22.094,122.863,1
8.940354,-0.219,1.661,-0.79,-38.269,-23.803,118.347,1
8.948161,-0.201,1.61,-0.778,-28.259,-25.451,114.624,1
8.955053,-0.193,1.564,-0.77,-20.996,-26.672,110.229,1
8.962227,-0.177,1.527,-0.768,-18.005,-27.343,106.262,1
8.970134,-0.164,1.501,-0.767,-18.249,-27.893,102.294,1
8.977136,-0.148,1.489,-0.769,-18.005,-28.686,98.449,1
8.984919,-0.138,1.481,-0.78,-16.296,-29.418,94.604,1
8.993797,-0.12,1.464,-0.798,-14.282,-30.944,90.576,1
9.002375,-0.13,1.443,-0.809,-13.488,-32.043,86.547,1
9.009447,-0.107,1.422,-0.823,-11.84,-33.996,82.336,1
9.017329,-0.104,1.411,-0.827,-7.019,-36.132,78.613,1
9.023959,-0.115,1.396,-0.826,1.586,-38.635,75.317,1
9.032739,-0.126,1.377,-0.824,13.122,-41.503,71.716,1
9.039809,-0.129,1.342,-0.809,23.498,-43.884,68.298,1
9.046463,-0.11,1.294,-0.8,28.076,-45.959,64.941,1
9.054581,-0.063,1.275,-0.78,32.531,-47.485,62.011,1
9.063399,-0.051,1.221,-0.775,30.822,-49.133,58.776,1
9.071782,-0.071,1.178,-0.745,25.146,-49.072,56.152,1
9.078728,-0.034,1.129,-0.715,15.136,-49.133,53.1,1
9.087488,-0.031,1.084,-0.674,7.324,-48.339,51.147,1
9.094334,-0.01,1.053,-0.653,1.525,-47.851,49.499,1
9.101301,0.009,1.018,-0.626,-1.525,-47.668,48.156,1
9.109864,-0.015,0.987,-0.599,-2.014,-47.729,47.241,1
9.11682,-0.009,0.959,-0.561,0.671,-48.4,46.325,1
9.123506,0.0,0.927,-0.527,6.347,-48.645,45.837,1
9.131917,-0.032,0.898,-0.512,12.634,-49.316,45.471,1
9.140181,-0.07,0.867,-0.496,20.263,-50.109,44.921,1
9.148583,-0.093,0.83,-0.473,28.503,-50.903,44.25,1
9.155667,-0.106,0.777,-0.448,38.208,-51.757,43.579,1
9.163926,-0.142,0.74,-0.438,46.203,-52.062,43.457,1
9.170959,-0.165,0.696,-0.431,53.588,-52.49,43.029,1
9.179341,-0.191,0.635,-0.428,56.64,-52.673,42.846,1
9.186379,-0.19,0.568,-0.413,50.231,-51.94,43.029,1
9.195131,-0.189,0.548,-0.394,38.696,-50.109,43.579,1
9.202319,-0.193,0.509,-0.388,22.766,-48.889,44.311,1
9.209016,-0.239,0.481,-0.334,3.295,-46.142,45.227,1
9.217405,-0.236,0.466,-0.331,-14.221,-43.334,46.569,1
9.224481,-0.272,0.468,-0.31,-25.695,-41.259,47.851,1
9.232667,-0.294,0.474,-0.323,-29.235,-38.879,49.621,1
9.239121,-0.304,0.478,-0.319,-27.282,-38.391,51.452,1
9.246341,-0.309,0.491,-0.311,-19.653,-37.292,53.283,1
9.254053,-0.297,0.489,-0.319,-8.056,-37.231,55.297,1
9.262013,-0.3,0.494,-0.311,6.652,-36.987,57.25,1
9.26894,-0.299,0.484,-0.318,20.751,-37.048,59.265,1
9.277294,-0.309,0.475,-0.315,33.081,-37.292,61.157,1
9.284293,-0.3,0.462,-0.317,43.273,-36.682,63.293,1
9.292772,-0.29,0.453,-0.315,49.438,-36.56,65.063,1
9.299402,-0.293,0.443,-0.318,50.231,-35.4,66.894,1
9.307253,-0.297,0.436,-0.323,44.494,-34.179,69.091,1
9.315534,-0.3,0.437,-0.327,34.179,-32.104,71.105,1
9.322869,-0.308,0.442,-0.324,23.62,-30.029,73.242,1
9.332402,-0.315,0.458,-0.318,15.319,-28.198,75.012,1
9.338244,-0.324,0.479,-0.309,10.62,-26.184,76.721,1
9.347066,-0.335,0.493,-0.307,9.155,-24.108,78.369,1
9.353623,-0.349,0.501,-0.308,9.338,-22.399,79.956,1
9.361704,-0.352,0.511,-0.31,11.535,-21.179,81.848,1
9.368568,-0.345,0.521,-0.311,17.822,-20.507,83.74,1
9.376568,-0.343,0.533,-0.312,28.137,-19.836,85.51,1
9.383222,-0.348,0.533,-0.314,39.855,-19.47,87.463,1
9.391783,-0.357,0.535,-0.326,49.743,-18.798,89.477,1
9.398355,-0.368,0.541,-0.346,55.297,-18.554,91.552,1
9.406691,-0.381,0.544,-0.363,57.617,-18.066,93.139,1
9.414882,-0.395,0.558,-0.383,56.762,-17.822,94.787,1
9.421986,-0.419,0.57,-0.394,54.199,-17.333,96.374,1
9.430479,-0.428,0.582,-0.4,50.109,-16.357,97.839,1
9.438861,-0.442,0.59,-0.397,45.837,-16.174,99.914,1
9.44681,-0.457,0.607,-0.4,41.503,-15.258,101.074,1
9.453476,-0.463,0.618,-0.405,37.048,-14.282,102.6,1
9.460236,-0.503,0.645,-0.413,34.24,-13.427,103.576,1
9.468685,-0.519,0.671,-0.424,36.56,-13.488,104.431,1
9.475551,-0.519,0.696,-0.423,44.616,-14.282,105.224,1
9.482502,-0.511,0.705,-0.431,55.175,-15.258,105.957,1
9.490552,-0.52,0.708,-0.427,64.514,-16.479,106.506,1
9.5002,-0.528,0.707,-0.428,76.293,-17.944,107.727,1
9.507159,-0.538,0.709,-0.44,83.496,-19.348,108.703,1
9.515888,-0.546,0.711,-0.451,84.594,-20.08,109.741,1
9.522901,-0.558,0.721,-0.457,82.641,-20.996,110.473,1
9.531379,-0.567,0.726,-0.453,78.613,-21.301,111.083,1
9.539882,-0.571,0.734,-0.446,73.242,-21.24,111.572,1
9.546917,-0.589,0.749,-0.439,67.016,-21.301,112.121,1
9.553674,-0.602,0.764,-0.437,62.683,-21.362,112.731,1
9.560671,-0.61,0.779,-0.434,59.326,-21.423,112.792,1
9.569186,-0.624,0.791,-0.435,57.495,-21.423,112.609,1
9.576044,-0.632,0.799,-0.428,55.725,-21.667,113.037,1
9.584832,-0.643,0.8,-0.42,55.48,-21.606,113.098,1
9.591877,-0.663,0.824,-0.416,56.457,-22.277,113.281,1
9.598559,-0.666,0.843,-0.406,60.058,-22.583,113.342,1
9.607339,-0.665,0.852,-0.402,66.406,-23.01,113.281,1
9.614091,-0.66,0.849,-0.397,71.655,-23.559,112.976,1
9.622893,-0.659,0.846,-0.384,74.096,-23.864,113.403,1
9.629537,-0.674,0.852,-0.386,72.692,-23.498,113.464,1
9.636559,-0.687,0.857,-0.38,68.237,-23.01,113.159,1
9.643672,-0.687,0.866,-0.377,59.936,-22.033,113.159,1
9.651856,-0.69,0.874,-0.37,49.804,-20.385,112.67,1
9.659058,-0.691,0.891,-0.366,39.855,-18.859,112.06,1
9.667873,-0.694,0.907,-0.362,31.616,-17.15,111.572,1
9.674769,-0.704,0.932,-0.367,23.803,-15.38,110.412,1
9.683144,-0.719,0.952,-0.381,18.432,-14.404,109.13,1
9.691812,-0.731,0.976,-0.387,14.404,-13.305,107.604,1
9.698995,-0.742,0.992,-0.387,13.427,-12.634,106.079,1
9.705599,-0.736,1.0,-0.387,15.808,-12.573,104.125,1
9.71426,-0.74,0.999,-0.381,20.629,-12.634,102.478,1
9.72141,-0.743,0.995,-0.383,25.817,-12.939,100.463,1
9.729434,-0.756,0.985,-0.389,30.456,-13.0,98.876,1
9.736483,-0.745,0.971,-0.387,34.362,-13.549,97.473,1
9.743428,-0.788,0.953,-0.384,35.583,-13.0,96.557,1
9.751923,-0.79,0.948,-0.391,35.522,-13.061,95.275,1
9.759786,-0.792,0.934,-0.376,36.926,-13.061,94.604,1
9.766438,-0.796,0.921,-0.382,38.024,-13.0,93.872,1
9.77359,-0.812,0.916,-0.376,39.062,-12.878,93.383,1
9.781619,-0.82,0.907,-0.374,41.32,-13.122,92.59,1
9.788153,-0.835,0.899,-0.365,42.968,-13.122,92.163,1
9.796413,-0.835,0.887,-0.365,45.593,-13.244,91.796,1
9.803567,-0.834,0.884,-0.37,46.63,-13.366,91.369,1
9.810385,-0.837,0.875,-0.366,47.546,-13.122,91.003,1
9.818851,-0.838,0.876,-0.364,49.194,-13.366,90.637,1
9.827534,-0.842,0.874,-0.356,52.917,-13.61,90.209,1
9.83472,-0.827,0.871,-0.361,60.241,-14.465,89.477,1
9.842595,-0.81,0.869,-0.353,68.725,-15.38,88.623,1
9.850952,-0.796,0.862,-0.355,77.697,-16.723,87.646,1
9.857202,-0.795,0.845,-0.354,85.327,-18.31,86.791,1
9.865086,-0.796,0.835,-0.355,91.308,-19.409,85.449,1
9.873655,-0.799,0.824,-0.35,95.031,-20.812,84.106,1
9.881673,-0.794,0.815,-0.344,97.29,-21.667,82.58,1
9.888394,-0.786,0.801,-0.34,95.764,-22.338,80.688,1
9.897159,-0.79,0.796,-0.333,91.613,-22.216,79.223,1
9.904173,-0.794,0.791,-0.333,85.266,-21.972,77.27,1
9.912714,-0.806,0.789,-0.323,78.613,-21.423,75.439,1
9.919841,-0.799,0.785,-0.316,72.509,-21.179,73.608,1
9.927951,-0.806,0.784,-0.301,67.993,-20.385,71.35,1
9.936552,-0.817,0.773,-0.297,66.284,-19.714,69.396,1
9.944525,-0.824,0.761,-0.286,66.528,-19.409,67.443,1
9.952403,-0.825,0.749,-0.281,68.054,-18.92,65.368,1
9.960898,-0.838,0.735,-0.281,70.19,-18.859,63.781,1
9.969659,-0.85,0.731,-0.28,73.486,-18.31,62.133,1
9.976475,-0.843,0.712,-0.279,77.575,-18.798,60.607,1
9.983441,-0.845,0.698,-0.28,82.092,-18.737,59.265,1
9.990989,-0.856,0.686,-0.284,85.021,-18.798,58.044,1
9.999087,-0.854,0.67,-0.285,87.219,-18.92,56.518,1
