timestamp_s,ax,ay,az,gx,gy,gz,label
0.00581,0.675,0.756,0.072,0.305,-0.854,-1.281,1
0.014058,0.68,0.751,0.07,0.549,-0.793,-1.098,1
0.020205,0.681,0.749,0.071,0.915,-0.671,-1.281,1
0.027512,0.68,0.746,0.071,0.244,-0.793,-1.281,1
0.034615,0.68,0.744,0.072,0.061,-0.793,-1.342,1
0.04177,0.679,0.748,0.072,0.183,-0.61,-1.159,1
0.0496,0.678,0.748,0.071,0.305,-0.671,-1.281,1
0.058307,0.677,0.748,0.07,0.671,-0.854,-1.098,1
0.06672,0.679,0.747,0.07,0.366,-0.793,-1.281,1
0.073165,0.675,0.746,0.069,-0.488,-0.61,-1.22,1
0.081775,0.677,0.744,0.071,-0.366,-0.671,-1.159,1
0.088867,0.677,0.741,0.068,0.0,-0.732,-1.281,1
0.096957,0.682,0.742,0.069,0.549,-0.732,-1.22,1
0.105089,0.68,0.74,0.069,0.366,-0.793,-1.159,1
0.113068,0.673,0.738,0.07,0.183,-1.037,-0.915,1
0.120985,0.675,0.733,0.071,0.244,-0.854,-0.976,1
0.129352,0.674,0.735,0.071,0.488,-0.732,-0.915,1
0.135905,0.675,0.729,0.074,0.671,-1.037,-0.854,1
0.14383,0.677,0.73,0.072,0.305,-0.915,-0.793,1
0.152338,0.678,0.733,0.069,-0.122,-0.793,-0.61,1
0.159551,0.678,0.732,0.067,-0.061,-1.037,-0.549,1
0.167026,0.677,0.728,0.069,0.122,-0.854,-0.488,1
0.175198,0.676,0.728,0.069,0.61,-0.915,-0.427,1
0.183965,0.672,0.732,0.067,0.549,-0.793,-0.061,1
0.190625,0.681,0.731,0.066,0.305,-0.976,0.122,1
0.198349,0.68,0.733,0.069,0.488,-1.037,-0.122,1
0.207175,0.677,0.731,0.069,0.427,-1.159,0.183,1
0.213803,0.677,0.732,0.067,0.915,-1.342,0.305,1
0.221513,0.674,0.729,0.073,0.427,-1.037,0.366,1
0.22895,0.679,0.736,0.073,-0.061,-0.915,0.366,1
0.237963,0.681,0.742,0.071,-0.549,-1.22,0.549,1
0.245403,0.677,0.742,0.074,-0.061,-1.281,0.427,1
0.254332,0.682,0.744,0.074,0.671,-1.403,0.305,1
0.261637,0.678,0.743,0.079,0.732,-1.464,0.427,1
0.268985,0.682,0.744,0.081,0.427,-1.22,0.244,1
0.278278,0.683,0.741,0.081,0.61,-1.281,0.549,1
0.285325,0.684,0.742,0.084,1.159,-1.22,0.183,1
0.292646,0.682,0.735,0.086,1.77,-1.098,0.305,1
0.302096,0.681,0.736,0.086,1.647,-0.976,0.488,1
0.309327,0.675,0.732,0.086,1.403,-0.793,0.61,1
0.315769,0.673,0.733,0.087,0.854,-0.488,0.793,1
0.325246,0.669,0.739,0.084,-0.122,-0.366,0.854,1
0.332632,0.675,0.748,0.079,-0.488,-0.427,0.976,1
0.340081,0.673,0.746,0.076,-0.671,-0.488,0.854,1
0.349233,0.673,0.751,0.074,-0.305,-0.549,0.732,1
0.357312,0.67,0.747,0.073,0.427,-0.244,0.793,1
0.36464,0.675,0.751,0.077,0.61,-0.488,0.671,1
0.372121,0.67,0.753,0.076,0.549,-0.488,0.549,1
0.38031,0.675,0.752,0.073,0.0,-0.366,0.61,1
0.387084,0.675,0.754,0.072,-0.366,-0.488,0.732,1
0.394952,0.679,0.754,0.073,0.061,-0.549,0.61,1
0.403129,0.676,0.754,0.075,0.61,-0.854,0.61,1
0.410501,0.678,0.747,0.076,0.976,-0.915,0.366,1
0.419308,0.685,0.745,0.077,1.037,-0.793,0.305,1
0.426529,0.682,0.748,0.08,0.732,-0.671,0.61,1
0.435297,0.68,0.746,0.077,0.305,-0.61,0.732,1
0.443962,0.68,0.748,0.074,-0.488,-0.427,0.61,1
0.451044,0.681,0.753,0.071,-0.61,-0.671,0.549,1
0.458898,0.679,0.757,0.071,-0.061,-0.549,0.366,1
0.466284,0.679,0.756,0.073,0.427,-0.549,0.427,1
0.475424,0.679,0.754,0.072,0.671,-0.671,0.488,1
0.48264,0.683,0.755,0.076,0.732,-0.854,0.366,1
0.490787,0.682,0.756,0.081,1.037,-0.793,0.122,1
0.498323,0.676,0.756,0.081,1.281,-0.915,0.427,1
0.506228,0.677,0.756,0.081,0.915,-0.671,0.305,1
0.514333,0.68,0.755,0.079,0.305,-0.549,0.183,1
0.521205,0.677,0.757,0.078,0.061,-0.549,0.122,1
0.528516,0.677,0.76,0.081,-0.122,-0.488,0.0,1
0.537135,0.676,0.755,0.081,-0.122,-0.488,0.366,1
0.545167,0.677,0.757,0.079,-0.305,-0.488,-0.122,1
0.552397,0.68,0.75,0.08,0.0,-0.305,-0.122,1
0.561715,0.679,0.751,0.079,0.488,-0.549,-0.549,1
0.570076,0.678,0.75,0.081,0.366,-0.61,-0.305,1
0.578113,0.676,0.749,0.081,0.976,-0.488,-0.305,1
0.585524,0.671,0.747,0.079,0.976,-0.488,-0.244,1
0.592356,0.675,0.747,0.079,0.854,-0.366,-0.305,1
0.60098,0.675,0.749,0.076,0.305,-0.305,-0.366,1
0.608134,0.673,0.747,0.076,-0.488,-0.244,-0.305,1
0.61672,0.672,0.747,0.072,-0.61,-0.488,-0.183,1
0.623659,0.674,0.746,0.071,-0.61,-0.427,0.0,1
0.631713,0.678,0.742,0.074,-0.427,-0.427,-0.122,1
0.639922,0.674,0.745,0.074,-0.061,-0.671,-0.183,1
0.646702,0.676,0.74,0.074,0.122,-0.549,-0.061,1
0.654782,0.677,0.738,0.076,0.427,-0.671,-0.122,1
0.663047,0.671,0.739,0.078,0.793,-0.549,0.0,1
0.671569,0.672,0.736,0.076,0.976,-0.671,0.183,1
0.679543,0.678,0.738,0.078,0.549,-0.366,0.061,1
0.686522,0.679,0.737,0.076,-0.061,-0.488,0.183,1
0.694942,0.675,0.741,0.075,-0.427,-0.427,0.427,1
0.703125,0.672,0.742,0.076,-0.305,-0.427,0.305,1
0.710052,0.676,0.741,0.077,-0.122,-0.366,0.122,1
0.718384,0.677,0.738,0.078,0.366,-0.61,0.366,1
0.726294,0.678,0.742,0.078,0.549,-0.549,0.366,1
0.733565,0.675,0.735,0.08,0.732,-0.671,0.488,1
0.741429,0.677,0.738,0.08,0.671,-0.488,0.488,1
0.748423,0.675,0.742,0.079,0.366,-0.366,0.549,1
0.757525,0.678,0.745,0.078,-0.305,-0.61,0.793,1
0.765473,0.668,0.743,0.078,0.061,-0.671,0.671,1
0.772282,0.675,0.744,0.078,0.305,-0.671,0.732,1
0.779667,0.674,0.75,0.078,0.122,-0.549,0.549,1
0.788547,0.675,0.748,0.08,-0.183,-0.305,0.671,1
0.796457,0.678,0.75,0.078,-0.183,-0.427,0.61,1
0.804359,0.672,0.747,0.083,-0.244,-0.671,0.61,1
0.812005,0.672,0.743,0.079,-0.305,-0.366,0.732,1
0.819557,0.674,0.742,0.08,-0.244,-0.488,0.549,1
0.827794,0.673,0.745,0.078,-0.488,-0.671,0.671,1
0.835661,0.673,0.745,0.077,-0.915,-0.305,0.854,1
0.843671,0.67,0.747,0.076,-0.732,-0.244,0.854,1
0.850223,0.675,0.745,0.072,-0.488,-0.549,0.793,1
0.85949,0.675,0.749,0.074,-0.427,-0.549,0.854,1
0.867099,0.678,0.749,0.076,-0.305,-0.61,0.915,1
0.875047,0.676,0.753,0.077,-0.183,-0.732,0.793,1
0.881937,0.68,0.752,0.077,-0.61,-0.305,0.671,1
0.890612,0.676,0.76,0.078,-1.098,-0.488,0.671,1
0.897517,0.673,0.763,0.077,-1.22,-0.488,0.732,1
0.906345,0.672,0.764,0.078,-1.159,-0.427,0.732,1
0.913617,0.674,0.765,0.076,-1.098,-0.488,0.61,1
0.92225,0.674,0.765,0.08,-0.854,-0.488,0.61,1
0.92905,0.677,0.762,0.08,-0.427,-0.61,0.488,1
0.936634,0.675,0.764,0.078,-0.183,-0.732,0.305,1
0.94469,0.677,0.76,0.081,0.0,-0.61,0.061,1
0.952256,0.678,0.761,0.083,0.244,-0.671,0.061,1
0.960455,0.682,0.76,0.085,0.122,-0.61,0.122,1
0.969615,0.678,0.759,0.083,-0.244,-0.488,-0.183,1
0.976428,0.68,0.762,0.081,-0.61,-0.427,0.0,1
0.985666,0.678,0.758,0.084,-0.427,-0.427,-0.122,1
0.992624,0.675,0.76,0.083,0.061,-0.244,-0.305,1
1.000037,0.671,0.762,0.083,-0.061,-0.183,-0.671,1
1.008117,0.674,0.759,0.083,0.183,-0.122,-0.549,1
1.016405,0.674,0.755,0.082,-0.122,-0.244,-0.549,1
1.024696,0.676,0.752,0.078,-0.305,-0.061,-0.366,1
1.031484,0.669,0.751,0.081,-0.183,-0.122,-0.427,1
1.04061,0.669,0.754,0.076,0.183,-0.244,-0.61,1
1.047601,0.668,0.749,0.076,0.366,0.0,-0.549,1
1.054682,0.67,0.75,0.077,0.366,-0.122,-0.427,1
1.062784,0.668,0.75,0.076,0.061,-0.061,-0.427,1
1.069559,0.67,0.75,0.077,0.183,-0.122,-0.427,1
1.078536,0.675,0.748,0.077,0.183,-0.305,-0.366,1
1.086925,0.67,0.745,0.074,0.244,-0.305,-0.305,1
1.093354,0.67,0.744,0.078,0.061,-0.488,-0.549,1
1.101115,0.671,0.745,0.078,0.305,-0.366,-0.244,1
1.109219,0.673,0.744,0.077,0.427,-0.366,-0.183,1
1.117649,0.673,0.74,0.078,0.183,-0.183,-0.244,1
1.124709,0.675,0.744,0.077,0.061,-0.305,-0.244,1
1.133285,0.673,0.749,0.076,0.061,-0.366,-0.122,1
1.141185,0.67,0.743,0.074,0.183,-0.183,-0.305,1
1.149085,0.677,0.745,0.079,0.366,-0.244,0.0,1
1.156634,0.677,0.741,0.078,0.244,-0.366,-0.061,1
1.164317,0.673,0.74,0.076,0.122,-0.183,0.122,1
1.171886,0.678,0.741,0.076,0.366,-0.122,-0.122,1
1.180397,0.676,0.741,0.078,0.549,-0.305,-0.061,1
1.187546,0.675,0.743,0.078,0.488,-0.244,0.244,1
1.195814,0.672,0.747,0.079,0.122,-0.183,0.061,1
1.20386,0.676,0.744,0.075,-0.183,-0.183,0.122,1
1.21087,0.677,0.75,0.076,-0.183,-0.549,0.366,1
1.219494,0.674,0.749,0.077,-0.305,-0.366,0.061,1
1.22713,0.678,0.75,0.077,0.0,-0.488,0.244,1
1.233897,0.676,0.749,0.077,0.549,-0.366,0.122,1
1.241328,0.679,0.747,0.078,0.549,-0.549,0.183,1
1.248875,0.675,0.75,0.081,0.427,-0.366,0.061,1
1.257717,0.679,0.748,0.081,0.488,-0.244,0.061,1
1.264503,0.673,0.752,0.082,0.671,-0.183,0.305,1
1.271999,0.668,0.752,0.078,0.122,-0.183,0.305,1
1.281092,0.675,0.761,0.078,-0.549,-0.366,0.244,1
1.288024,0.677,0.76,0.075,-0.427,0.061,0.244,1
1.297054,0.674,0.756,0.077,0.183,-0.305,-0.061,1
1.305057,0.677,0.76,0.075,0.244,-0.427,-0.183,1
1.311734,0.673,0.76,0.075,0.061,-0.488,-0.305,1
1.320197,0.676,0.754,0.077,-0.061,-0.427,-0.366,1
1.327766,0.676,0.753,0.075,0.061,-0.427,-0.427,1
1.335413,0.675,0.751,0.078,0.305,-0.61,-0.244,1
1.34347,0.676,0.748,0.079,0.366,-0.427,-0.244,1
1.351222,0.675,0.748,0.08,0.671,-0.244,-0.183,1
1.360473,0.676,0.745,0.078,-0.061,-0.549,-0.183,1
1.36736,0.67,0.746,0.077,-0.305,-0.488,-0.244,1
1.376299,0.674,0.75,0.077,0.0,-0.488,-0.122,1
1.383595,0.677,0.743,0.076,0.549,-0.61,0.061,1
1.390825,0.674,0.743,0.078,0.488,-0.671,0.061,1
1.398381,0.67,0.743,0.076,0.732,-0.671,0.0,1
1.407417,0.671,0.738,0.078,1.037,-0.366,-0.122,1
1.41446,0.672,0.735,0.083,1.159,-0.427,0.183,1
1.42258,0.673,0.732,0.082,1.159,-0.671,0.244,1
1.430608,0.669,0.734,0.078,0.671,-0.549,0.488,1
1.437548,0.671,0.74,0.076,0.183,-0.61,0.488,1
1.445356,0.668,0.739,0.077,0.183,-0.488,0.61,1
1.454184,0.674,0.742,0.079,0.305,-0.549,0.366,1
1.461122,0.672,0.74,0.08,1.037,-0.854,0.61,1
1.469894,0.673,0.744,0.082,1.22,-0.671,0.549,1
1.477039,0.677,0.744,0.084,1.342,-0.488,0.549,1
1.484818,0.672,0.744,0.088,1.281,-0.549,0.427,1
1.493381,0.668,0.743,0.089,1.159,-0.427,0.549,1
1.500382,0.671,0.745,0.093,0.854,-0.122,0.549,1
1.509224,0.673,0.747,0.094,0.61,0.0,0.732,1
1.516024,0.669,0.749,0.09,0.366,0.183,0.61,1
1.52358,0.676,0.752,0.096,0.732,0.061,0.549,1
1.530974,0.671,0.754,0.093,0.976,0.183,0.488,1
1.538181,0.67,0.753,0.092,1.281,0.305,0.61,1
1.545705,0.669,0.754,0.088,0.854,0.61,0.671,1
1.553406,0.669,0.753,0.086,0.549,0.671,0.61,1
1.562165,0.671,0.754,0.085,-0.061,0.732,0.366,1
1.568481,0.672,0.755,0.084,-0.244,0.732,0.671,1
1.577679,0.671,0.757,0.079,-0.427,0.854,0.427,1
1.585047,0.674,0.76,0.076,-0.61,0.915,0.305,1
1.59299,0.67,0.761,0.07,-0.61,0.732,0.366,1
1.599975,0.673,0.764,0.07,-0.488,0.549,0.488,1
1.606666,0.673,0.759,0.067,-0.244,0.488,0.366,1
1.614611,0.671,0.763,0.069,0.122,0.427,0.183,1
1.621257,0.673,0.755,0.062,0.61,0.122,0.0,1
1.629707,0.672,0.751,0.063,0.793,0.122,0.122,1
1.636296,0.674,0.749,0.064,0.854,-0.183,0.061,1
1.644061,0.675,0.75,0.066,0.61,-0.061,0.305,1
1.653427,0.669,0.75,0.063,0.427,-0.244,0.122,1
1.661233,0.674,0.75,0.062,0.244,-0.488,0.0,1
1.667921,0.677,0.75,0.065,0.122,-0.549,0.061,1
1.676282,0.672,0.75,0.065,0.305,-0.854,0.183,1
1.684134,0.674,0.75,0.062,0.61,-0.793,0.061,1
1.691088,0.672,0.75,0.065,0.549,-0.915,0.305,1
1.699896,0.673,0.752,0.071,0.488,-1.098,0.0,1
1.706399,0.676,0.75,0.073,0.427,-1.159,0.061,1
1.713946,0.682,0.752,0.081,0.549,-1.22,0.183,1
1.723149,0.674,0.755,0.082,0.488,-1.22,0.183,1
1.7306,0.675,0.755,0.085,0.366,-1.342,0.244,1
1.737927,0.677,0.755,0.091,0.366,-1.098,0.122,1
1.744982,0.675,0.761,0.094,0.366,-1.098,-0.061,1
1.753494,0.676,0.762,0.098,0.549,-0.854,-0.183,1
1.762166,0.668,0.76,0.1,0.122,-0.549,-0.244,1
1.770601,0.675,0.759,0.101,-0.183,-0.732,-0.244,1
1.778555,0.669,0.76,0.096,-0.549,-0.244,-0.122,1
1.785592,0.669,0.759,0.099,-0.854,0.061,-0.366,1
1.793272,0.67,0.76,0.098,-0.732,0.061,-0.366,1
1.802306,0.667,0.757,0.095,-0.732,0.244,-0.549,1
1.810365,0.667,0.754,0.089,-0.305,0.488,-0.732,1
1.818292,0.668,0.752,0.089,0.366,0.305,-0.366,1
1.826136,0.666,0.75,0.09,0.122,0.305,-0.427,1
1.833414,0.669,0.745,0.083,0.0,0.549,-0.427,1
1.842198,0.667,0.744,0.083,0.244,0.549,-0.427,1
1.849275,0.666,0.746,0.083,-0.366,0.488,-0.244,1
1.858204,0.67,0.744,0.08,-0.183,0.366,-0.122,1
1.865047,0.672,0.74,0.081,-0.122,0.488,-0.061,1
1.872025,0.668,0.738,0.08,0.305,0.427,0.122,1
1.880415,0.667,0.738,0.078,0.183,0.488,-0.061,1
1.887418,0.67,0.74,0.079,0.183,0.488,0.183,1
1.89558,0.675,0.741,0.078,0.244,0.427,0.183,1
1.902593,0.675,0.739,0.079,0.366,0.366,0.305,1
1.911584,0.674,0.738,0.077,0.244,0.488,0.488,1
1.917631,0.672,0.737,0.078,0.0,0.61,0.366,1
1.925784,0.675,0.735,0.074,-0.122,0.671,0.61,1
1.934481,0.677,0.734,0.078,0.183,0.488,0.793,1
1.942088,0.675,0.731,0.076,0.183,0.366,0.793,1
1.948868,0.675,0.729,0.075,-0.061,0.61,1.037,1
1.956828,0.674,0.73,0.075,-0.061,0.61,0.854,1
1.966001,0.672,0.726,0.074,-0.366,0.549,1.342,1
1.973085,0.672,0.728,0.073,-0.305,0.366,1.464,1
1.981672,0.67,0.726,0.07,0.0,0.183,1.281,1
1.988868,0.668,0.726,0.067,0.549,0.061,1.831,1
1.997537,0.671,0.72,0.067,1.586,-0.244,1.708,1
2.005076,0.667,0.722,0.065,2.136,-0.61,1.953,1
2.012128,0.664,0.719,0.062,3.295,-0.976,2.075,1
2.021557,0.662,0.718,0.063,4.089,-1.403,2.319,1
2.028235,0.655,0.713,0.061,4.638,-1.525,2.624,1
2.037498,0.66,0.712,0.064,5.615,-2.136,2.685,1
2.043509,0.654,0.709,0.069,5.371,-2.502,3.112,1
2.052771,0.651,0.711,0.077,5.798,-2.746,3.356,1
2.059677,0.654,0.708,0.083,6.896,-2.929,3.723,1
2.068562,0.645,0.711,0.091,8.605,-3.234,4.028,1
2.075519,0.643,0.714,0.11,11.291,-3.601,4.15,1
2.082622,0.645,0.715,0.126,13.61,-3.967,4.821,1
2.090378,0.64,0.717,0.143,15.38,-3.967,5.065,1
2.098675,0.642,0.717,0.155,15.136,-3.54,5.554,1
2.106452,0.634,0.716,0.183,14.038,-3.173,5.615,1
2.115908,0.631,0.721,0.21,13.916,-2.807,5.981,1
2.123579,0.642,0.733,0.243,15.502,-2.136,6.591,1
2.130969,0.643,0.75,0.283,19.714,-2.075,6.958,1
2.137572,0.615,0.781,0.332,25.695,-1.953,7.202,1
2.146699,0.61,0.798,0.385,30.761,-1.281,7.202,1
2.15205,0.614,0.802,0.433,34.484,-0.183,7.08,1
2.160449,0.616,0.809,0.482,35.888,1.159,7.019,1
2.167079,0.617,0.819,0.541,37.475,2.807,7.019,1
2.175124,0.617,0.821,0.595,39.733,4.699,6.652,1
2.183701,0.632,0.833,0.65,43.884,6.652,6.591,1
2.190579,0.626,0.83,0.729,47.363,9.582,6.225,1
2.197463,0.62,0.826,0.806,47.912,13.122,5.981,1
2.204404,0.603,0.818,0.883,45.166,17.456,5.737,1
2.21091,0.608,0.82,0.951,43.273,22.094,5.493,1
2.219478,0.608,0.825,1.024,44.189,27.465,5.249,1
2.22598,0.611,0.82,1.095,48.583,32.348,5.126,1
2.234121,0.608,0.806,1.168,54.809,37.963,5.065,1
2.241098,0.592,0.796,1.246,58.105,44.311,5.554,1
2.248098,0.551,0.786,1.303,57.617,52.062,6.042,1
2.255772,0.524,0.791,1.328,55.664,60.058,6.53,1
2.262925,0.508,0.801,1.34,54.382,65.979,6.958,1
2.270586,0.481,0.803,1.352,54.931,73.669,7.69,1
2.278376,0.449,0.806,1.336,53.955,81.176,8.422,1
2.285306,0.421,0.811,1.332,52.246,88.073,8.789,1
2.293616,0.412,0.816,1.333,53.833,95.092,9.338,1
2.301449,0.394,0.816,1.329,57.067,102.233,10.314,1
2.308001,0.346,0.828,1.302,58.471,109.374,10.925,1
2.315326,0.316,0.845,1.266,57.739,115.051,11.657,1
2.323803,0.281,0.885,1.207,57.006,123.046,11.901,1
2.3311,0.269,0.917,1.143,58.959,128.662,11.779,1
2.338771,0.239,0.939,1.082,61.706,134.338,11.596,1
2.346432,0.23,0.956,1.023,65.002,138.916,11.352,1
2.354177,0.211,0.958,0.976,67.077,143.859,11.169,1
2.361469,0.192,0.973,0.915,66.406,149.353,11.291,1
2.370222,0.166,0.995,0.835,65.124,153.869,11.23,1
2.376749,0.143,1.03,0.757,67.443,158.142,10.559,1
2.385048,0.097,1.052,0.698,70.8,160.4,10.375,1
2.391647,0.049,1.085,0.649,73.547,164.245,10.253,1
2.400688,0.035,1.129,0.545,74.34,166.87,9.582,1
2.407962,0.013,1.164,0.44,74.035,168.762,8.483,1
2.415528,0.012,1.18,0.356,72.875,170.715,6.896,1
2.424517,0.014,1.194,0.297,72.021,171.813,5.737,1
2.43167,0.011,1.208,0.218,71.044,173.156,4.211,1
2.438924,0.006,1.223,0.139,70.8,174.133,2.746,1
2.446744,-0.003,1.235,0.061,72.204,174.072,1.342,1
2.454163,0.018,1.226,-0.023,75.5,174.072,0.122,1
2.461758,0.023,1.229,-0.107,77.453,173.156,-0.976,1
2.469533,0.026,1.236,-0.176,81.176,172.119,-1.77,1
2.477024,0.021,1.239,-0.257,85.144,170.349,-2.807,1
2.48506,0.028,1.228,-0.322,86.669,168.273,-4.089,1
2.494061,0.029,1.209,-0.375,84.777,166.076,-4.943,1
2.502105,0.032,1.201,-0.415,83.251,163.757,-5.798,1
2.509104,0.053,1.185,-0.444,83.435,160.949,-6.958,1
2.51655,0.058,1.169,-0.486,84.045,158.264,-7.324,1
2.523968,0.067,1.151,-0.534,83.435,154.235,-8.178,1
2.532502,0.076,1.136,-0.574,82.275,151.184,-8.911,1
2.540413,0.094,1.117,-0.623,78.43,147.46,-9.582,1
2.549105,0.105,1.102,-0.657,76.11,143.554,-10.314,1
2.556292,0.121,1.07,-0.675,73.425,139.404,-10.864,1
2.565384,0.145,1.039,-0.683,71.044,135.498,-11.169,1
2.572046,0.178,1.004,-0.675,69.519,132.263,-11.108,1
2.58062,0.214,0.97,-0.668,66.467,128.173,-10.864,1
2.589087,0.25,0.95,-0.651,63.293,125.61,-10.07,1
2.59651,0.272,0.949,-0.635,60.791,122.68,-9.46,1
2.605592,0.286,0.949,-0.625,60.607,120.056,-8.789,1
2.614004,0.297,0.958,-0.648,59.814,117.614,-8.239,1
2.621048,0.299,0.967,-0.684,56.884,115.295,-7.995,1
2.628308,0.302,0.978,-0.746,52.124,112.854,-7.934,1
2.637281,0.304,0.986,-0.789,48.583,110.046,-8.666,1
2.644416,0.314,0.997,-0.828,47.607,106.445,-8.972,1
2.653298,0.326,1.001,-0.836,49.804,101.867,-9.582,1
2.660459,0.349,0.989,-0.839,51.086,98.327,-10.314,1
2.669284,0.375,0.972,-0.842,48.4,94.421,-11.108,1
2.67627,0.382,0.962,-0.854,44.311,92.407,-11.779,1
2.683746,0.404,0.954,-0.883,38.085,88.562,-12.634,1
2.692958,0.416,0.946,-0.891,36.987,84.655,-13.549,1
2.698967,0.437,0.927,-0.902,37.048,80.505,-13.916,1
2.708043,0.458,0.897,-0.896,36.437,76.049,-14.465,1
2.715849,0.465,0.86,-0.883,34.667,71.716,-14.343,1
2.724984,0.487,0.83,-0.859,33.752,68.115,-14.038,1
2.731652,0.496,0.789,-0.833,32.653,64.147,-13.305,1
2.73923,0.505,0.767,-0.807,30.944,61.218,-12.207,1
2.747038,0.507,0.745,-0.789,27.954,58.41,-11.413,1
2.755521,0.507,0.739,-0.774,23.986,55.847,-10.62,1
2.763686,0.498,0.735,-0.756,20.629,53.039,-10.131,1
2.771131,0.49,0.735,-0.749,18.31,50.292,-9.399,1
2.779559,0.491,0.726,-0.738,15.014,47.79,-9.094,1
2.787445,0.485,0.72,-0.726,11.718,45.227,-9.033,1
2.794476,0.496,0.72,-0.711,9.826,42.297,-8.911,1
2.801935,0.495,0.712,-0.684,9.033,39.672,-8.789,1
2.811236,0.518,0.702,-0.66,7.69,36.865,-8.789,1
2.818553,0.536,0.698,-0.635,6.103,34.667,-8.483,1
2.825888,0.567,0.682,-0.622,2.868,33.264,-8.422,1
2.834024,0.603,0.681,-0.605,-1.342,31.066,-8.239,1
2.843098,0.629,0.685,-0.583,-2.258,29.479,-7.812,1
2.851625,0.666,0.684,-0.574,-2.014,27.648,-7.385,1
2.859222,0.688,0.682,-0.565,-2.441,25.939,-7.019,1
2.867989,0.706,0.696,-0.577,-3.295,24.414,-6.591,1
2.87644,0.713,0.711,-0.584,-3.723,22.216,-6.408,1
2.883303,0.708,0.726,-0.601,-4.455,20.08,-6.53,1
2.891255,0.71,0.735,-0.618,-4.699,17.456,-6.713,1
2.900244,0.706,0.742,-0.627,-5.004,14.648,-7.141,1
2.90783,0.691,0.747,-0.624,-3.906,11.901,-7.263,1
2.914941,0.681,0.751,-0.625,-3.601,9.277,-8.056,1
2.922686,0.666,0.743,-0.62,-3.479,5.859,-8.422,1
2.930968,0.66,0.739,-0.607,-3.662,3.356,-8.728,1
2.939658,0.652,0.731,-0.587,-3.601,0.732,-9.155,1
2.948675,0.645,0.718,-0.55,-2.685,-1.953,-9.399,1
2.955777,0.645,0.707,-0.516,-2.563,-3.967,-9.399,1
2.963552,0.647,0.696,-0.484,-3.356,-6.042,-9.155,1
2.97266,0.642,0.687,-0.451,-4.394,-7.202,-8.85,1
2.981184,0.648,0.685,-0.428,-5.981,-8.911,-8.605,1
2.988264,0.647,0.688,-0.399,-6.042,-10.253,-8.056,1
2.996694,0.649,0.688,-0.373,-5.92,-11.474,-7.751,1
3.005631,0.647,0.688,-0.338,-5.554,-12.268,-7.446,1
3.012778,0.645,0.689,-0.312,-5.31,-13.122,-6.835,1
3.021675,0.645,0.685,-0.279,-5.065,-13.61,-6.347,1
3.030474,0.641,0.688,-0.25,-4.882,-13.549,-6.164,1
3.038393,0.635,0.689,-0.221,-4.638,-13.671,-5.676,1
3.047022,0.627,0.687,-0.192,-4.882,-13.305,-5.432,1
3.054399,0.633,0.679,-0.165,-5.065,-12.634,-5.126,1
3.062007,0.632,0.677,-0.149,-5.126,-12.023,-4.699,1
3.071597,0.626,0.679,-0.138,-6.286,-11.352,-4.516,1
3.079527,0.623,0.681,-0.122,-6.408,-10.803,-4.15,1
3.087885,0.626,0.681,-0.106,-5.31,-10.131,-3.54,1
3.094844,0.625,0.693,-0.083,-4.455,-9.521,-2.99,1
3.102775,0.63,0.699,-0.056,-3.295,-8.605,-2.624,1
3.111227,0.634,0.708,-0.031,-1.708,-7.629,-2.441,1
3.120353,0.637,0.718,-0.013,-1.281,-6.225,-1.953,1
3.128795,0.648,0.722,-0.009,-1.159,-4.272,-1.708,1
3.136131,0.651,0.732,-0.002,-1.281,-2.319,-1.892,1
3.143915,0.654,0.741,-0.016,-1.159,-0.427,-1.953,1
3.152094,0.658,0.736,-0.03,-1.22,1.281,-2.136,1
3.160516,0.654,0.729,-0.065,-2.929,2.624,-2.441,1
3.167641,0.66,0.725,-0.084,-3.784,3.723,-1.953,1
3.176149,0.662,0.728,-0.104,-3.112,4.455,-2.258,1
3.183606,0.66,0.728,-0.118,-1.708,4.76,-2.319,1
3.191172,0.654,0.723,-0.13,-0.183,5.31,-2.258,1
3.199482,0.655,0.723,-0.143,-0.122,5.554,-2.258,1
3.207655,0.651,0.722,-0.157,-0.732,6.469,-2.136,1
3.214537,0.647,0.721,-0.168,-0.549,6.774,-2.014,1
3.22296,0.649,0.72,-0.186,0.122,7.385,-1.77,1
3.231354,0.654,0.714,-0.207,-0.061,7.446,-1.77,1
3.240258,0.657,0.722,-0.214,0.549,7.507,-1.831,1
3.247952,0.66,0.72,-0.218,2.197,7.629,-1.586,1
3.255744,0.656,0.716,-0.237,2.807,7.507,-1.525,1
3.263166,0.655,0.716,-0.246,2.258,7.69,-1.647,1
3.270748,0.659,0.711,-0.265,1.831,7.507,-1.525,1
3.278282,0.656,0.7,-0.285,1.22,7.568,-1.464,1
3.287481,0.659,0.695,-0.299,0.549,7.202,-1.403,1
3.295266,0.657,0.694,-0.311,0.549,6.591,-1.098,1
3.302973,0.653,0.692,-0.329,0.549,6.225,-0.976,1
3.309817,0.646,0.699,-0.339,-0.305,5.493,-0.854,1
3.318014,0.646,0.7,-0.353,-0.427,5.004,-0.61,1
3.326832,0.654,0.699,-0.362,-0.244,3.784,-0.305,1
3.333911,0.653,0.7,-0.364,0.549,2.746,-0.061,1
3.342808,0.657,0.704,-0.351,1.586,1.586,0.244,1
3.350043,0.654,0.708,-0.34,2.502,0.793,0.549,1
3.357244,0.66,0.71,-0.333,2.929,0.0,0.427,1
3.36497,0.659,0.713,-0.316,2.929,-0.61,0.549,1
3.374297,0.666,0.716,-0.311,2.685,-1.22,0.427,1
3.381615,0.667,0.72,-0.305,1.464,-1.22,0.549,1
3.388831,0.661,0.719,-0.299,0.122,-1.464,0.305,1
3.39651,0.656,0.722,-0.294,-0.427,-1.892,0.366,1
3.403998,0.65,0.716,-0.283,-0.366,-2.197,0.366,1
3.413323,0.649,0.72,-0.28,-0.305,-2.563,0.122,1
3.421586,0.647,0.722,-0.268,-0.427,-2.99,0.488,1
3.429363,0.649,0.728,-0.262,-0.183,-3.234,0.366,1
3.437116,0.656,0.726,-0.243,0.183,-3.356,0.427,1
3.444744,0.654,0.731,-0.227,0.61,-3.479,0.549,1
3.452974,0.658,0.733,-0.208,1.037,-3.112,0.732,1
3.46031,0.665,0.736,-0.203,0.976,-3.051,0.61,1
3.468979,0.666,0.741,-0.192,0.549,-2.685,0.671,1
3.476195,0.666,0.746,-0.191,0.061,-2.38,0.183,1
3.48496,0.665,0.744,-0.188,-1.037,-1.708,0.244,1
3.492493,0.662,0.742,-0.19,-1.525,-1.525,-0.061,1
3.501304,0.662,0.737,-0.194,-2.258,-1.281,-0.244,1
3.510082,0.657,0.737,-0.187,-2.441,-1.037,-0.488,1
3.516894,0.653,0.731,-0.184,-2.197,-0.793,-0.427,1
3.525957,0.655,0.727,-0.182,-1.77,-0.427,-0.244,1
3.532831,0.65,0.724,-0.176,-0.732,-0.366,-0.366,1
3.540923,0.654,0.734,-0.168,0.732,-0.061,-0.244,1
3.548616,0.662,0.727,-0.162,1.342,0.427,-0.122,1
3.556549,0.665,0.73,-0.162,0.366,1.037,0.0,1
3.564237,0.666,0.737,-0.163,-0.244,1.77,-0.183,1
3.572797,0.669,0.739,-0.162,-0.488,2.258,-0.183,1
3.580048,0.662,0.742,-0.174,-0.915,2.563,-0.427,1
3.588128,0.664,0.751,-0.177,-1.22,2.868,-0.427,1
3.596528,0.662,0.749,-0.182,-1.098,3.356,-0.854,1
3.604406,0.66,0.747,-0.194,-1.037,3.479,-0.732,1
3.612009,0.656,0.743,-0.199,-0.671,3.845,-1.037,1
3.620323,0.658,0.745,-0.206,-0.122,3.845,-1.037,1
3.628555,0.656,0.749,-0.209,1.342,3.845,-1.22,1
3.635713,0.662,0.746,-0.218,2.319,4.028,-1.403,1
3.644251,0.66,0.739,-0.227,2.075,4.089,-1.22,1
3.651645,0.665,0.74,-0.236,1.77,4.089,-1.708,1
3.659484,0.663,0.732,-0.246,0.671,4.333,-1.77,1
3.668734,0.664,0.733,-0.255,-0.366,4.455,-1.77,1
3.677977,0.659,0.73,-0.27,-0.854,4.516,-1.77,1
3.685453,0.658,0.726,-0.277,-1.464,4.15,-1.77,1
3.693117,0.658,0.717,-0.29,-2.075,3.906,-2.136,1
3.702148,0.66,0.714,-0.297,-1.708,3.417,-2.075,1
3.709033,0.655,0.716,-0.295,-0.366,2.868,-2.014,1
3.716605,0.65,0.717,-0.295,0.915,2.136,-1.953,1
3.72562,0.65,0.717,-0.296,1.342,1.953,-1.892,1
3.732875,0.655,0.707,-0.293,1.159,1.708,-1.708,1
3.74206,0.654,0.704,-0.294,0.183,1.281,-1.586,1
3.749768,0.651,0.703,-0.295,0.427,1.098,-1.22,1
3.757154,0.647,0.697,-0.293,0.793,0.671,-0.976,1
3.764969,0.651,0.696,-0.294,0.732,0.244,-0.671,1
3.772529,0.652,0.694,-0.291,0.61,-0.183,-0.671,1
3.781222,0.649,0.692,-0.279,0.854,-0.427,-0.244,1
3.790088,0.65,0.697,-0.268,1.037,-0.671,-0.305,1
3.797439,0.652,0.7,-0.264,0.366,-0.915,0.0,1
3.804613,0.645,0.708,-0.262,-0.671,-0.854,0.183,1
3.813384,0.647,0.712,-0.257,-0.793,-0.915,0.305,1
3.821691,0.646,0.725,-0.261,-0.549,-1.159,0.122,1
3.828351,0.652,0.722,-0.265,-0.183,-1.22,0.183,1
3.835624,0.654,0.718,-0.262,-0.183,-1.403,0.0,1
3.845014,0.662,0.714,-0.264,-0.061,-1.464,0.061,1
3.852022,0.659,0.719,-0.252,0.122,-1.525,0.183,1
3.860826,0.664,0.717,-0.252,0.488,-2.075,0.305,1
3.869626,0.664,0.718,-0.242,0.305,-1.953,0.366,1
3.877815,0.662,0.712,-0.236,-0.366,-1.892,0.305,1
3.885604,0.66,0.716,-0.232,-0.793,-1.831,0.549,1
3.893972,0.661,0.725,-0.222,-0.488,-1.708,0.793,1
3.901275,0.66,0.729,-0.217,-0.366,-1.77,0.793,1
3.910252,0.658,0.732,-0.219,-0.915,-1.403,0.61,1
3.917602,0.663,0.733,-0.214,-1.22,-1.22,0.61,1
3.926693,0.663,0.737,-0.209,-1.098,-1.159,0.488,1
3.934768,0.664,0.743,-0.211,-0.976,-0.793,0.061,1
3.942116,0.659,0.741,-0.208,-1.098,-0.732,-0.061,1
3.950317,0.663,0.741,-0.209,-0.61,-0.488,-0.061,1
3.958698,0.66,0.741,-0.209,-0.183,-0.366,-0.183,1
3.966458,0.661,0.737,-0.203,0.732,-0.427,-0.427,1
3.974509,0.661,0.734,-0.203,1.464,-0.366,-0.61,1
3.981634,0.663,0.73,-0.199,1.159,0.122,-0.488,1
3.989683,0.665,0.724,-0.199,0.793,0.488,-0.305,1
3.997162,0.666,0.727,-0.198,0.854,0.793,-0.305,1
4.006279,0.665,0.729,-0.201,0.793,0.854,-0.305,1
4.013494,0.658,0.732,-0.194,1.647,1.159,-0.305,1
4.021012,0.656,0.736,-0.202,1.831,1.525,-0.244,1
4.03026,0.653,0.733,-0.205,1.403,1.831,-0.488,1
4.037956,0.652,0.729,-0.209,0.793,2.014,-0.549,1
4.046684,0.658,0.719,-0.223,-0.549,2.258,-0.427,1
4.054042,0.659,0.726,-0.216,-1.342,2.624,-0.976,1
4.061611,0.662,0.713,-0.234,-1.647,2.746,-0.793,1
4.070262,0.663,0.719,-0.23,1.281,2.502,-0.549,1
4.077249,0.648,0.716,-0.247,2.197,2.502,-0.671,1
4.085264,0.67,0.71,-0.248,1.403,2.258,-0.488,1
4.093964,0.649,0.721,-0.251,2.441,2.136,-0.366,1
4.101398,0.657,0.716,-0.26,2.197,2.319,-0.366,1
4.110142,0.658,0.709,-0.267,1.342,2.197,-0.305,1
4.118211,0.648,0.718,-0.27,0.671,1.953,-0.305,1
4.124912,0.656,0.713,-0.275,0.305,1.892,-0.122,1
4.133636,0.647,0.715,-0.28,0.305,1.525,-0.061,1
4.140883,0.65,0.713,-0.277,0.854,1.037,0.0,1
4.148199,0.649,0.711,-0.274,0.854,1.098,-0.183,1
4.155749,0.65,0.707,-0.284,0.488,0.61,0.061,1
4.163551,0.653,0.707,-0.282,-0.061,0.366,0.305,1
4.172698,0.652,0.711,-0.282,-0.671,0.183,0.366,1
4.179818,0.654,0.71,-0.285,-0.549,-0.061,0.366,1
4.189089,0.656,0.708,-0.279,-0.427,-0.427,0.732,1
4.196776,0.65,0.711,-0.28,-0.183,-0.671,0.915,1
4.20445,0.659,0.71,-0.283,-0.366,-0.61,0.915,1
4.213537,0.655,0.706,-0.281,-0.366,-1.098,1.037,1
4.220436,0.663,0.706,-0.283,-0.549,-1.22,1.22,1
4.228738,0.662,0.705,-0.276,-0.366,-1.708,1.281,1
4.236139,0.663,0.711,-0.273,0.427,-1.953,1.831,1
4.244832,0.662,0.713,-0.271,0.183,-1.953,1.586,1
4.253168,0.658,0.717,-0.266,-0.854,-2.136,1.647,1
4.25998,0.662,0.717,-0.265,-1.831,-2.136,1.77,1
4.268192,0.657,0.725,-0.263,-3.356,-2.197,2.014,1
4.277216,0.66,0.73,-0.259,-3.54,-2.319,1.892,1
4.284434,0.659,0.731,-0.254,-2.868,-2.258,1.708,1
4.293333,0.656,0.734,-0.243,-1.647,-2.563,1.77,1
4.300475,0.655,0.731,-0.234,-0.671,-2.563,1.708,1
4.308644,0.653,0.73,-0.226,0.671,-2.868,1.586,1
4.317332,0.652,0.735,-0.217,1.892,-2.746,1.342,1
4.3248,0.653,0.733,-0.208,2.38,-2.441,1.342,1
4.332385,0.652,0.733,-0.205,1.586,-2.075,1.22,1
4.340502,0.651,0.735,-0.201,0.549,-1.586,1.281,1
4.347515,0.653,0.736,-0.203,0.122,-1.342,1.098,1
4.355457,0.656,0.737,-0.201,0.427,-1.281,0.915,1
4.364543,0.654,0.732,-0.199,0.732,-0.915,0.854,1
4.371444,0.658,0.732,-0.198,0.427,-0.793,0.854,1
4.380223,0.655,0.727,-0.198,-0.427,-0.549,0.671,1
4.388287,0.654,0.725,-0.2,-0.488,-0.244,0.976,1
4.395541,0.658,0.72,-0.198,-0.488,0.244,0.976,1
4.404844,0.656,0.72,-0.191,0.366,-0.061,1.098,1
4.412258,0.656,0.723,-0.185,1.22,0.305,1.22,1
4.4188,0.654,0.723,-0.191,1.281,0.732,1.281,1
4.426416,0.649,0.724,-0.19,0.61,1.037,1.159,1
4.435708,0.652,0.723,-0.196,0.427,1.403,1.342,1
4.442612,0.654,0.726,-0.2,1.159,1.708,1.22,1
4.450137,0.653,0.728,-0.204,0.732,2.014,1.098,1
4.457735,0.653,0.727,-0.213,0.183,2.197,1.037,1
4.466307,0.655,0.725,-0.221,-0.305,2.502,1.159,1
4.473401,0.652,0.724,-0.225,-0.366,2.441,1.403,1
4.483046,0.65,0.724,-0.23,-0.427,2.685,1.586,1
4.49028,0.652,0.725,-0.238,-1.098,2.868,1.342,1
4.497389,0.656,0.728,-0.25,-1.403,2.868,1.525,1
4.505051,0.651,0.727,-0.26,-1.403,2.563,1.342,1
4.513106,0.653,0.727,-0.266,-0.793,2.624,1.403,1
4.52114,0.654,0.721,-0.274,-0.488,2.197,1.403,1
4.529056,0.654,0.713,-0.277,-0.183,2.075,1.464,1
4.536908,0.658,0.72,-0.286,0.061,1.77,1.77,1
4.544593,0.657,0.725,-0.289,0.244,1.403,1.77,1
4.552178,0.657,0.731,-0.291,0.244,0.549,1.708,1
4.560782,0.658,0.737,-0.295,-0.305,0.549,1.647,1
4.569965,0.662,0.741,-0.297,-0.488,-0.183,1.464,1
4.577469,0.659,0.743,-0.295,-0.366,-0.549,1.159,1
4.584427,0.655,0.743,-0.29,0.549,-0.976,0.854,1
4.593481,0.652,0.743,-0.28,1.403,-1.159,0.854,1
4.601248,0.651,0.74,-0.276,1.464,-1.342,0.915,1
4.609466,0.648,0.736,-0.27,1.281,-1.525,0.732,1
4.616595,0.644,0.735,-0.265,1.464,-1.77,0.793,1
4.624112,0.641,0.739,-0.259,1.525,-1.586,0.732,1
4.632875,0.641,0.744,-0.254,1.586,-1.525,0.671,1
4.640675,0.637,0.746,-0.248,0.915,-1.586,0.427,1
4.648708,0.645,0.749,-0.246,0.366,-1.647,0.488,1
4.657544,0.647,0.751,-0.241,0.305,-1.77,0.427,1
4.665755,0.651,0.748,-0.236,0.366,-1.647,0.305,1
4.672643,0.659,0.746,-0.233,-0.061,-1.708,0.305,1
4.68107,0.656,0.745,-0.23,0.305,-1.708,0.244,1
4.690064,0.659,0.745,-0.232,0.183,-1.77,0.244,1
4.697059,0.655,0.744,-0.228,-0.305,-1.77,0.0,1
4.705971,0.651,0.742,-0.22,-0.549,-1.464,-0.183,1
4.713533,0.647,0.747,-0.219,-0.793,-1.281,-0.183,1
4.721271,0.645,0.741,-0.216,-0.549,-1.098,0.061,1
4.729568,0.641,0.747,-0.21,-0.671,-0.793,-0.122,1
4.737855,0.645,0.741,-0.206,-0.61,-0.732,-0.183,1
4.745903,0.64,0.74,-0.212,-0.488,-0.244,-0.244,1
4.754584,0.647,0.74,-0.206,-0.671,-0.061,-0.366,1
4.761071,0.648,0.743,-0.212,-0.976,0.244,-0.671,1
4.769147,0.649,0.741,-0.211,-1.037,0.427,-0.427,1
4.776886,0.653,0.738,-0.219,-1.464,0.366,-0.488,1
4.785273,0.655,0.74,-0.22,-1.525,0.488,-0.671,1
4.792782,0.65,0.739,-0.221,-0.976,0.549,-0.854,1
4.800598,0.651,0.736,-0.225,-0.122,0.305,-0.915,1
4.809745,0.654,0.735,-0.225,0.122,0.488,-0.793,1
4.816344,0.653,0.737,-0.224,0.305,0.732,-0.915,1
4.82582,0.648,0.728,-0.231,-0.183,0.915,-1.098,1
4.83228,0.646,0.718,-0.234,-0.915,0.976,-1.037,1
4.841596,0.65,0.716,-0.24,-1.586,1.159,-0.793,1
4.849295,0.649,0.722,-0.245,-1.77,1.22,-0.488,1
4.857926,0.647,0.718,-0.25,-1.77,1.159,-0.427,1
4.866721,0.651,0.719,-0.255,-1.525,0.915,-0.549,1
4.873995,0.654,0.723,-0.257,-1.464,0.976,-0.488,1
4.881054,0.657,0.722,-0.263,-1.892,0.793,-0.366,1
4.890035,0.657,0.723,-0.267,-1.892,0.732,-0.427,1
4.89787,0.652,0.728,-0.27,-1.464,0.366,-0.427,1
4.905037,0.659,0.726,-0.28,-1.281,0.061,-0.244,1
4.91405,0.659,0.722,-0.278,-0.549,-0.183,-0.244,1
4.921274,0.658,0.723,-0.28,0.244,-0.244,-0.305,1
4.928972,0.657,0.722,-0.275,0.854,-0.549,-0.122,1
4.938189,0.655,0.719,-0.28,0.366,-0.732,-0.244,1
4.945618,0.65,0.722,-0.283,-0.305,-0.976,0.061,1
4.954578,0.648,0.723,-0.281,-0.732,-1.342,0.061,1
4.962237,0.643,0.722,-0.286,-0.854,-1.22,0.0,1
4.970541,0.642,0.719,-0.286,-1.281,-1.708,0.122,1
4.978417,0.64,0.72,-0.282,-0.976,-1.953,0.122,1
4.985792,0.64,0.716,-0.28,-0.976,-2.197,-0.061,1
4.994825,0.645,0.713,-0.273,-0.671,-2.502,0.305,1
5.001984,0.65,0.71,-0.266,-0.305,-2.563,0.366,1
5.010125,0.652,0.713,-0.26,0.0,-2.868,0.488,1
5.019447,0.649,0.712,-0.253,0.061,-2.868,0.61,1
5.0262,0.65,0.709,-0.243,-0.549,-2.807,0.793,1
5.035379,0.652,0.709,-0.242,-1.159,-2.502,0.732,1
5.042387,0.656,0.707,-0.247,-1.403,-2.38,1.037,1
5.051611,0.657,0.712,-0.248,-1.403,-2.38,1.037,1
5.058714,0.649,0.72,-0.249,-0.488,-2.624,1.22,1
5.067488,0.645,0.716,-0.259,-0.183,-2.502,1.159,1
5.074521,0.634,0.711,-0.269,-1.464,-2.075,1.159,1
5.083581,0.626,0.709,-0.293,-2.685,-1.892,0.976,1
5.091962,0.615,0.695,-0.34,-3.417,-1.831,1.098,1
5.098791,0.603,0.693,-0.389,-4.272,-2.319,1.281,1
5.107852,0.587,0.684,-0.444,-7.202,-2.868,1.647,1
5.115189,0.569,0.678,-0.509,-10.925,-3.601,1.647,1
5.124227,0.555,0.665,-0.564,-13.0,-4.76,2.136,1
5.13253,0.552,0.642,-0.625,-14.709,-6.774,2.563,1
5.139983,0.55,0.628,-0.673,-15.624,-8.3,3.356,1
5.147828,0.536,0.626,-0.732,-15.747,-10.864,4.272,1
5.155008,0.525,0.621,-0.801,-16.54,-13.122,5.371,1
5.163566,0.512,0.622,-0.87,-18.066,-15.93,6.042,1
5.171076,0.508,0.626,-0.941,-20.935,-18.798,7.08,1
5.179402,0.494,0.63,-1.032,-23.681,-22.155,8.178,1
5.18805,0.492,0.628,-1.102,-28.137,-26.245,9.155,1
5.196484,0.486,0.637,-1.195,-34.118,-30.334,10.498,1
5.203404,0.486,0.653,-1.283,-41.564,-35.278,11.535,1
5.212056,0.471,0.673,-1.375,-45.776,-41.809,13.0,1
5.221034,0.459,0.693,-1.465,-46.874,-48.583,14.16,1
5.228296,0.443,0.707,-1.53,-50.109,-56.884,15.136,1
5.237654,0.435,0.728,-1.595,-56.884,-65.673,16.296,1
5.244942,0.43,0.737,-1.628,-62.255,-73.547,16.784,1
5.25244,0.43,0.763,-1.643,-65.124,-81.665,17.883,1
5.260969,0.421,0.782,-1.652,-67.81,-91.735,18.554,1
5.268567,0.4,0.792,-1.65,-69.885,-100.219,19.226,1
5.276945,0.393,0.807,-1.626,-69.763,-108.947,19.836,1
5.285812,0.379,0.82,-1.586,-69.458,-117.492,20.202,1
5.293003,0.361,0.828,-1.537,-69.458,-127.258,21.24,1
5.302504,0.33,0.86,-1.467,-70.678,-136.596,21.728,1
5.309607,0.291,0.895,-1.388,-70.007,-143.981,22.216,1
5.317596,0.248,0.928,-1.305,-71.105,-151.0,22.277,1
5.325711,0.218,0.958,-1.228,-72.692,-158.203,22.216,1
5.33322,0.176,0.987,-1.168,-72.387,-163.574,21.789,1
5.340981,0.118,1.01,-1.104,-73.242,-169.311,21.484,1
5.350308,0.056,1.03,-1.067,-74.646,-174.499,21.118,1
5.358411,0.0,1.055,-1.022,-75.622,-179.321,20.751,1
5.365926,-0.056,1.075,-0.966,-74.462,-185.302,20.507,1
5.374758,-0.116,1.096,-0.901,-71.044,-190.246,19.897,1
5.383246,-0.168,1.107,-0.846,-69.274,-195.373,19.348,1
5.390314,-0.227,1.103,-0.795,-71.472,-199.035,18.981,1
5.399363,-0.291,1.121,-0.716,-75.378,-203.43,19.165,1
5.408279,-0.344,1.151,-0.617,-75.927,-207.092,19.104,1
5.415534,-0.394,1.175,-0.543,-75.622,-210.144,19.226,1
5.424799,-0.436,1.207,-0.457,-76.721,-212.768,18.676,1
5.432515,-0.447,1.221,-0.389,-78.308,-214.416,18.493,1
5.440059,-0.456,1.24,-0.334,-82.58,-215.148,17.944,1
5.449058,-0.469,1.27,-0.279,-87.28,-216.003,17.272,1
5.456028,-0.468,1.292,-0.242,-90.27,-216.735,16.723,1
5.465234,-0.461,1.329,-0.192,-95.092,-216.979,16.235,1
5.472921,-0.457,1.383,-0.158,-98.388,-217.224,15.563,1
5.481697,-0.439,1.46,-0.087,-95.642,-218.994,14.709,1
5.490291,-0.44,1.512,0.004,-86.914,-219.116,13.122,1
5.497417,-0.423,1.56,0.081,-83.251,-218.811,10.803,1
5.505087,-0.397,1.598,0.156,-84.167,-217.651,8.605,1
5.513752,-0.376,1.647,0.236,-85.51,-215.454,5.187,1
5.52122,-0.354,1.669,0.301,-85.937,-213.317,1.953,1
5.529805,-0.325,1.689,0.336,-87.707,-210.571,-0.976,1
5.537923,-0.309,1.716,0.357,-90.026,-208.068,-4.943,1
5.546379,-0.281,1.737,0.382,-90.209,-206.054,-8.911,1
5.554825,-0.275,1.748,0.407,-87.036,-204.284,-13.183,1
5.563283,-0.269,1.738,0.423,-86.486,-202.27,-17.15,1
5.571245,-0.268,1.729,0.427,-89.904,-199.89,-21.606,1
5.578139,-0.258,1.722,0.431,-92.407,-198.12,-25.512,1
5.586218,-0.244,1.717,0.454,-91.796,-196.899,-29.296,1
5.594802,-0.225,1.69,0.498,-87.89,-196.228,-32.592,1
5.602935,-0.204,1.65,0.545,-84.96,-194.335,-36.926,1
5.611142,-0.177,1.595,0.591,-87.158,-191.833,-40.1,1
5.621134,-0.149,1.538,0.621,-90.942,-189.025,-43.151,1
5.628866,-0.117,1.479,0.66,-90.454,-186.584,-46.081,1
5.636641,-0.107,1.413,0.704,-88.5,-184.448,-48.522,1
5.64512,-0.094,1.354,0.728,-87.585,-182.006,-50.659,1
5.651888,-0.08,1.307,0.765,-85.632,-180.297,-52.368,1
5.660262,-0.08,1.249,0.832,-81.604,-178.466,-53.894,1
5.668581,-0.095,1.188,0.875,-79.833,-175.415,-55.541,1
5.67698,-0.079,1.123,0.925,-80.688,-172.18,-56.64,1
5.685867,-0.054,1.053,0.981,-78.979,-169.25,-57.617,1
5.694534,-0.03,0.99,1.022,-77.514,-165.527,-57.983,1
5.7014,-0.017,0.935,1.083,-76.11,-162.048,-58.105,1
5.708918,0.011,0.877,1.159,-71.289,-157.409,-57.556,1
5.718006,0.035,0.83,1.216,-65.49,-153.32,-57.067,1
5.72512,0.059,0.774,1.275,-61.096,-148.315,-55.969,1
5.734483,0.091,0.722,1.327,-58.837,-141.784,-54.565,1
5.743061,0.121,0.684,1.355,-59.448,-135.803,-53.222,1
5.750334,0.16,0.659,1.376,-58.166,-129.15,-51.513,1
5.758892,0.191,0.631,1.4,-53.955,-123.901,-50.048,1
5.766441,0.22,0.592,1.438,-48.645,-117.553,-48.095,1
5.77565,0.24,0.548,1.476,-45.043,-111.572,-46.203,1
5.783246,0.265,0.533,1.497,-42.907,-104.187,-43.457,1
5.791573,0.297,0.522,1.49,-43.151,-97.534,-41.259,1
5.800568,0.324,0.528,1.488,-43.334,-90.454,-38.757,1
5.80761,0.34,0.53,1.478,-41.625,-84.777,-37.17,1
5.816363,0.368,0.523,1.47,-39.672,-78.308,-34.973,1
5.823025,0.39,0.514,1.467,-37.902,-72.143,-33.203,1
5.831944,0.419,0.507,1.472,-35.4,-66.345,-31.677,1
5.839034,0.448,0.5,1.473,-31.921,-60.485,-29.846,1
5.847035,0.481,0.496,1.472,-27.526,-53.161,-28.076,1
5.856129,0.501,0.494,1.453,-26.916,-46.936,-26.489,1
5.863298,0.535,0.498,1.418,-28.381,-39.916,-25.085,1
5.872653,0.562,0.502,1.361,-31.433,-32.104,-23.803,1
5.879809,0.593,0.513,1.287,-32.897,-26.367,-22.338,1
5.886992,0.621,0.525,1.208,-30.578,-20.935,-20.935,1
5.89491,0.635,0.536,1.152,-26.794,-16.723,-20.385,1
5.904436,0.636,0.537,1.104,-24.414,-12.939,-19.226,1
5.911355,0.643,0.532,1.059,-24.047,-8.728,-18.249,1
5.919014,0.638,0.533,1.002,-24.658,-3.54,-16.906,1
5.926771,0.63,0.553,0.924,-27.16,0.427,-15.38,1
5.93607,0.63,0.575,0.853,-27.038,3.662,-14.648,1
5.943723,0.64,0.596,0.761,-23.864,6.164,-14.343,1
5.951029,0.636,0.597,0.697,-21.24,8.056,-13.793,1
5.958403,0.64,0.602,0.636,-20.019,9.643,-13.488,1
5.966587,0.644,0.6,0.584,-20.08,10.498,-13.061,1
5.973994,0.639,0.6,0.544,-20.263,11.779,-12.573,1
5.983224,0.632,0.599,0.513,-19.714,12.573,-12.207,1
5.990072,0.631,0.6,0.471,-18.432,13.488,-11.413,1
5.998242,0.64,0.607,0.422,-17.395,13.732,-11.047,1
6.006267,0.649,0.618,0.389,-15.075,13.671,-10.62,1
6.01494,0.654,0.615,0.359,-12.023,13.183,-10.07,1
6.021898,0.661,0.616,0.345,-11.047,13.183,-9.887,1
6.029102,0.666,0.614,0.338,-10.925,12.939,-9.643,1
6.038001,0.674,0.611,0.333,-10.498,13.305,-9.399,1
6.046419,0.683,0.609,0.326,-9.216,12.878,-9.277,1
6.053299,0.682,0.604,0.322,-8.117,13.061,-8.666,1
6.061362,0.685,0.596,0.32,-8.056,13.0,-8.361,1
6.069912,0.682,0.589,0.317,-9.033,13.0,-7.873,1
6.078472,0.681,0.596,0.31,-10.437,13.488,-7.324,1
6.084619,0.687,0.597,0.292,-10.192,13.549,-6.835,1
6.093121,0.697,0.596,0.27,-8.85,13.0,-6.103,1
6.101398,0.695,0.596,0.258,-6.713,12.634,-5.859,1
6.109767,0.696,0.598,0.25,-4.15,11.84,-5.554,1
6.118172,0.689,0.598,0.249,-1.892,11.413,-4.882,1
6.124913,0.686,0.598,0.246,-1.281,10.986,-4.394,1
6.133126,0.681,0.603,0.241,-0.854,10.192,-3.967,1
6.140056,0.672,0.599,0.247,0.0,9.765,-3.54,1
6.148784,0.656,0.596,0.249,-0.427,9.582,-3.112,1
6.156115,0.653,0.597,0.235,-1.647,9.704,-2.563,1
6.164801,0.653,0.594,0.222,-2.685,9.46,-2.197,1
6.172965,0.662,0.589,0.213,-2.99,9.033,-1.525,1
6.180195,0.665,0.584,0.194,-2.258,7.995,-0.854,1
6.188871,0.666,0.579,0.191,-1.403,7.019,-0.122,1
6.195595,0.668,0.573,0.184,-0.61,6.286,0.488,1
6.20307,0.668,0.573,0.188,-1.159,5.249,1.464,1
6.210716,0.677,0.572,0.187,-1.159,4.333,2.624,1
6.219708,0.681,0.581,0.205,-0.488,3.54,3.051,1
6.225344,0.676,0.585,0.218,1.831,2.502,3.845,1
6.232912,0.673,0.59,0.239,3.356,1.708,4.333,1
6.240697,0.677,0.587,0.255,3.479,1.77,5.065,1
6.249541,0.674,0.594,0.27,2.441,1.525,5.737,1
6.255708,0.671,0.605,0.276,1.159,1.464,6.164,1
6.263921,0.673,0.617,0.281,0.854,1.647,6.408,1
6.271132,0.676,0.625,0.283,0.671,1.403,6.958,1
6.279684,0.686,0.637,0.281,-0.427,1.647,7.263,1
6.287081,0.69,0.647,0.281,-1.342,1.464,7.263,1
6.296044,0.69,0.649,0.281,-1.525,1.342,7.69,1
6.303605,0.69,0.653,0.278,-0.488,0.732,7.751,1
6.310483,0.696,0.662,0.275,1.953,0.427,7.873,1
6.318442,0.706,0.662,0.273,3.967,-0.305,8.056,1
6.326743,0.707,0.668,0.276,5.432,-1.037,8.056,1
6.335224,0.706,0.67,0.285,5.554,-1.342,8.117,1
6.342952,0.699,0.675,0.291,5.432,-1.525,8.117,1
6.350926,0.697,0.678,0.301,4.577,-1.281,7.995,1
6.35736,0.694,0.687,0.298,3.173,-1.159,8.117,1
6.364788,0.694,0.693,0.294,1.586,-1.098,8.178,1
6.371698,0.694,0.702,0.292,0.183,-1.159,7.812,1
6.379909,0.693,0.714,0.284,-0.732,-0.793,7.507,1
6.388169,0.693,0.73,0.278,-0.671,-1.159,7.385,1
6.397331,0.7,0.735,0.279,-0.305,-1.464,6.896,1
6.404129,0.695,0.743,0.292,0.671,-1.647,6.469,1
6.411987,0.695,0.741,0.299,1.281,-2.014,6.225,1
6.419562,0.693,0.746,0.301,0.793,-1.892,5.676,1
6.427184,0.691,0.75,0.299,1.22,-1.77,5.249,1
6.436236,0.695,0.755,0.299,2.075,-1.953,4.76,1
6.443548,0.697,0.756,0.296,2.014,-2.075,4.211,1
6.450752,0.696,0.753,0.295,1.586,-1.831,3.723,1
6.458359,0.694,0.758,0.3,1.342,-2.075,3.295,1
6.467564,0.69,0.756,0.304,1.281,-2.502,2.563,1
6.475731,0.689,0.751,0.315,1.403,-2.502,2.319,1
6.482934,0.679,0.759,0.324,0.671,-2.075,2.014,1
6.490512,0.684,0.763,0.326,-0.793,-1.708,1.525,1
6.499411,0.685,0.762,0.322,-1.342,-1.77,0.671,1
6.506191,0.694,0.76,0.317,-1.77,-1.586,0.305,1
6.514259,0.695,0.758,0.311,-2.136,-1.525,-0.122,1
6.521704,0.699,0.754,0.312,-1.403,-1.708,-0.793,1
6.530873,0.699,0.75,0.311,-0.122,-1.831,-1.22,1
6.537872,0.692,0.747,0.311,0.549,-1.953,-1.831,1
6.545415,0.694,0.741,0.307,1.403,-2.136,-2.38,1
6.554548,0.697,0.734,0.312,1.647,-2.38,-2.624,1
6.56165,0.698,0.728,0.31,2.38,-2.502,-2.929,1
6.570526,0.696,0.717,0.316,2.319,-2.685,-3.295,1
6.578602,0.691,0.711,0.322,2.441,-2.807,-3.356,1
6.585675,0.685,0.705,0.325,3.479,-2.685,-3.662,1
6.593013,0.681,0.694,0.323,4.028,-2.624,-3.845,1
6.602026,0.682,0.683,0.321,4.15,-2.563,-3.784,1
6.610815,0.681,0.67,0.318,3.601,-2.441,-3.845,1
6.618084,0.687,0.666,0.312,2.807,-2.197,-3.601,1
6.625839,0.685,0.664,0.312,2.685,-2.136,-3.479,1
6.632986,0.687,0.658,0.306,2.99,-2.38,-3.356,1
6.641721,0.687,0.654,0.305,3.601,-2.502,-2.99,1
6.650438,0.686,0.654,0.305,4.333,-2.624,-2.929,1
6.656829,0.688,0.649,0.306,3.967,-2.624,-2.563,1
6.665042,0.687,0.654,0.299,2.99,-2.868,-2.197,1
6.674001,0.681,0.652,0.298,2.319,-2.441,-1.708,1
6.681046,0.682,0.657,0.298,2.441,-2.807,-1.77,1
6.689751,0.678,0.662,0.299,3.54,-2.929,-1.281,1
6.696534,0.677,0.67,0.297,3.784,-3.112,-1.342,1
6.704421,0.677,0.678,0.3,3.845,-3.295,-1.525,1
6.713977,0.665,0.683,0.311,4.028,-3.295,-1.342,1
6.721617,0.652,0.691,0.317,3.417,-3.417,-1.525,1
6.729632,0.65,0.691,0.322,3.173,-3.479,-1.647,1
6.736755,0.655,0.688,0.332,2.807,-3.295,-2.075,1
6.744206,0.656,0.68,0.333,2.746,-2.868,-2.136,1
6.752012,0.665,0.67,0.343,2.075,-2.746,-2.197,1
6.761065,0.665,0.666,0.352,1.586,-2.38,-1.77,1
6.768122,0.666,0.663,0.353,1.831,-2.258,-2.075,1
6.776766,0.676,0.658,0.356,2.624,-2.197,-1.77,1
6.785433,0.687,0.655,0.359,1.831,-1.708,-1.464,1
6.792499,0.694,0.643,0.356,-0.061,-1.098,-1.159,1
6.800031,0.698,0.64,0.357,-4.272,-0.61,-0.366,1
6.808683,0.692,0.658,0.354,-4.699,-0.183,-0.244,1
6.817809,0.691,0.667,0.355,-1.22,-0.488,-0.183,1
6.824197,0.693,0.653,0.353,1.647,-0.671,-0.183,1
6.833059,0.691,0.648,0.346,0.61,-0.366,0.122,1
6.840089,0.684,0.651,0.353,-0.61,-0.122,-0.061,1
6.847427,0.685,0.656,0.351,-0.366,0.183,0.305,1
6.856658,0.682,0.649,0.354,0.183,0.427,0.366,1
6.864654,0.674,0.654,0.351,-0.122,0.732,0.549,1
6.871627,0.671,0.654,0.347,-0.976,1.22,0.61,1
6.879984,0.676,0.656,0.34,-1.464,1.281,0.793,1
6.887371,0.675,0.652,0.332,-1.525,1.525,0.732,1
6.894974,0.678,0.656,0.323,-1.403,1.647,0.976,1
6.904264,0.678,0.661,0.314,-1.037,1.464,1.037,1
6.91037,0.678,0.663,0.311,-0.305,1.281,1.098,1
6.918627,0.678,0.659,0.309,0.549,0.915,1.464,1
6.927109,0.681,0.669,0.303,0.915,1.159,1.464,1
6.932951,0.681,0.671,0.295,1.037,0.671,1.586,1
6.940658,0.683,0.675,0.297,1.342,0.488,1.586,1
6.949003,0.685,0.677,0.295,1.22,-0.244,1.77,1
6.957425,0.683,0.678,0.3,1.098,-0.366,1.647,1
6.965315,0.682,0.68,0.312,0.488,-0.427,1.525,1
6.973182,0.683,0.678,0.318,0.793,-0.427,1.525,1
6.979995,0.681,0.676,0.324,0.854,-0.366,1.464,1
6.988751,0.681,0.674,0.327,0.366,-0.488,1.342,1
6.995974,0.683,0.675,0.333,-0.244,-0.305,1.281,1
7.003463,0.682,0.674,0.334,0.183,-0.122,1.22,1
7.012529,0.68,0.67,0.331,0.976,-0.122,1.22,1
7.020285,0.677,0.672,0.327,0.732,0.0,1.403,1
7.027129,0.681,0.673,0.326,0.366,0.183,1.647,1
7.035256,0.682,0.672,0.322,0.549,-0.122,1.464,1
7.041838,0.678,0.675,0.319,0.915,-0.061,1.464,1
7.05029,0.683,0.677,0.31,1.281,0.0,1.647,1
7.056806,0.68,0.684,0.307,1.037,-0.061,1.586,1
7.065366,0.677,0.685,0.303,0.793,-0.488,1.647,1
7.072423,0.68,0.676,0.304,-0.061,-0.305,1.953,1
7.079526,0.672,0.686,0.305,-0.793,-0.244,1.77,1
7.087213,0.677,0.689,0.307,0.244,-0.854,1.647,1
7.095933,0.673,0.681,0.306,2.258,-0.854,1.525,1
7.103844,0.675,0.674,0.304,3.112,-0.976,1.708,1
7.110869,0.673,0.673,0.303,1.892,-1.037,1.892,1
7.118512,0.662,0.674,0.304,0.915,-0.976,2.014,1
7.126514,0.669,0.671,0.307,0.793,-1.403,2.258,1
7.134254,0.666,0.676,0.309,0.0,-1.037,2.563,1
7.142952,0.673,0.687,0.311,0.0,-1.403,2.38,1
7.14964,0.67,0.686,0.316,1.525,-1.708,2.319,1
7.157745,0.676,0.682,0.32,3.112,-1.953,2.075,1
7.165087,0.679,0.676,0.319,2.319,-1.77,2.197,1
7.173276,0.682,0.666,0.325,-0.061,-1.586,2.258,1
7.179905,0.678,0.681,0.331,-1.098,-1.037,2.502,1
7.187879,0.683,0.685,0.327,-0.122,-1.586,2.197,1
7.195272,0.679,0.684,0.334,2.136,-1.586,2.441,1
7.203014,0.685,0.672,0.326,2.136,-1.77,2.014,1
7.212033,0.682,0.674,0.337,0.244,-1.464,2.136,1
7.219904,0.677,0.68,0.342,-0.061,-1.464,2.075,1
7.227023,0.683,0.687,0.343,0.61,-1.159,2.319,1
7.234502,0.683,0.686,0.341,0.488,-0.976,2.075,1
7.242951,0.677,0.679,0.337,-0.854,-0.793,2.258,1
7.250116,0.675,0.694,0.335,-1.77,-0.549,2.258,1
7.257876,0.68,0.703,0.328,-0.976,-0.793,1.892,1
7.265261,0.678,0.699,0.329,-0.305,-0.732,2.014,1
7.272532,0.678,0.7,0.326,-0.427,-0.732,1.77,1
7.279828,0.674,0.699,0.321,-1.159,-0.549,1.708,1
7.287617,0.674,0.697,0.323,-1.831,-0.549,1.892,1
7.295381,0.669,0.705,0.328,-1.159,-0.671,1.586,1
7.303437,0.674,0.701,0.327,0.0,-0.732,1.403,1
7.311573,0.674,0.702,0.33,0.122,-0.61,1.342,1
7.319625,0.676,0.696,0.332,-0.366,-0.732,1.281,1
7.328524,0.675,0.691,0.334,-0.244,-0.305,1.281,1
7.335383,0.671,0.698,0.332,-0.305,-0.305,1.281,1
7.342295,0.671,0.703,0.319,-1.098,0.061,1.22,1
7.350069,0.672,0.707,0.314,-1.342,-0.305,1.098,1
7.359225,0.675,0.705,0.308,-0.61,-0.671,1.159,1
7.366284,0.674,0.71,0.31,-0.549,-0.671,0.854,1
7.375012,0.68,0.702,0.311,0.183,-0.854,0.61,1
7.382094,0.676,0.702,0.319,0.427,-1.037,0.671,1
7.390832,0.677,0.708,0.316,-0.671,-0.915,0.549,1
7.398105,0.668,0.712,0.318,-1.586,-0.976,0.244,1
7.406302,0.673,0.715,0.316,-0.915,-0.915,0.122,1
7.41389,0.669,0.716,0.316,-0.061,-1.403,0.0,1
7.421622,0.667,0.711,0.323,-0.305,-1.464,-0.488,1
7.430379,0.667,0.704,0.334,-0.427,-1.464,-0.305,1
7.438216,0.669,0.704,0.335,-0.366,-1.403,-0.549,1
7.444978,0.663,0.702,0.336,0.122,-1.281,-0.732,1
7.452218,0.667,0.701,0.34,1.159,-1.281,-0.549,1
7.459427,0.67,0.696,0.339,1.342,-1.281,-0.671,1
7.468165,0.67,0.693,0.334,0.976,-0.854,-0.915,1
7.473823,0.67,0.692,0.326,0.366,-0.854,-0.793,1
7.48149,0.672,0.691,0.33,0.244,-0.671,-0.671,1
7.489699,0.671,0.689,0.321,0.305,-0.915,-0.854,1
7.497823,0.671,0.684,0.325,0.793,-1.22,-1.037,1
7.505376,0.67,0.683,0.328,0.915,-1.281,-0.732,1
7.513186,0.669,0.668,0.331,1.037,-1.159,-0.671,1
7.522056,0.665,0.669,0.336,0.976,-1.22,-0.549,1
7.529431,0.659,0.674,0.333,-0.61,-0.671,-0.305,1
7.538663,0.664,0.678,0.329,-1.77,-0.732,-0.305,1
7.545475,0.665,0.678,0.326,-1.586,-0.976,-0.183,1
7.553346,0.666,0.678,0.323,-0.976,-0.976,-0.244,1
7.562671,0.663,0.678,0.323,-0.976,-1.281,-0.061,1
7.569597,0.668,0.678,0.322,-1.098,-1.342,-0.122,1
7.578737,0.677,0.674,0.326,-1.281,-1.22,0.0,1
7.585623,0.676,0.673,0.326,-0.427,-1.22,0.0,1
7.592536,0.68,0.671,0.328,0.366,-1.403,0.122,1
7.60035,0.68,0.667,0.334,0.915,-1.464,0.183,1
7.608892,0.678,0.659,0.334,0.671,-1.342,0.183,1
7.617359,0.676,0.658,0.337,-0.305,-1.281,0.549,1
7.624925,0.674,0.661,0.332,-0.793,-1.098,0.671,1
7.631394,0.667,0.666,0.335,0.122,-1.586,0.793,1
7.639626,0.666,0.67,0.332,0.61,-1.403,0.915,1
7.648281,0.667,0.67,0.335,0.732,-1.159,0.854,1
7.655407,0.667,0.669,0.334,0.549,-1.159,1.098,1
7.662562,0.666,0.664,0.334,0.793,-1.281,1.281,1
7.671321,0.664,0.664,0.336,1.098,-1.098,1.037,1
7.678073,0.665,0.665,0.338,1.342,-1.22,1.586,1
7.686904,0.667,0.667,0.335,0.976,-1.037,1.586,1
7.695003,0.667,0.671,0.337,0.366,-0.854,1.708,1
7.702501,0.668,0.67,0.332,-0.61,-0.793,1.586,1
7.711155,0.67,0.669,0.331,-1.159,-0.793,1.708,1
7.718259,0.671,0.675,0.328,-1.281,-0.732,1.953,1
7.726247,0.667,0.677,0.326,-1.159,-0.915,1.953,1
7.734349,0.667,0.679,0.322,-0.915,-1.098,2.014,1
7.743223,0.666,0.68,0.322,-0.183,-1.159,2.075,1
7.750794,0.66,0.683,0.326,0.549,-1.159,2.258,1
7.757825,0.659,0.68,0.326,0.549,-1.281,2.197,1
7.766554,0.659,0.679,0.327,0.305,-1.22,2.258,1
7.773424,0.656,0.685,0.331,0.793,-1.464,2.319,1
7.781255,0.659,0.686,0.333,0.732,-1.464,2.319,1
7.788384,0.654,0.683,0.331,0.305,-1.403,2.441,1
7.79566,0.666,0.685,0.329,0.366,-1.403,2.197,1
7.80473,0.668,0.685,0.32,0.549,-1.464,2.441,1
7.811589,0.663,0.677,0.317,0.488,-1.708,2.319,1
7.819323,0.667,0.67,0.312,-0.122,-1.708,2.319,1
7.828036,0.665,0.672,0.314,-0.244,-1.953,2.319,1
7.834725,0.656,0.667,0.315,0.488,-2.319,2.38,1
7.843927,0.654,0.666,0.319,0.61,-2.624,2.746,1
7.851645,0.657,0.667,0.324,0.244,-2.868,2.624,1
7.858699,0.658,0.664,0.325,-0.671,-2.624,3.173,1
7.867954,0.66,0.663,0.322,-1.281,-2.685,3.295,1
7.874937,0.659,0.663,0.33,-1.403,-2.807,3.295,1
7.883663,0.663,0.66,0.335,-0.854,-2.807,3.723,1
7.890772,0.662,0.667,0.344,-0.122,-2.685,3.845,1
7.898378,0.654,0.659,0.348,0.549,-2.746,4.089,1
7.906679,0.656,0.658,0.354,0.488,-2.441,4.272,1
7.915433,0.663,0.659,0.358,-0.549,-2.38,4.394,1
7.921913,0.658,0.656,0.366,-0.976,-2.136,4.638,1
7.930262,0.655,0.652,0.369,-1.953,-2.014,4.699,1
7.938305,0.648,0.653,0.379,-1.77,-2.136,5.126,1
7.946238,0.651,0.646,0.398,-0.976,-1.708,5.31,1
7.953758,0.653,0.635,0.417,-1.464,-1.403,5.798,1
7.961116,0.644,0.633,0.429,-3.479,-0.976,6.408,1
7.96806,0.643,0.626,0.463,-5.004,-0.488,6.958,1
7.97746,0.639,0.626,0.498,-2.807,-0.244,7.751,1
7.98398,0.628,0.621,0.536,-0.122,0.366,8.178,1
7.991279,0.617,0.61,0.567,0.244,1.342,9.155,1
8.000164,0.596,0.603,0.615,0.122,2.868,9.704,1
8.00667,0.579,0.602,0.651,0.366,4.638,10.375,1
8.015925,0.578,0.607,0.698,2.014,5.981,10.986,1
8.02332,0.569,0.607,0.758,6.164,7.568,11.657,1
8.030197,0.558,0.603,0.833,10.62,9.582,12.207,1
8.039147,0.547,0.589,0.909,13.061,12.451,12.939,1
8.046639,0.536,0.591,0.987,14.221,15.441,13.488,1
8.053669,0.517,0.592,1.077,18.005,18.737,14.282,1
8.061097,0.519,0.583,1.177,25.329,22.583,15.014,1
8.070224,0.525,0.565,1.259,32.043,27.282,16.113,1
8.077286,0.521,0.533,1.349,36.926,32.897,17.211,1
8.084667,0.531,0.511,1.419,40.527,38.574,18.859,1
8.092864,0.543,0.486,1.477,42.236,45.043,20.751,1
8.101425,0.542,0.469,1.521,41.32,52.001,22.521,1
8.107946,0.54,0.46,1.568,40.71,58.715,24.536,1
8.117169,0.539,0.456,1.609,42.236,66.223,26.794,1
8.124397,0.512,0.462,1.623,44.006,73.974,29.113,1
8.13152,0.476,0.483,1.627,44.372,81.481,31.127,1
8.140249,0.447,0.515,1.622,47.058,90.27,33.935,1
8.147071,0.394,0.558,1.601,49.377,97.595,35.766,1
8.154313,0.347,0.587,1.574,50.72,104.98,37.414,1
8.161938,0.3,0.62,1.531,51.086,112.06,39.062,1
8.170729,0.261,0.656,1.485,51.452,118.896,40.1,1
8.177538,0.212,0.689,1.439,53.405,125.488,41.503,1
8.185506,0.172,0.702,1.387,54.626,131.469,42.358,1
8.192481,0.128,0.713,1.318,52.673,137.939,43.09,1
8.199676,0.104,0.732,1.243,49.987,144.104,43.884,1
8.207139,0.075,0.753,1.161,50.292,149.047,44.433,1
8.214534,0.055,0.759,1.082,52.246,153.564,44.982,1
8.223153,0.028,0.751,0.995,52.368,157.47,45.654,1
8.23127,-0.008,0.764,0.914,49.438,162.536,46.63,1
8.238471,-0.036,0.791,0.816,48.645,165.649,47.302,1
8.245887,-0.062,0.832,0.718,50.476,168.273,47.973,1
8.253476,-0.083,0.851,0.638,52.734,170.166,48.522,1
8.261234,-0.112,0.875,0.565,54.443,171.752,49.499,1
8.270154,-0.14,0.921,0.491,56.579,173.095,49.987,1
8.279197,-0.141,0.962,0.424,61.523,173.339,50.659,1
8.285445,-0.142,0.992,0.362,64.88,173.278,50.781,1
8.294386,-0.137,1.012,0.309,66.345,173.583,50.964,1
8.301481,-0.129,1.035,0.269,65.734,173.706,50.842,1
8.309247,-0.142,1.07,0.211,63.232,174.011,50.72,1
8.318306,-0.132,1.107,0.151,61.34,173.4,50.048,1
8.325767,-0.129,1.138,0.117,63.11,172.241,48.767,1
8.332592,-0.123,1.153,0.093,66.467,170.776,48.034,1
8.340244,-0.109,1.158,0.076,71.472,169.128,47.241,1
8.347967,-0.071,1.156,0.067,76.904,167.236,46.691,1
8.355613,-0.062,1.153,0.064,80.688,166.625,46.203,1
8.364476,-0.062,1.155,0.041,80.688,165.588,46.264,1
8.372565,-0.055,1.173,0.026,80.261,165.161,46.325,1
8.381283,-0.056,1.219,-0.036,79.895,164.367,46.142,1
8.388864,-0.05,1.266,-0.089,80.2,162.536,45.593,1
8.395989,-0.048,1.311,-0.121,82.214,160.827,44.616,1
8.40511,-0.042,1.345,-0.154,83.557,157.897,43.518,1
8.412428,-0.06,1.37,-0.138,81.481,154.846,41.992,1
8.420035,-0.044,1.397,-0.105,82.885,152.587,40.283,1
8.429352,-0.037,1.403,-0.064,87.463,150.146,38.757,1
8.436842,-0.024,1.382,0.016,91.369,148.193,37.048,1
8.444356,-0.015,1.388,0.054,87.829,148.62,35.888,1
8.451921,-0.003,1.41,0.055,80.444,148.742,33.996,1
8.460643,0.015,1.443,0.066,78.247,148.742,32.043,1
8.467249,0.015,1.463,0.073,79.589,148.559,29.846,1
8.47662,0.013,1.469,0.081,80.993,148.315,27.709,1
8.482421,0.015,1.479,0.077,80.383,149.169,25.634,1
8.489848,0.02,1.485,0.069,77.392,149.658,23.559,1
8.497668,0.026,1.496,0.062,75.439,150.268,21.24,1
8.506709,0.021,1.5,0.061,75.378,150.817,18.676,1
8.514142,0.019,1.505,0.052,76.782,151.0,16.662,1
8.520657,0.023,1.51,0.037,76.66,152.099,14.465,1
8.528038,0.007,1.529,0.018,73.486,152.709,11.474,1
8.537161,0.009,1.544,-0.005,71.594,153.747,9.094,1
8.544246,0.003,1.546,-0.035,70.19,154.479,6.347,1
8.552855,-0.003,1.533,-0.06,68.359,155.212,3.662,1
8.560991,-0.006,1.524,-0.086,66.772,156.188,0.427,1
8.568204,-0.008,1.52,-0.123,66.04,156.799,-2.441,1
8.577192,-0.017,1.503,-0.168,64.514,157.348,-5.004,1
8.585788,-0.01,1.481,-0.233,62.194,157.958,-7.812,1
8.592944,-0.012,1.469,-0.307,58.227,158.203,-10.742,1
8.600566,-0.01,1.456,-0.387,55.725,157.287,-13.793,1
8.609422,0.006,1.436,-0.453,55.419,156.066,-16.357,1
8.616425,0.014,1.407,-0.511,55.541,154.235,-18.92,1
8.625262,0.033,1.375,-0.599,55.664,152.709,-20.874,1
8.632507,0.057,1.345,-0.675,54.809,149.475,-23.193,1
8.640171,0.074,1.32,-0.753,53.955,146.545,-25.085,1
8.649266,0.096,1.297,-0.842,52.612,142.578,-26.733,1
8.656577,0.136,1.259,-0.93,50.964,138.244,-28.076,1
8.664688,0.171,1.22,-0.99,49.316,132.263,-29.602,1
8.672143,0.201,1.188,-1.031,48.095,126.77,-30.7,1
8.680432,0.226,1.157,-1.062,47.912,121.154,-31.616,1
8.687814,0.25,1.115,-1.092,47.668,115.722,-32.531,1
8.696049,0.282,1.083,-1.126,45.471,109.191,-33.874,1
8.704832,0.305,1.048,-1.157,42.724,102.905,-34.79,1
8.713458,0.331,1.029,-1.167,41.503,96.862,-35.583,1
8.720348,0.354,0.996,-1.168,41.931,89.05,-36.254,1
8.727251,0.375,0.959,-1.153,42.541,82.946,-36.926,1
8.735159,0.395,0.926,-1.132,41.442,77.026,-37.414,1
8.744305,0.415,0.895,-1.109,39.672,71.35,-37.536,1
8.751638,0.444,0.861,-1.076,38.757,65.979,-37.719,1
8.758617,0.464,0.829,-1.041,36.315,60.791,-37.658,1
8.766276,0.477,0.792,-1.01,31.005,55.358,-37.841,1
8.773917,0.492,0.77,-0.969,27.038,50.659,-37.658,1
8.783603,0.505,0.748,-0.936,24.353,46.569,-36.987,1
8.790973,0.518,0.719,-0.887,22.094,42.358,-36.926,1
8.798559,0.532,0.689,-0.85,19.958,37.658,-36.071,1
8.805881,0.554,0.661,-0.816,17.395,34.118,-35.278,1
8.815148,0.569,0.641,-0.771,16.601,30.578,-34.179,1
8.82237,0.585,0.617,-0.725,16.54,26.855,-33.081,1
8.82988,0.597,0.596,-0.679,16.967,23.254,-31.677,1
8.837475,0.609,0.585,-0.642,16.357,20.446,-30.212,1
8.846392,0.623,0.578,-0.605,14.953,18.066,-28.686,1
8.853467,0.625,0.575,-0.563,12.451,15.502,-27.404,1
8.862856,0.628,0.575,-0.533,8.85,13.183,-25.756,1
8.870369,0.639,0.582,-0.497,6.958,11.047,-24.658,1
8.876984,0.638,0.587,-0.464,6.774,9.216,-23.681,1
8.886062,0.647,0.582,-0.447,6.347,6.713,-22.644,1
8.893852,0.65,0.59,-0.417,6.042,5.065,-21.789,1
8.901154,0.653,0.599,-0.374,6.53,3.417,-20.935,1
8.909835,0.651,0.607,-0.342,7.324,1.708,-19.958,1
8.917071,0.648,0.609,-0.308,8.117,0.61,-19.348,1
8.926769,0.651,0.607,-0.274,8.117,-0.183,-18.676,1
8.934707,0.654,0.602,-0.256,7.019,-0.366,-18.371,1
8.941976,0.655,0.599,-0.234,5.615,-0.61,-17.639,1
8.951276,0.653,0.59,-0.228,3.906,-1.037,-16.906,1
8.95875,0.656,0.574,-0.225,1.281,-1.098,-16.052,1
8.966591,0.66,0.571,-0.224,-1.403,-1.586,-15.136,1
8.975366,0.668,0.576,-0.214,-0.427,-2.136,-14.16,1
8.983517,0.666,0.573,-0.213,1.22,-2.807,-13.427,1
8.991813,0.673,0.568,-0.22,1.037,-3.601,-12.451,1
8.999361,0.675,0.567,-0.221,-0.122,-4.15,-11.596,1
9.006833,0.685,0.574,-0.215,-0.854,-4.882,-10.498,1
9.014434,0.693,0.578,-0.207,0.122,-5.554,-9.948,1
9.023357,0.69,0.588,-0.194,1.586,-6.225,-9.338,1
9.030808,0.704,0.599,-0.192,3.234,-6.835,-8.544,1
9.039534,0.703,0.601,-0.189,2.99,-6.896,-8.117,1
9.048274,0.705,0.615,-0.186,0.976,-7.69,-7.263,1
9.055555,0.699,0.624,-0.18,-1.159,-7.873,-6.713,1
9.064408,0.698,0.639,-0.173,-1.586,-8.3,-6.164,1
9.071801,0.688,0.657,-0.157,-1.525,-8.911,-5.371,1
9.079415,0.687,0.671,-0.131,-1.159,-8.972,-5.065,1
9.087342,0.673,0.679,-0.102,-1.281,-8.789,-4.76,1
9.096187,0.667,0.679,-0.086,-2.868,-8.422,-4.638,1
9.104971,0.666,0.68,-0.066,-4.455,-7.141,-4.211,1
9.113491,0.662,0.68,-0.061,-3.845,-6.469,-3.967,1
9.121127,0.66,0.676,-0.062,-2.197,-5.859,-3.356,1
9.12866,0.654,0.669,-0.071,-1.647,-5.371,-2.868,1
9.136244,0.65,0.664,-0.077,-2.258,-4.638,-2.441,1
9.144615,0.65,0.66,-0.085,-3.479,-4.272,-1.77,1
9.152666,0.652,0.652,-0.099,-4.394,-3.967,-1.098,1
9.161014,0.655,0.641,-0.109,-5.31,-3.417,-0.61,1
9.169137,0.66,0.638,-0.124,-6.53,-3.417,0.183,1
9.177484,0.655,0.645,-0.137,-6.469,-3.662,0.915,1
9.185353,0.656,0.651,-0.146,-5.92,-4.089,1.464,1
9.193686,0.666,0.65,-0.156,-5.92,-4.272,1.77,1
9.201553,0.667,0.661,-0.161,-4.638,-4.821,2.624,1
9.209247,0.686,0.664,-0.162,-3.723,-5.493,2.685,1
9.217645,0.689,0.668,-0.169,-4.15,-5.676,3.295,1
9.226234,0.697,0.67,-0.169,-4.699,-6.042,3.479,1
9.234352,0.707,0.677,-0.165,-4.089,-6.713,3.723,1
9.242099,0.717,0.689,-0.162,-2.441,-7.385,3.845,1
9.250451,0.724,0.694,-0.148,-2.014,-7.812,3.906,1
9.25919,0.722,0.706,-0.137,-1.831,-8.361,4.333,1
9.265914,0.723,0.72,-0.111,-1.77,-8.483,4.211,1
9.274567,0.717,0.729,-0.094,-1.464,-8.239,4.211,1
9.28325,0.712,0.736,-0.082,-1.037,-8.056,4.089,1
9.290202,0.704,0.743,-0.067,0.061,-7.629,3.784,1
9.297396,0.697,0.748,-0.058,0.854,-7.812,3.906,1
9.305089,0.695,0.746,-0.049,0.671,-6.835,3.784,1
9.31342,0.694,0.749,-0.049,-0.854,-6.408,3.662,1
9.322109,0.686,0.76,-0.042,-0.976,-5.92,3.662,1
9.328887,0.679,0.77,-0.035,-0.183,-5.493,3.417,1
9.337826,0.677,0.776,-0.029,0.061,-4.882,3.051,1
9.345602,0.676,0.78,-0.022,0.061,-4.455,2.807,1
9.353801,0.678,0.782,-0.02,-0.061,-3.906,2.624,1
9.362321,0.68,0.785,-0.02,0.366,-3.234,2.014,1
9.36976,0.679,0.778,-0.024,-0.183,-2.563,1.831,1
9.379042,0.684,0.775,-0.032,-1.159,-1.77,1.464,1
9.385961,0.695,0.775,-0.051,-1.403,-1.037,1.22,1
9.394161,0.697,0.779,-0.067,-2.38,-0.488,0.915,1
9.401821,0.694,0.775,-0.077,-2.746,-0.244,0.427,1
9.409253,0.704,0.77,-0.096,-2.441,0.061,0.122,1
9.419298,0.709,0.761,-0.109,-2.136,-0.244,-0.122,1
9.426181,0.711,0.758,-0.123,-1.403,-0.732,-0.244,1
9.435249,0.718,0.763,-0.131,0.0,-1.159,-0.549,1
9.442168,0.711,0.772,-0.125,3.051,-1.403,-0.854,1
9.450667,0.709,0.771,-0.126,4.882,-1.953,-1.037,1
9.458064,0.707,0.766,-0.129,4.089,-2.075,-1.708,1
9.467166,0.702,0.769,-0.127,2.441,-2.075,-1.831,1
9.474216,0.697,0.76,-0.121,2.258,-2.258,-2.319,1
9.48242,0.694,0.753,-0.12,2.563,-2.136,-2.563,1
9.489968,0.69,0.742,-0.125,2.258,-2.014,-2.685,1
9.498646,0.69,0.737,-0.125,1.953,-2.014,-2.624,1
9.505387,0.687,0.73,-0.131,1.464,-1.831,-2.563,1
9.513286,0.682,0.726,-0.132,0.976,-2.075,-2.624,1
9.521262,0.684,0.718,-0.134,0.061,-1.953,-2.502,1
9.528252,0.681,0.71,-0.137,-1.586,-2.014,-2.441,1
9.538581,0.679,0.71,-0.14,-3.295,-2.197,-2.197,1
9.54529,0.678,0.714,-0.126,-3.173,-2.563,-2.136,1
9.554624,0.677,0.712,-0.115,-1.831,-2.929,-1.77,1
9.562674,0.681,0.705,-0.107,-1.831,-2.929,-1.77,1
9.569562,0.685,0.701,-0.099,-2.929,-2.868,-1.586,1
9.578592,0.681,0.701,-0.096,-3.417,-2.685,-1.342,1
9.585985,0.695,0.7,-0.092,-3.112,-2.38,-1.159,1
9.595128,0.694,0.701,-0.088,-2.136,-2.807,-0.976,1
9.603807,0.699,0.705,-0.085,-0.915,-2.685,-0.732,1
9.610553,0.702,0.703,-0.084,-0.61,-2.502,-0.732,1
9.619047,0.701,0.701,-0.089,-0.427,-2.136,-0.671,1
9.627844,0.703,0.705,-0.093,-1.22,-2.014,-0.366,1
9.635304,0.703,0.705,-0.102,-2.319,-1.77,-0.366,1
9.644331,0.701,0.708,-0.104,-2.99,-2.075,-0.305,1
9.653362,0.703,0.711,-0.104,-2.868,-1.892,-0.244,1
9.660953,0.698,0.708,-0.099,-2.441,-2.136,-0.061,1
9.669902,0.696,0.703,-0.105,-3.54,-2.136,-0.183,1
9.676532,0.699,0.705,-0.11,-4.272,-1.892,0.061,1
9.684925,0.698,0.711,-0.115,-2.99,-2.014,0.183,1
9.693299,0.698,0.719,-0.12,-0.061,-2.502,0.122,1
9.700841,0.698,0.73,-0.129,0.671,-2.746,0.549,1
9.709545,0.697,0.732,-0.137,-1.281,-2.807,0.305,1
9.718595,0.702,0.737,-0.142,-2.685,-3.295,0.427,1
9.726132,0.704,0.747,-0.146,-3.356,-3.295,0.549,1
9.734162,0.707,0.754,-0.142,-3.601,-3.784,0.427,1
9.742084,0.705,0.753,-0.145,-4.394,-3.845,0.122,1
9.749749,0.704,0.748,-0.151,-5.554,-4.15,-0.061,1
9.758053,0.705,0.752,-0.153,-6.896,-4.394,-0.366,1
9.765607,0.702,0.75,-0.149,-7.629,-5.004,-0.671,1
9.774822,0.702,0.76,-0.145,-6.652,-5.126,-1.037,1
9.783596,0.699,0.758,-0.137,-4.882,-5.676,-1.281,1
9.790975,0.692,0.755,-0.123,-2.868,-5.92,-1.281,1
9.799315,0.687,0.758,-0.105,-0.854,-6.225,-1.831,1
9.806221,0.686,0.76,-0.097,0.854,-6.103,-2.197,1
9.813684,0.689,0.756,-0.085,0.732,-5.92,-2.014,1
9.822188,0.691,0.756,-0.08,-0.61,-5.432,-2.38,1
9.830602,0.696,0.749,-0.074,-2.258,-5.187,-2.502,1
9.837805,0.695,0.751,-0.065,-1.77,-4.821,-2.807,1
9.845548,0.692,0.74,-0.059,-0.488,-4.699,-2.624,1
9.853727,0.694,0.744,-0.058,1.037,-4.394,-2.99,1
9.861717,0.694,0.734,-0.053,1.037,-3.723,-2.929,1
9.868623,0.697,0.734,-0.056,0.549,-3.601,-3.173,1
9.876483,0.703,0.728,-0.055,0.305,-3.051,-3.051,1
9.885185,0.701,0.729,-0.063,-0.61,-2.746,-3.173,1
9.893387,0.696,0.728,-0.062,-0.915,-2.502,-3.173,1
9.900828,0.694,0.727,-0.063,-0.915,-2.197,-3.173,1
9.909166,0.697,0.722,-0.063,0.183,-2.014,-3.356,1
9.917431,0.696,0.715,-0.064,0.854,-1.892,-3.356,1
9.924466,0.699,0.701,-0.067,0.61,-1.586,-3.234,1
9.932261,0.697,0.698,-0.069,0.244,-1.403,-3.112,1
9.940957,0.697,0.693,-0.072,0.671,-1.342,-2.929,1
9.949304,0.7,0.693,-0.073,1.22,-1.037,-2.746,1
9.955223,0.703,0.687,-0.077,1.159,-0.976,-2.563,1
9.965383,0.697,0.696,-0.077,1.159,-1.098,-2.563,1
9.972402,0.702,0.696,-0.077,1.708,-0.915,-2.258,1
9.981243,0.699,0.7,-0.076,1.586,-0.976,-2.014,1
9.987215,0.703,0.693,-0.077,1.037,-0.793,-1.953,1
9.996411,0.702,0.688,-0.077,0.671,-0.488,-1.77,1
