timestamp_s,ax,ay,az,gx,gy,gz,label
0.005229,0.717,0.735,0.069,0.488,-1.098,1.525,1
0.012851,0.714,0.733,0.073,0.366,-1.22,1.281,1
0.021601,0.715,0.734,0.078,0.366,-1.22,1.281,1
0.027723,0.714,0.733,0.074,0.793,-1.342,0.854,1
0.036396,0.714,0.729,0.078,0.549,-1.098,0.793,1
0.041966,0.714,0.73,0.078,0.793,-1.464,0.976,1
0.049962,0.716,0.728,0.079,0.671,-1.464,0.671,1
0.058472,0.716,0.73,0.077,1.037,-1.159,0.793,1
0.065913,0.716,0.729,0.082,0.732,-0.976,0.915,1
0.074553,0.712,0.729,0.081,0.366,-0.854,0.488,1
0.081431,0.71,0.728,0.081,0.305,-0.854,0.61,1
0.089811,0.708,0.724,0.08,0.427,-0.854,0.427,1
0.096862,0.708,0.728,0.082,0.366,-0.915,0.427,1
0.105355,0.708,0.726,0.083,0.122,-0.915,0.244,1
0.111924,0.711,0.718,0.076,0.427,-0.854,0.488,1
0.11927,0.706,0.72,0.084,0.244,-0.854,0.305,1
0.127327,0.706,0.72,0.08,0.305,-0.671,0.366,1
0.135415,0.708,0.715,0.085,0.427,-0.671,0.244,1
0.142424,0.708,0.713,0.084,0.366,-0.488,0.732,1
0.150203,0.706,0.712,0.084,-0.122,-0.427,0.427,1
0.158537,0.704,0.714,0.081,0.0,-0.305,0.488,1
0.166903,0.709,0.714,0.083,0.122,-0.183,0.427,1
0.175568,0.708,0.714,0.083,0.366,-0.305,0.61,1
0.182309,0.708,0.711,0.083,-0.122,-0.244,0.61,1
0.190375,0.707,0.71,0.082,0.0,-0.183,0.61,1
0.198178,0.71,0.713,0.083,0.183,-0.061,0.549,1
0.206402,0.707,0.711,0.082,0.305,-0.244,0.61,1
0.214209,0.708,0.707,0.083,0.61,-0.366,0.671,1
0.222086,0.711,0.709,0.083,0.61,-0.183,0.854,1
0.229511,0.706,0.707,0.083,0.549,0.0,0.976,1
0.236634,0.711,0.708,0.084,0.488,0.0,0.915,1
0.24421,0.706,0.71,0.084,0.427,0.244,0.854,1
0.251701,0.71,0.706,0.084,0.305,0.061,1.037,1
0.259168,0.707,0.707,0.085,0.305,0.061,1.098,1
0.266565,0.706,0.708,0.083,0.061,0.244,1.098,1
0.276129,0.705,0.703,0.085,-0.061,0.366,1.464,1
0.282676,0.706,0.709,0.085,0.0,0.549,1.342,1
0.289629,0.708,0.708,0.083,0.061,0.671,1.525,1
0.297177,0.705,0.708,0.087,0.305,0.427,1.586,1
0.304662,0.707,0.708,0.083,0.122,0.671,1.464,1
0.312094,0.703,0.71,0.085,0.183,0.671,1.77,1
0.319737,0.708,0.711,0.087,0.488,0.671,1.708,1
0.327132,0.708,0.714,0.085,0.671,0.854,1.892,1
0.334771,0.707,0.712,0.085,0.305,0.915,2.014,1
0.342917,0.703,0.721,0.083,0.183,1.159,1.831,1
0.350341,0.703,0.725,0.082,0.0,1.281,1.831,1
0.357407,0.709,0.729,0.084,0.122,1.22,2.075,1
0.364968,0.706,0.726,0.077,0.122,1.22,1.77,1
0.373805,0.706,0.732,0.08,0.244,0.915,1.708,1
0.38077,0.707,0.727,0.078,0.122,1.159,1.892,1
0.389321,0.706,0.73,0.08,0.427,1.159,1.708,1
0.397166,0.703,0.729,0.078,0.61,1.098,1.77,1
0.403674,0.706,0.727,0.082,0.854,1.098,1.708,1
0.412324,0.705,0.725,0.078,0.793,1.281,1.525,1
0.41962,0.708,0.729,0.077,0.976,1.342,1.708,1
0.426755,0.705,0.729,0.08,0.915,1.281,1.525,1
0.434366,0.706,0.731,0.079,0.854,1.281,1.525,1
0.443099,0.709,0.729,0.077,0.854,1.342,1.22,1
0.449684,0.705,0.731,0.073,0.488,1.342,1.586,1
0.457868,0.705,0.731,0.072,0.488,1.342,1.403,1
0.465046,0.704,0.728,0.072,0.244,1.403,1.22,1
0.472188,0.708,0.732,0.071,0.061,1.586,1.281,1
0.479937,0.708,0.734,0.07,-0.061,1.464,1.22,1
0.486989,0.7,0.732,0.072,0.366,1.342,1.098,1
0.49457,0.707,0.74,0.072,0.366,0.976,1.22,1
0.502795,0.708,0.738,0.075,0.366,1.037,1.098,1
0.510031,0.705,0.74,0.072,-0.061,1.159,0.793,1
0.519044,0.709,0.743,0.068,-0.183,1.281,0.671,1
0.526244,0.706,0.747,0.066,-0.305,1.22,0.732,1
0.533308,0.706,0.748,0.067,-0.183,1.281,0.244,1
0.540961,0.706,0.75,0.066,0.244,1.098,0.427,1
0.549235,0.702,0.747,0.065,0.366,1.037,-0.061,1
0.55663,0.708,0.745,0.064,0.549,1.159,-0.183,1
0.565614,0.705,0.743,0.065,0.488,1.037,-0.183,1
0.572681,0.707,0.739,0.064,0.488,0.976,-0.305,1
0.58055,0.7,0.738,0.062,0.427,0.549,-0.244,1
0.587998,0.699,0.737,0.065,0.305,0.61,-0.427,1
0.597084,0.701,0.736,0.06,0.122,0.732,-0.488,1
0.602715,0.7,0.733,0.058,0.0,0.488,-0.549,1
0.609847,0.701,0.735,0.056,-0.122,0.671,-0.305,1
0.617923,0.702,0.737,0.055,-0.183,0.732,-0.732,1
0.626504,0.704,0.737,0.056,-0.061,0.244,-0.793,1
0.632917,0.702,0.735,0.053,-0.061,0.305,-0.793,1
0.640355,0.706,0.732,0.052,-0.366,-0.061,-0.915,1
0.648545,0.705,0.731,0.054,-0.244,0.122,-0.976,1
0.658274,0.704,0.731,0.055,-0.549,-0.061,-0.976,1
0.665,0.704,0.731,0.052,-0.488,-0.183,-0.915,1
0.67372,0.705,0.731,0.055,-0.366,-0.183,-1.159,1
0.681084,0.701,0.73,0.05,-0.305,-0.61,-1.098,1
0.689299,0.708,0.724,0.054,-0.183,-0.488,-1.342,1
0.697611,0.708,0.725,0.047,-0.061,-0.671,-1.22,1
0.706267,0.708,0.726,0.051,-0.183,-0.854,-1.037,1
0.714114,0.709,0.718,0.053,-0.244,-1.159,-1.037,1
0.722334,0.711,0.712,0.055,0.0,-1.525,-1.22,1
0.731091,0.708,0.71,0.056,0.061,-1.525,-1.037,1
0.739175,0.707,0.71,0.06,-0.122,-1.525,-0.915,1
0.746161,0.703,0.71,0.062,0.0,-1.464,-0.915,1
0.755356,0.702,0.714,0.063,-0.488,-1.77,-0.854,1
0.762923,0.703,0.716,0.058,-0.427,-1.525,-0.488,1
0.770975,0.7,0.714,0.065,-0.244,-1.892,-0.61,1
0.778646,0.703,0.715,0.069,-0.366,-1.77,-0.671,1
0.787256,0.7,0.711,0.068,-0.244,-1.892,-0.671,1
0.796522,0.702,0.712,0.07,-0.183,-1.892,-0.488,1
0.803451,0.707,0.709,0.071,0.183,-1.831,-0.427,1
0.811242,0.704,0.708,0.073,0.122,-1.831,-0.61,1
0.817986,0.703,0.707,0.074,-0.122,-1.77,-0.427,1
0.8263,0.701,0.708,0.075,-0.061,-2.197,0.183,1
0.833276,0.706,0.713,0.079,0.061,-1.953,0.0,1
0.842029,0.704,0.709,0.078,0.122,-1.892,0.061,1
0.851185,0.71,0.712,0.078,-0.122,-1.831,-0.122,1
0.858347,0.708,0.709,0.081,-0.122,-1.831,0.122,1
0.866953,0.704,0.711,0.083,0.0,-2.014,0.366,1
0.874033,0.705,0.711,0.087,0.549,-1.77,0.244,1
0.883049,0.705,0.715,0.088,0.488,-1.647,0.244,1
0.8899,0.703,0.711,0.087,0.244,-1.525,0.488,1
0.898,0.706,0.712,0.087,-0.061,-1.22,0.488,1
0.905253,0.704,0.714,0.093,0.183,-1.281,0.427,1
0.914055,0.705,0.716,0.091,0.488,-1.098,0.549,1
0.921823,0.707,0.72,0.094,0.305,-0.671,0.366,1
0.928787,0.707,0.716,0.09,0.671,-0.976,0.793,1
0.936385,0.712,0.714,0.092,0.549,-0.793,0.671,1
0.943689,0.705,0.712,0.096,0.488,-0.549,0.61,1
0.952573,0.703,0.715,0.094,0.732,-0.488,0.915,1
0.960364,0.706,0.716,0.093,0.366,-0.305,0.61,1
0.967001,0.706,0.717,0.096,0.305,0.183,0.854,1
0.974308,0.703,0.718,0.095,0.244,0.0,0.61,1
0.981563,0.706,0.721,0.094,0.366,0.244,0.671,1
0.989543,0.704,0.72,0.091,0.854,0.305,0.854,1
0.99679,0.702,0.718,0.092,0.793,0.244,0.854,1
1.00429,0.698,0.719,0.091,0.427,0.488,0.854,1
1.012276,0.701,0.724,0.094,0.793,0.366,1.037,1
1.019269,0.703,0.726,0.093,0.915,0.549,0.915,1
1.027169,0.705,0.727,0.092,0.854,0.854,0.793,1
1.035533,0.708,0.729,0.09,0.976,1.22,0.793,1
1.041621,0.706,0.727,0.09,0.732,1.159,0.854,1
1.050274,0.702,0.73,0.09,0.793,1.098,0.915,1
1.056864,0.702,0.728,0.086,0.854,1.342,0.793,1
1.063832,0.704,0.726,0.085,0.61,1.281,0.915,1
1.071197,0.705,0.728,0.084,0.61,1.403,0.854,1
1.078355,0.709,0.729,0.083,0.671,1.464,0.61,1
1.085843,0.706,0.726,0.084,0.793,1.525,0.732,1
1.092969,0.706,0.728,0.084,0.915,1.525,0.732,1
1.100779,0.703,0.727,0.082,0.793,1.586,0.793,1
1.109304,0.706,0.73,0.082,0.854,1.586,0.732,1
1.116785,0.701,0.729,0.078,1.159,1.586,0.854,1
1.123288,0.707,0.727,0.081,1.403,1.708,0.61,1
1.131474,0.702,0.729,0.078,0.854,1.77,0.61,1
1.139234,0.698,0.726,0.079,0.793,1.831,0.488,1
1.147288,0.703,0.73,0.072,0.305,1.708,0.671,1
1.154628,0.703,0.73,0.072,0.0,1.586,0.671,1
1.162518,0.703,0.734,0.068,-0.183,1.892,0.549,1
1.170572,0.704,0.732,0.066,-0.305,1.403,0.549,1
1.177617,0.701,0.733,0.064,-0.305,1.22,0.305,1
1.185121,0.698,0.728,0.064,0.305,1.403,0.244,1
1.194019,0.7,0.731,0.07,0.671,1.342,0.366,1
1.201337,0.7,0.732,0.062,0.854,1.22,0.305,1
1.20972,0.7,0.727,0.063,0.793,1.281,0.305,1
1.217044,0.706,0.728,0.068,0.732,1.342,0.0,1
1.224118,0.705,0.729,0.069,0.976,1.037,0.244,1
1.232422,0.701,0.729,0.065,0.854,1.281,0.427,1
1.239013,0.703,0.729,0.066,0.427,1.22,0.122,1
1.248149,0.703,0.726,0.063,-0.061,0.976,0.122,1
1.256417,0.703,0.722,0.063,-0.061,0.976,0.305,1
1.263585,0.699,0.734,0.067,0.0,1.037,0.305,1
1.271514,0.702,0.727,0.065,-0.244,0.976,0.549,1
1.278778,0.704,0.731,0.063,-0.305,0.549,0.366,1
1.286108,0.703,0.732,0.064,-0.183,0.61,0.183,1
1.294686,0.702,0.732,0.064,0.671,0.427,0.122,1
1.301897,0.703,0.73,0.069,0.671,0.488,-0.061,1
1.310972,0.704,0.729,0.069,0.488,0.488,0.061,1
1.318301,0.703,0.728,0.071,0.244,0.549,0.061,1
1.325157,0.706,0.729,0.07,0.305,0.549,0.0,1
1.332774,0.702,0.724,0.07,0.427,0.671,0.0,1
1.341803,0.703,0.726,0.075,0.793,0.732,-0.061,1
1.349061,0.699,0.722,0.069,0.732,0.427,-0.183,1
1.35692,0.697,0.723,0.07,0.793,0.61,0.061,1
1.364063,0.698,0.722,0.071,0.488,0.549,0.244,1
1.372971,0.7,0.728,0.068,-0.061,0.549,0.061,1
1.380234,0.698,0.726,0.064,-0.427,0.488,0.0,1
1.388379,0.701,0.729,0.066,-0.061,0.488,0.122,1
1.396175,0.701,0.725,0.068,0.061,0.305,-0.061,1
1.403338,0.701,0.726,0.067,0.427,0.366,0.122,1
1.41072,0.698,0.723,0.073,0.915,0.305,0.122,1
1.419244,0.693,0.726,0.075,1.098,0.183,0.061,1
1.425722,0.699,0.723,0.078,1.647,0.244,0.183,1
1.433978,0.698,0.72,0.079,1.464,0.122,0.427,1
1.440523,0.701,0.721,0.078,1.037,0.366,0.183,1
1.44722,0.697,0.724,0.075,0.366,0.61,0.549,1
1.455367,0.7,0.729,0.074,0.061,0.549,0.427,1
1.462144,0.702,0.729,0.07,0.244,0.427,0.183,1
1.46928,0.699,0.727,0.074,0.549,0.488,0.488,1
1.477284,0.705,0.729,0.069,1.037,0.427,0.244,1
1.484261,0.705,0.731,0.074,1.464,0.305,0.366,1
1.492697,0.707,0.729,0.072,1.892,0.366,0.305,1
1.501183,0.708,0.725,0.073,1.892,0.305,0.183,1
1.508456,0.706,0.727,0.075,1.159,0.427,0.122,1
1.516634,0.704,0.73,0.076,1.22,0.549,0.244,1
1.523355,0.703,0.729,0.077,1.77,0.366,0.061,1
1.530746,0.709,0.732,0.076,2.014,0.488,0.183,1
1.538659,0.703,0.729,0.082,2.441,0.244,0.244,1
1.546658,0.699,0.727,0.08,2.441,0.549,0.061,1
1.554678,0.703,0.723,0.081,2.197,0.366,0.0,1
1.561037,0.705,0.722,0.083,2.197,0.549,-0.061,1
1.567898,0.701,0.725,0.083,1.953,0.488,0.122,1
1.575081,0.701,0.724,0.083,1.953,0.671,-0.061,1
1.583333,0.698,0.727,0.083,2.075,1.037,0.305,1
1.589643,0.703,0.726,0.087,1.831,0.854,0.061,1
1.597019,0.705,0.723,0.09,1.647,1.037,0.0,1
1.604683,0.703,0.723,0.088,1.586,1.22,0.183,1
1.612958,0.705,0.725,0.089,1.586,1.098,0.061,1
1.620967,0.705,0.724,0.089,1.525,1.342,0.122,1
1.628185,0.698,0.725,0.088,1.342,1.22,0.244,1
1.635622,0.697,0.722,0.09,1.403,1.525,0.183,1
1.642624,0.699,0.723,0.094,1.464,1.342,0.183,1
1.649741,0.698,0.723,0.091,1.708,2.075,0.244,1
1.65703,0.703,0.722,0.09,1.647,1.77,0.183,1
1.664459,0.7,0.727,0.088,1.22,1.953,0.183,1
1.673394,0.703,0.722,0.089,1.159,2.319,0.305,1
1.680644,0.699,0.727,0.089,0.671,2.136,0.488,1
1.688608,0.697,0.723,0.086,0.854,2.563,0.305,1
1.695555,0.697,0.721,0.083,0.793,2.563,0.244,1
1.704463,0.698,0.721,0.082,0.549,2.563,0.366,1
1.712267,0.698,0.717,0.082,0.061,2.624,0.488,1
1.719823,0.699,0.721,0.077,0.061,2.746,0.488,1
1.726939,0.699,0.723,0.077,0.122,2.807,0.488,1
1.735929,0.701,0.719,0.077,0.061,2.563,0.488,1
1.743004,0.706,0.718,0.074,0.122,2.746,0.549,1
1.750521,0.704,0.719,0.078,0.793,2.746,0.915,1
1.759237,0.702,0.718,0.073,0.671,2.929,0.61,1
1.766999,0.703,0.716,0.075,1.037,2.929,0.671,1
1.774658,0.707,0.721,0.076,0.793,2.868,0.732,1
1.782145,0.701,0.721,0.07,0.305,2.929,0.732,1
1.789309,0.701,0.723,0.071,0.061,3.051,0.732,1
1.798204,0.701,0.72,0.068,-0.122,2.99,0.793,1
1.805354,0.699,0.723,0.067,-0.061,2.563,0.671,1
1.812837,0.695,0.726,0.064,-0.061,2.929,0.976,1
1.821927,0.698,0.724,0.065,0.183,2.807,0.854,1
1.829479,0.697,0.72,0.061,0.122,2.929,0.976,1
1.836771,0.695,0.723,0.062,0.122,2.807,1.098,1
1.845177,0.693,0.724,0.06,0.427,2.807,1.159,1
1.852961,0.699,0.721,0.06,0.671,2.502,1.22,1
1.860354,0.698,0.719,0.06,0.732,2.624,1.22,1
1.867436,0.703,0.718,0.061,0.488,2.319,1.159,1
1.874914,0.698,0.719,0.061,0.305,2.441,1.403,1
1.883719,0.695,0.719,0.062,0.427,2.441,1.403,1
1.890821,0.698,0.719,0.062,0.671,2.197,1.525,1
1.899399,0.702,0.723,0.063,0.427,2.197,1.525,1
1.906881,0.7,0.728,0.06,0.122,2.38,1.525,1
1.913922,0.695,0.72,0.058,0.183,2.197,1.708,1
1.921399,0.693,0.72,0.058,0.0,2.319,1.77,1
1.929826,0.695,0.726,0.06,-0.244,2.136,1.586,1
1.937988,0.697,0.725,0.057,-0.183,2.197,1.77,1
1.944911,0.695,0.725,0.059,-0.183,1.892,1.708,1
1.95246,0.697,0.728,0.054,0.183,1.953,1.647,1
1.961429,0.699,0.724,0.054,0.427,1.77,1.708,1
1.968529,0.695,0.72,0.057,0.244,1.831,1.892,1
1.977319,0.694,0.717,0.056,0.061,1.77,1.831,1
1.985967,0.698,0.72,0.06,-0.122,1.708,1.892,1
1.992448,0.7,0.719,0.06,-0.183,1.647,2.136,1
2.000789,0.695,0.723,0.059,-0.244,1.708,2.075,1
2.007578,0.7,0.723,0.065,-0.183,1.525,2.441,1
2.0159,0.696,0.723,0.067,0.0,1.342,2.38,1
2.023868,0.696,0.729,0.071,0.244,1.22,2.38,1
2.031812,0.694,0.727,0.076,0.61,1.342,2.441,1
2.039843,0.698,0.724,0.083,1.281,1.403,2.563,1
2.046709,0.702,0.724,0.091,1.403,1.403,2.441,1
2.055754,0.698,0.723,0.099,1.953,1.831,2.319,1
2.062553,0.694,0.722,0.104,2.807,1.831,2.441,1
2.07015,0.695,0.714,0.112,3.234,1.831,2.441,1
2.077593,0.688,0.715,0.119,3.906,2.38,2.624,1
2.085036,0.689,0.719,0.125,5.249,2.502,2.624,1
2.093824,0.692,0.72,0.136,7.385,2.319,2.99,1
2.101071,0.693,0.723,0.152,10.192,2.624,2.99,1
2.110237,0.682,0.729,0.164,11.291,3.417,3.173,1
2.117253,0.673,0.734,0.185,10.07,4.211,3.601,1
2.12419,0.661,0.743,0.196,5.615,5.31,3.54,1
2.132771,0.666,0.749,0.22,1.098,6.835,3.417,1
2.139838,0.687,0.756,0.236,-1.586,8.117,3.295,1
2.147945,0.705,0.755,0.254,-2.258,9.277,2.868,1
2.154797,0.708,0.751,0.268,-2.746,10.925,2.807,1
2.162669,0.707,0.767,0.266,-4.516,12.39,2.99,1
2.17069,0.701,0.781,0.258,-5.432,13.854,2.868,1
2.178388,0.704,0.776,0.259,-4.577,15.014,2.563,1
2.187369,0.703,0.8,0.26,-2.99,16.235,2.38,1
2.194364,0.709,0.803,0.254,-0.854,17.089,1.831,1
2.201922,0.716,0.806,0.251,0.549,17.944,1.281,1
2.209447,0.723,0.809,0.256,2.38,18.676,0.976,1
2.218672,0.724,0.806,0.262,3.173,19.714,0.488,1
2.225269,0.721,0.804,0.267,2.624,21.423,0.244,1
2.232834,0.698,0.814,0.274,0.61,22.583,-0.488,1
2.24252,0.694,0.813,0.285,-1.464,24.169,-0.793,1
2.249883,0.684,0.801,0.295,-3.234,25.695,-1.647,1
2.25718,0.688,0.799,0.304,-2.868,27.343,-2.075,1
2.266555,0.677,0.803,0.295,-2.136,29.174,-2.38,1
2.274231,0.683,0.811,0.293,-0.305,30.761,-2.99,1
2.282857,0.676,0.802,0.281,2.319,32.409,-3.601,1
2.288975,0.677,0.791,0.269,4.333,33.691,-4.272,1
2.296676,0.677,0.77,0.25,5.798,34.851,-4.638,1
2.305339,0.688,0.752,0.24,6.896,35.888,-5.126,1
2.312475,0.697,0.734,0.239,8.789,36.865,-4.943,1
2.320143,0.711,0.718,0.232,8.056,39.001,-4.76,1
2.329591,0.734,0.704,0.21,6.591,40.405,-4.76,1
2.337178,0.695,0.697,0.197,4.943,41.625,-4.577,1
2.344461,0.625,0.689,0.174,0.671,43.334,-4.394,1
2.352765,0.638,0.67,0.162,-6.286,44.616,-4.455,1
2.360274,0.612,0.654,0.135,-17.333,47.424,-4.028,1
2.368466,0.608,0.658,0.165,-19.531,45.288,-4.15,1
2.375976,0.562,0.644,0.175,-10.864,47.546,-3.051,1
2.384259,0.595,0.63,0.145,-3.54,46.02,-2.685,1
2.392195,0.615,0.601,0.149,1.22,47.302,-1.831,1
2.399438,0.493,0.573,0.126,-0.244,48.034,-1.037,1
2.408613,0.586,0.544,0.126,-6.408,49.743,-0.244,1
2.415633,0.63,0.541,0.141,-5.31,50.964,1.525,1
2.423323,0.648,0.564,0.121,-0.183,52.368,3.479,1
2.430831,0.709,0.584,0.085,5.187,53.039,5.249,1
2.439794,0.747,0.618,0.058,7.385,54.138,6.713,1
2.447239,0.775,0.647,0.005,8.728,55.236,7.934,1
2.455848,0.78,0.683,-0.066,9.338,57.006,9.033,1
2.46255,0.749,0.69,-0.179,5.371,58.532,9.216,1
2.470404,0.633,0.738,-0.303,-0.244,59.082,10.07,1
2.478029,0.49,0.846,-0.48,-10.986,62.194,10.681,1
2.486739,0.388,0.971,-0.74,-26.245,61.462,9.094,1
2.495778,0.268,1.028,-1.027,-40.588,63.476,5.493,1
2.50298,0.25,1.032,-1.549,-81.787,62.805,1.403,1
2.511036,0.304,0.958,-2.102,-143.066,61.706,-2.685,1
2.519883,0.325,0.962,-2.779,-206.359,57.373,-7.019,1
2.526963,0.437,1.045,-3.409,-212.707,41.259,-9.277,1
2.536414,0.436,1.117,-4.037,-150.817,12.634,-10.742,1
2.54476,0.416,1.043,-4.62,-95.397,-18.92,-10.864,1
2.552524,0.344,0.904,-5.099,-85.815,-56.213,-8.728,1
2.56125,0.311,0.867,-5.392,-110.717,-88.378,-5.004,1
2.568401,0.256,0.919,-5.528,-134.887,-130.798,-0.122,1
2.57736,0.105,0.997,-5.43,-132.019,-168.701,4.577,1
2.587037,-0.146,1.074,-5.193,-109.069,-213.928,8.422,1
2.595604,-0.404,1.109,-4.937,-97.778,-255.126,10.925,1
2.602149,-0.735,1.192,-4.506,-102.722,-292.663,12.573,1
2.611918,-1.053,1.289,-4.062,-105.285,-321.167,13.366,1
2.618326,-1.415,1.416,-3.495,-102.6,-352.05,13.671,1
2.626643,-1.688,1.528,-2.96,-94.787,-375.61,12.451,1
2.635193,-1.981,1.641,-2.409,-90.209,-394.531,10.437,1
2.644522,-2.316,1.79,-1.748,-82.824,-413.452,6.469,1
2.652002,-2.579,1.873,-1.051,-70.861,-427.368,0.488,1
2.661578,-2.733,1.878,-0.362,-61.889,-433.959,-5.493,1
2.668671,-2.814,1.873,0.193,-49.926,-436.157,-12.756,1
2.678033,-2.842,1.862,0.74,-38.146,-432.739,-20.263,1
2.685067,-2.784,1.852,1.13,-25.939,-428.771,-28.137,1
2.692695,-2.693,1.92,1.6,11.047,-423.645,-39.367,1
2.701681,-2.617,1.851,2.041,61.035,-415.527,-50.781,1
2.70932,-2.483,1.693,2.528,109.924,-400.146,-64.086,1
2.718667,-2.368,1.494,2.819,133.178,-380.737,-80.261,1
2.726662,-2.35,1.232,3.12,106.018,-352.416,-91.979,1
2.733804,-1.85,1.071,3.246,44.311,-327.88,-100.402,1
2.741834,-1.653,0.989,3.611,6.591,-292.907,-105.895,1
2.749409,-1.406,0.872,3.619,-8.789,-268.188,-109.313,1
2.758717,-1.114,0.695,3.517,-14.831,-243.835,-109.924,1
2.765594,-0.681,0.608,3.615,2.807,-227.539,-110.351,1
2.774372,-0.547,0.424,3.69,18.432,-205.627,-108.764,1
2.782036,-0.231,0.19,3.791,-1.159,-180.664,-105.529,1
2.791272,0.045,0.041,3.793,-14.221,-156.738,-100.341,1
2.798371,0.221,-0.02,3.783,-10.681,-133.789,-94.177,1
2.80593,0.366,-0.095,3.669,1.22,-113.83,-88.134,1
2.814699,0.468,-0.14,3.54,11.291,-95.397,-82.519,1
2.8234,0.521,-0.131,3.309,17.272,-74.035,-76.232,1
2.831037,0.513,-0.07,3.119,20.629,-57.739,-71.716,1
2.837756,0.483,-0.021,2.919,22.705,-42.419,-67.81,1
2.8452,0.511,0.005,2.754,21.301,-27.954,-64.147,1
2.853069,0.492,0.037,2.583,14.465,-13.671,-60.546,1
2.86211,0.381,0.092,2.442,6.469,-0.366,-57.556,1
2.869122,0.351,0.126,2.3,-0.671,15.563,-53.894,1
2.876733,0.336,0.149,2.137,-5.065,27.954,-50.72,1
2.885789,0.317,0.163,1.914,-9.033,38.94,-47.302,1
2.892744,0.302,0.169,1.702,-13.732,49.682,-44.372,1
2.901831,0.31,0.173,1.492,-16.845,56.091,-42.419,1
2.908817,0.338,0.167,1.299,-19.226,60.729,-40.222,1
2.916542,0.389,0.172,1.111,-18.615,63.293,-38.696,1
2.924115,0.416,0.164,0.983,-12.878,64.758,-36.56,1
2.933016,0.421,0.136,0.868,-12.268,65.307,-34.118,1
2.941881,0.431,0.123,0.781,-15.991,66.04,-31.494,1
2.948999,0.458,0.112,0.687,-18.676,66.345,-28.869,1
2.956227,0.501,0.093,0.606,-20.629,66.65,-25.634,1
2.965145,0.531,0.104,0.528,-20.141,65.917,-22.521,1
2.972392,0.544,0.112,0.441,-20.812,65.246,-19.287,1
2.980092,0.565,0.127,0.353,-23.315,63.903,-15.808,1
2.98904,0.587,0.156,0.296,-21.484,61.889,-12.878,1
2.99697,0.583,0.177,0.232,-17.395,59.204,-10.375,1
3.004985,0.58,0.202,0.184,-12.878,55.664,-7.873,1
3.012669,0.583,0.218,0.148,-11.718,52.429,-6.103,1
3.019245,0.586,0.238,0.129,-11.901,49.194,-4.699,1
3.026667,0.587,0.255,0.12,-11.718,45.959,-3.417,1
3.034975,0.598,0.269,0.11,-13.122,43.029,-2.136,1
3.043452,0.624,0.284,0.109,-15.808,39.978,-0.976,1
3.05214,0.64,0.3,0.118,-17.578,37.109,0.305,1
3.059285,0.645,0.321,0.14,-18.005,34.484,1.525,1
3.068034,0.64,0.354,0.161,-16.174,31.372,2.563,1
3.075466,0.633,0.369,0.176,-13.427,28.808,3.234,1
3.08228,0.629,0.38,0.189,-10.437,26.794,3.417,1
3.089855,0.652,0.395,0.192,-5.859,24.414,4.028,1
3.0982,0.666,0.385,0.183,-5.92,22.46,4.333,1
3.105736,0.678,0.388,0.189,-9.46,20.812,4.821,1
3.114428,0.697,0.392,0.203,-11.23,19.226,5.432,1
3.121689,0.711,0.396,0.217,-9.887,16.845,5.737,1
3.129498,0.729,0.393,0.232,-8.178,14.648,6.042,1
3.137902,0.74,0.387,0.255,-7.507,12.145,6.652,1
3.145459,0.764,0.389,0.283,-5.92,9.887,7.446,1
3.151959,0.778,0.383,0.317,-2.624,8.117,7.995,1
3.15985,0.789,0.381,0.346,1.281,6.652,9.155,1
3.166726,0.793,0.384,0.354,1.22,6.103,10.07,1
3.174858,0.786,0.397,0.357,-2.563,5.92,10.681,1
3.181568,0.784,0.418,0.362,-7.446,5.676,11.413,1
3.189874,0.773,0.435,0.364,-9.704,5.126,11.779,1
3.197309,0.758,0.454,0.358,-9.826,4.577,11.84,1
3.206562,0.754,0.462,0.357,-10.192,3.845,11.84,1
3.213819,0.75,0.473,0.357,-11.352,3.295,12.084,1
3.220523,0.746,0.49,0.37,-9.643,2.502,12.512,1
3.229219,0.734,0.518,0.387,-4.943,1.647,12.084,1
3.237053,0.725,0.524,0.395,-1.22,1.037,12.023,1
3.24399,0.713,0.53,0.404,-1.22,0.671,11.718,1
3.251686,0.724,0.524,0.418,-4.028,0.549,11.23,1
3.259634,0.737,0.528,0.437,-7.324,1.037,11.474,1
3.268296,0.752,0.528,0.443,-9.277,1.708,11.23,1
3.275142,0.771,0.533,0.444,-9.765,1.953,11.169,1
3.284121,0.774,0.54,0.437,-8.911,2.197,10.803,1
3.291744,0.786,0.539,0.434,-7.141,2.136,10.375,1
3.299121,0.801,0.532,0.432,-5.371,2.136,10.131,1
3.306551,0.803,0.534,0.436,-4.455,1.831,10.009,1
3.314191,0.798,0.538,0.432,-3.784,1.953,9.887,1
3.323098,0.79,0.545,0.429,-2.746,1.586,9.765,1
3.329962,0.781,0.551,0.438,-0.366,0.854,9.704,1
3.337539,0.761,0.556,0.442,0.244,0.61,9.338,1
3.344986,0.76,0.557,0.447,-1.525,0.61,9.338,1
3.353717,0.758,0.565,0.452,-3.601,0.549,9.033,1
3.36044,0.758,0.574,0.46,-2.99,0.427,8.361,1
3.368125,0.755,0.576,0.462,-0.671,0.488,8.056,1
3.376682,0.748,0.569,0.459,0.732,0.427,7.629,1
3.384025,0.753,0.559,0.457,0.976,0.854,6.958,1
3.391058,0.752,0.555,0.45,1.159,1.098,6.835,1
3.398466,0.749,0.556,0.437,1.22,1.525,6.286,1
3.407306,0.748,0.554,0.429,1.647,1.464,6.042,1
3.413956,0.75,0.555,0.427,2.197,1.22,5.92,1
3.421565,0.736,0.55,0.427,1.586,1.098,5.676,1
3.430202,0.74,0.542,0.414,-1.22,0.793,5.615,1
3.43714,0.733,0.55,0.433,-2.197,1.159,5.371,1
3.446144,0.74,0.549,0.428,-1.464,0.915,5.493,1
3.453212,0.745,0.549,0.437,0.427,0.61,5.249,1
3.460743,0.749,0.544,0.433,1.647,0.366,5.249,1
3.468241,0.756,0.536,0.442,2.136,-0.061,5.432,1
3.475903,0.758,0.535,0.447,2.563,0.183,5.31,1
3.483527,0.765,0.536,0.453,3.112,-0.122,5.371,1
3.492282,0.766,0.535,0.466,5.126,-0.244,5.737,1
3.499584,0.765,0.537,0.484,8.728,-0.305,5.676,1
3.507122,0.761,0.534,0.494,11.718,-0.305,5.798,1
3.515959,0.76,0.534,0.496,12.756,-0.061,6.103,1
3.523008,0.752,0.53,0.502,12.39,0.427,6.042,1
3.530748,0.743,0.532,0.497,10.192,0.549,6.225,1
3.538806,0.745,0.533,0.494,6.958,1.098,5.92,1
3.545328,0.752,0.538,0.497,5.615,1.22,6.164,1
3.555054,0.75,0.544,0.492,5.676,1.159,5.615,1
3.56252,0.743,0.54,0.492,7.507,1.037,5.981,1
3.569659,0.735,0.537,0.491,9.216,0.915,5.798,1
3.576942,0.726,0.532,0.495,10.131,0.915,5.737,1
3.585937,0.706,0.525,0.492,10.681,0.854,6.042,1
3.593718,0.695,0.518,0.502,9.826,1.159,6.286,1
3.601175,0.688,0.518,0.506,8.483,1.708,6.774,1
3.608311,0.69,0.512,0.514,6.774,2.258,7.019,1
3.617068,0.693,0.507,0.518,5.554,2.746,7.507,1
3.623808,0.697,0.513,0.522,4.943,3.356,7.751,1
3.632669,0.7,0.516,0.528,5.126,3.723,7.934,1
3.639534,0.705,0.515,0.529,6.774,4.211,8.239,1
3.647903,0.706,0.515,0.53,8.239,4.577,8.056,1
3.654616,0.708,0.508,0.535,10.253,4.882,8.239,1
3.663297,0.707,0.507,0.529,10.925,5.065,8.422,1
3.670419,0.712,0.498,0.533,11.169,5.126,8.789,1
3.679611,0.718,0.502,0.538,10.986,5.554,9.277,1
3.686616,0.717,0.505,0.536,10.742,6.103,9.704,1
3.694488,0.718,0.5,0.537,10.131,6.591,9.765,1
3.701324,0.724,0.499,0.541,10.009,6.896,9.948,1
3.709997,0.734,0.504,0.544,9.277,7.385,10.375,1
3.716648,0.732,0.506,0.548,9.094,8.117,10.314,1
3.723248,0.725,0.518,0.552,8.972,8.789,10.253,1
3.731608,0.725,0.517,0.554,8.728,9.399,10.62,1
3.739631,0.727,0.526,0.553,8.422,10.07,10.62,1
3.746582,0.724,0.526,0.55,8.361,10.62,10.681,1
3.75361,0.712,0.529,0.547,8.361,11.291,10.864,1
3.761488,0.712,0.533,0.534,8.483,11.962,10.986,1
3.76898,0.717,0.532,0.525,7.873,12.817,11.352,1
3.777419,0.72,0.539,0.517,6.469,13.244,10.986,1
3.785668,0.72,0.538,0.515,5.004,13.549,11.169,1
3.79205,0.727,0.538,0.505,4.516,14.099,11.291,1
3.801099,0.725,0.537,0.51,4.211,14.404,11.291,1
3.807931,0.722,0.535,0.501,3.723,14.831,11.535,1
3.814915,0.72,0.539,0.498,2.441,15.014,11.657,1
3.823634,0.708,0.545,0.496,1.342,15.075,12.023,1
3.831268,0.691,0.56,0.484,0.976,15.502,12.084,1
3.83767,0.697,0.567,0.481,1.281,15.747,12.023,1
3.846187,0.701,0.574,0.464,1.525,16.052,12.023,1
3.854261,0.708,0.573,0.442,1.403,15.869,11.84,1
3.862377,0.711,0.577,0.425,1.22,15.93,11.718,1
3.869132,0.711,0.577,0.414,2.38,15.258,11.718,1
3.877381,0.718,0.575,0.394,3.845,14.831,11.413,1
3.88331,0.723,0.573,0.383,3.601,14.465,11.718,1
3.890773,0.722,0.575,0.37,2.685,14.038,11.901,1
3.899309,0.714,0.582,0.36,2.136,13.427,11.474,1
3.906615,0.717,0.587,0.354,2.197,13.122,11.596,1
3.913303,0.726,0.587,0.343,2.38,12.329,11.474,1
3.920562,0.728,0.59,0.341,3.112,11.352,11.23,1
3.92756,0.731,0.59,0.329,3.601,10.742,11.108,1
3.936269,0.733,0.592,0.32,3.417,10.192,11.169,1
3.942889,0.737,0.594,0.315,2.563,9.643,10.803,1
3.949865,0.737,0.6,0.314,1.037,8.85,10.864,1
3.958183,0.738,0.601,0.311,0.854,8.239,10.559,1
3.965081,0.743,0.606,0.305,1.586,7.324,10.253,1
3.974186,0.747,0.603,0.298,2.929,6.53,9.826,1
3.981161,0.739,0.602,0.29,4.15,5.432,9.582,1
3.987736,0.732,0.605,0.284,4.76,4.394,9.46,1
3.995849,0.733,0.604,0.277,4.333,3.479,9.155,1
4.003596,0.738,0.607,0.276,3.723,2.746,8.85,1
4.0123,0.736,0.61,0.281,3.479,1.525,8.361,1
4.019339,0.738,0.614,0.276,5.187,0.61,7.995,1
4.026464,0.741,0.613,0.273,6.164,-0.305,7.751,1
4.0356,0.744,0.614,0.271,6.835,-1.403,7.629,1
4.04273,0.741,0.62,0.278,6.958,-2.441,7.263,1
4.051106,0.733,0.625,0.277,7.507,-3.54,6.835,1
4.058105,0.72,0.628,0.292,7.751,-4.699,6.408,1
4.066475,0.714,0.622,0.291,7.324,-5.554,6.042,1
4.074821,0.718,0.62,0.299,6.53,-6.469,5.493,1
4.081334,0.714,0.618,0.31,5.981,-7.263,5.187,1
4.090375,0.713,0.622,0.319,6.286,-7.995,4.821,1
4.097726,0.716,0.629,0.331,7.019,-8.361,4.272,1
4.106338,0.716,0.626,0.344,9.094,-9.216,3.845,1
4.114133,0.711,0.627,0.354,9.704,-9.643,3.662,1
4.121262,0.71,0.627,0.36,8.85,-10.009,2.99,1
4.128988,0.714,0.627,0.371,7.934,-10.375,2.929,1
4.137736,0.715,0.628,0.38,6.774,-10.62,2.258,1
4.144233,0.725,0.625,0.388,5.554,-10.925,2.136,1
4.15319,0.72,0.62,0.398,4.028,-11.047,1.953,1
4.160667,0.727,0.618,0.409,2.38,-11.108,1.892,1
4.168045,0.74,0.627,0.433,1.342,-11.291,1.831,1
4.175745,0.728,0.63,0.466,1.647,-11.047,1.647,1
4.184041,0.721,0.635,0.482,3.051,-10.925,1.098,1
4.192355,0.722,0.625,0.499,3.784,-10.131,0.732,1
4.199154,0.73,0.62,0.515,4.028,-9.887,0.549,1
4.207139,0.74,0.609,0.529,3.784,-9.399,0.122,1
4.214498,0.749,0.608,0.544,3.295,-8.911,0.305,1
4.223501,0.743,0.602,0.55,2.868,-8.361,-0.061,1
4.230409,0.72,0.61,0.566,3.417,-7.934,-0.305,1
4.239703,0.706,0.605,0.577,3.906,-7.385,-0.854,1
4.247373,0.7,0.602,0.578,3.417,-6.835,-1.037,1
4.254095,0.7,0.587,0.585,3.234,-6.225,-1.403,1
4.262072,0.698,0.577,0.597,2.441,-5.432,-1.525,1
4.271286,0.694,0.569,0.606,2.746,-4.455,-1.77,1
4.278268,0.679,0.565,0.603,3.234,-3.295,-1.525,1
4.285632,0.678,0.555,0.601,3.051,-2.075,-1.525,1
4.294336,0.676,0.545,0.585,2.563,-0.976,-1.342,1
4.301481,0.678,0.538,0.572,1.586,0.0,-1.342,1
4.310303,0.678,0.533,0.558,1.037,0.793,-0.854,1
4.317313,0.671,0.53,0.546,1.037,1.464,-0.671,1
4.325434,0.677,0.525,0.534,2.746,1.586,-0.366,1
4.332895,0.677,0.519,0.518,3.234,1.953,-0.122,1
4.340524,0.68,0.511,0.509,2.685,2.258,0.366,1
4.348051,0.683,0.498,0.502,0.976,2.563,0.976,1
4.356184,0.689,0.496,0.495,-0.915,2.807,1.464,1
4.365665,0.69,0.494,0.492,-1.586,3.173,2.136,1
4.37221,0.694,0.493,0.479,-0.671,3.051,2.746,1
4.381377,0.693,0.49,0.477,0.61,3.356,3.112,1
4.388359,0.688,0.485,0.466,1.159,3.173,3.845,1
4.395766,0.685,0.488,0.455,1.037,2.929,4.455,1
4.404094,0.69,0.491,0.447,0.793,3.112,5.065,1
4.411262,0.675,0.492,0.438,1.403,3.173,5.676,1
4.420157,0.668,0.497,0.43,2.685,3.051,6.103,1
4.427322,0.666,0.497,0.423,3.54,2.868,6.286,1
4.434348,0.662,0.5,0.412,4.333,2.563,6.774,1
4.441527,0.658,0.501,0.412,4.699,2.38,7.202,1
4.4503,0.66,0.506,0.403,4.516,2.136,7.446,1
4.457727,0.661,0.504,0.4,3.601,1.77,7.812,1
4.464475,0.666,0.508,0.39,2.014,1.159,8.178,1
4.473683,0.678,0.506,0.385,1.098,0.549,8.666,1
4.480523,0.686,0.507,0.379,0.915,-0.061,9.094,1
4.489747,0.694,0.511,0.379,2.136,-1.403,9.643,1
4.496739,0.708,0.507,0.388,3.112,-2.258,10.498,1
4.50361,0.71,0.514,0.392,3.784,-3.234,11.23,1
4.51122,0.71,0.525,0.401,5.554,-4.211,11.718,1
4.518827,0.708,0.535,0.419,7.934,-4.882,12.634,1
4.527728,0.702,0.541,0.435,10.192,-5.615,12.817,1
4.53448,0.695,0.547,0.444,10.498,-5.737,13.183,1
4.542297,0.69,0.553,0.448,9.155,-5.615,13.366,1
4.550712,0.679,0.559,0.459,7.385,-5.737,13.61,1
4.558514,0.669,0.562,0.465,5.737,-5.554,13.671,1
4.565275,0.67,0.57,0.467,4.333,-5.493,13.61,1
4.573061,0.665,0.57,0.477,3.845,-5.371,13.427,1
4.58175,0.658,0.574,0.488,5.371,-5.493,13.549,1
4.588782,0.646,0.577,0.497,7.568,-5.493,13.427,1
4.596317,0.643,0.573,0.502,8.972,-5.493,13.61,1
4.60381,0.639,0.579,0.508,9.277,-5.371,13.366,1
4.612239,0.639,0.576,0.512,8.85,-4.76,13.488,1
4.620434,0.641,0.581,0.515,8.483,-4.699,13.488,1
4.627474,0.644,0.583,0.517,9.704,-4.15,13.61,1
4.636875,0.654,0.593,0.518,11.047,-4.333,13.427,1
4.643807,0.665,0.602,0.536,13.732,-4.455,13.549,1
4.653265,0.663,0.609,0.55,17.517,-4.577,13.244,1
4.660207,0.663,0.611,0.568,20.141,-4.089,13.122,1
4.668848,0.657,0.608,0.584,20.69,-3.845,12.817,1
4.674942,0.649,0.606,0.6,19.226,-3.112,12.817,1
4.683368,0.651,0.597,0.615,16.235,-2.563,12.634,1
4.690813,0.646,0.594,0.633,12.634,-1.342,12.695,1
4.698583,0.642,0.589,0.645,10.559,-0.305,12.451,1
4.704921,0.616,0.581,0.652,8.972,0.122,12.512,1
4.712917,0.594,0.572,0.668,7.202,0.549,12.329,1
4.720119,0.583,0.541,0.698,3.906,1.464,12.512,1
4.728516,0.574,0.519,0.74,0.0,1.708,12.695,1
4.735379,0.53,0.502,0.809,-0.732,1.831,13.183,1
4.742591,0.505,0.479,0.94,4.516,2.136,14.038,1
4.750399,0.481,0.444,1.128,16.418,2.685,15.136,1
4.758083,0.463,0.39,1.38,32.348,3.906,17.211,1
4.766651,0.419,0.346,1.687,52.49,7.324,20.202,1
4.773783,0.382,0.266,2.066,71.166,12.878,23.498,1
4.781457,0.228,0.198,2.541,93.383,23.071,27.77,1
4.788703,0.23,0.044,2.833,101.867,35.034,32.836,1
4.797804,0.14,-0.033,3.146,87.341,50.72,39.367,1
4.804941,0.167,-0.056,3.46,74.279,66.467,45.349,1
4.812187,0.064,-0.05,3.777,72.998,86.425,52.734,1
4.81985,0.022,-0.041,4.083,82.885,103.942,58.532,1
4.829085,-0.105,-0.043,4.38,94.482,124.999,65.734,1
4.836128,-0.27,-0.04,4.661,109.191,145.507,73.12,1
4.844585,-0.417,-0.041,4.926,120.849,174.316,82.214,1
4.85294,-0.605,-0.029,5.101,120.422,202.331,90.332,1
4.860261,-0.81,0.02,5.22,114.746,233.459,98.632,1
4.867723,-1.051,0.126,5.247,110.351,265.38,106.323,1
4.875308,-1.428,0.323,5.204,115.478,302.063,114.318,1
4.883797,-1.818,0.501,5.067,121.52,332.214,120.91,1
4.891053,-2.257,0.703,4.867,123.657,362.548,127.258,1
4.898943,-2.738,0.959,4.53,123.657,391.723,132.995,1
4.906538,-3.116,1.188,4.141,122.558,419.616,137.512,1
4.914865,-3.456,1.421,3.686,124.877,446.838,141.235,1
4.922469,-3.752,1.602,3.198,127.807,467.712,143.127,1
4.931457,-4.045,1.772,2.551,123.168,486.45,144.287,1
4.93862,-4.244,1.895,1.97,109.252,501.953,143.981,1
4.945993,-4.458,2.052,1.374,83.068,518.371,140.991,1
4.954045,-4.638,2.255,0.698,52.185,528.747,133.483,1
4.961538,-4.754,2.426,0.044,20.446,534.362,122.009,1
4.970583,-4.73,2.52,-0.663,-14.648,536.804,107.055,1
4.977836,-4.69,2.633,-1.392,-50.292,531.433,85.876,1
4.986669,-4.535,2.716,-1.972,-46.447,519.592,66.528,1
4.993615,-4.313,2.682,-2.499,-7.995,495.361,46.02,1
5.002365,-4.091,2.624,-2.815,29.113,474.914,32.836,1
5.009202,-3.837,2.57,-3.191,46.447,451.782,23.071,1
5.017135,-3.515,2.538,-3.498,52.429,427.612,14.343,1
5.026249,-3.196,2.527,-3.81,45.043,404.785,5.981,1
5.032951,-2.835,2.5,-4.11,20.812,378.417,-4.333,1
5.042236,-2.436,2.455,-4.312,-6.713,346.618,-17.7,1
5.049514,-2.059,2.37,-4.409,-7.141,315.368,-30.029,1
5.058315,-1.654,2.161,-4.4,14.526,277.099,-42.175,1
5.066028,-1.343,1.903,-4.304,32.714,245.361,-50.292,1
5.073952,-1.056,1.616,-4.129,42.48,216.674,-54.931,1
5.08232,-0.719,1.336,-3.866,48.4,186.767,-57.739,1
5.089415,-0.465,1.14,-3.616,49.804,163.513,-58.227,1
5.097544,-0.291,1.004,-3.34,52.734,142.7,-57.495,1
5.105455,-0.133,0.907,-3.073,53.833,124.938,-56.091,1
5.114362,0.019,0.788,-2.821,41.87,110.412,-54.504,1
5.121535,0.142,0.713,-2.639,22.949,95.703,-53.161,1
5.128575,0.225,0.646,-2.487,14.343,83.19,-52.001,1
5.136173,0.267,0.606,-2.326,22.766,71.655,-50.476,1
5.145366,0.33,0.458,-2.231,33.63,58.959,-48.583,1
5.152304,0.361,0.357,-2.084,34.667,47.607,-44.921,1
5.160046,0.416,0.307,-1.973,34.118,38.391,-41.32,1
5.167841,0.44,0.288,-1.833,37.17,30.029,-37.597,1
5.176594,0.462,0.285,-1.688,41.809,22.827,-33.386,1
5.18362,0.456,0.285,-1.574,40.344,15.686,-29.052,1
5.191357,0.441,0.315,-1.467,33.02,11.84,-25.512,1
5.199236,0.433,0.359,-1.398,25.207,8.422,-23.132,1
5.208351,0.436,0.395,-1.321,21.24,4.15,-20.568,1
5.215385,0.445,0.424,-1.224,23.01,-0.549,-18.188,1
5.223717,0.45,0.431,-1.143,24.963,-4.272,-15.93,1
5.232419,0.458,0.445,-1.058,25.756,-7.629,-13.732,1
5.239564,0.456,0.465,-0.95,27.648,-10.314,-11.596,1
5.248193,0.464,0.502,-0.863,33.081,-13.427,-9.155,1
5.255914,0.46,0.528,-0.781,34.179,-14.953,-7.019,1
5.264077,0.444,0.608,-0.688,28.625,-16.052,-5.187,1
5.272281,0.409,0.685,-0.625,28.015,-16.479,-4.394,1
5.279707,0.379,0.749,-0.565,26.794,-16.479,-4.516,1
5.287991,0.354,0.774,-0.523,22.094,-15.869,-5.126,1
5.296343,0.341,0.779,-0.49,15.502,-14.16,-5.798,1
5.305151,0.379,0.767,-0.482,10.009,-12.329,-6.591,1
5.311756,0.415,0.762,-0.463,10.559,-11.779,-6.286,1
5.320156,0.444,0.776,-0.435,18.371,-11.84,-6.347,1
5.328459,0.459,0.77,-0.412,25.512,-11.657,-6.286,1
5.336981,0.463,0.762,-0.385,22.583,-10.437,-6.347,1
5.345714,0.474,0.774,-0.36,11.169,-7.934,-6.225,1
5.353527,0.487,0.805,-0.334,5.432,-6.164,-6.652,1
5.362295,0.488,0.829,-0.323,8.056,-5.065,-7.202,1
5.37003,0.501,0.844,-0.324,14.221,-4.455,-7.629,1
5.379019,0.49,0.841,-0.344,15.93,-3.356,-8.422,1
5.386009,0.494,0.847,-0.351,12.573,-2.563,-8.972,1
5.394474,0.506,0.87,-0.339,13.122,-1.77,-9.643,1
5.402056,0.507,0.864,-0.341,14.343,-0.793,-10.131,1
5.41129,0.516,0.858,-0.331,14.831,0.061,-11.047,1
5.419173,0.52,0.845,-0.324,12.329,1.892,-11.718,1
5.426297,0.539,0.832,-0.331,6.652,3.295,-12.268,1
5.435472,0.54,0.836,-0.337,2.624,5.31,-12.878,1
5.441942,0.547,0.842,-0.353,2.136,6.591,-13.244,1
5.451175,0.539,0.853,-0.369,1.403,7.568,-13.732,1
5.45843,0.54,0.861,-0.388,-0.854,8.361,-14.526,1
5.467892,0.54,0.862,-0.404,-2.197,9.399,-15.258,1
5.474729,0.538,0.865,-0.429,-1.953,10.192,-16.418,1
5.48148,0.555,0.865,-0.447,0.122,10.437,-17.211,1
5.48997,0.562,0.859,-0.469,0.61,10.559,-18.066,1
5.499206,0.567,0.84,-0.485,-3.173,11.047,-19.165,1
5.506133,0.568,0.821,-0.506,-7.324,11.535,-20.08,1
5.514305,0.565,0.819,-0.517,-8.544,11.474,-21.057,1
5.521263,0.563,0.79,-0.534,-6.53,10.986,-21.911,1
5.529486,0.568,0.767,-0.548,-7.751,10.803,-22.521,1
5.537601,0.569,0.748,-0.549,-10.009,10.437,-23.132,1
5.546047,0.578,0.731,-0.56,-12.329,10.375,-23.681,1
5.554359,0.586,0.728,-0.567,-11.657,9.643,-23.742,1
5.562586,0.589,0.714,-0.58,-8.361,8.422,-24.108,1
5.572182,0.581,0.692,-0.593,-7.019,7.385,-24.047,1
5.579769,0.588,0.677,-0.605,-8.178,6.713,-23.925,1
5.586571,0.596,0.664,-0.607,-9.277,5.737,-23.986,1
5.595573,0.595,0.658,-0.604,-7.873,4.638,-24.047,1
5.604786,0.599,0.645,-0.606,-6.469,3.112,-24.108,1
5.610469,0.598,0.639,-0.609,-5.676,2.38,-23.864,1
5.618487,0.601,0.624,-0.619,-5.31,1.037,-23.925,1
5.628415,0.598,0.616,-0.611,-5.859,-0.549,-23.925,1
5.635834,0.604,0.61,-0.602,-5.615,-2.075,-23.803,1
5.644722,0.613,0.61,-0.589,-3.417,-3.601,-23.62,1
5.651848,0.609,0.594,-0.579,-2.38,-4.882,-23.315,1
5.661379,0.604,0.583,-0.564,-4.394,-5.554,-22.949,1
5.670306,0.596,0.573,-0.555,-5.737,-6.652,-22.644,1
5.67769,0.582,0.575,-0.534,-4.089,-7.446,-22.033,1
5.685601,0.573,0.563,-0.524,-1.831,-7.995,-21.606,1
5.694259,0.562,0.549,-0.517,-0.305,-8.544,-20.69,1
5.701653,0.556,0.54,-0.509,0.915,-8.605,-19.836,1
5.710707,0.549,0.532,-0.495,2.502,-8.85,-19.226,1
5.717757,0.541,0.518,-0.482,3.662,-8.972,-18.249,1
5.726105,0.546,0.502,-0.48,3.662,-8.483,-17.517,1
5.735082,0.543,0.496,-0.478,3.601,-7.873,-16.174,1
5.742199,0.549,0.495,-0.487,1.159,-7.08,-15.38,1
5.749727,0.546,0.505,-0.501,-3.723,-6.164,-14.465,1
5.758397,0.562,0.518,-0.525,-10.437,-4.943,-13.549,1
5.767343,0.578,0.527,-0.548,-15.258,-4.272,-13.122,1
5.774217,0.6,0.541,-0.568,-17.883,-4.455,-12.634,1
5.782571,0.61,0.553,-0.58,-16.906,-5.126,-12.023,1
5.791681,0.599,0.558,-0.601,-14.831,-5.737,-11.413,1
5.798812,0.6,0.566,-0.599,-15.991,-6.896,-10.62,1
5.807538,0.588,0.568,-0.593,-17.517,-7.507,-9.704,1
5.81598,0.591,0.571,-0.587,-19.226,-7.812,-8.789,1
5.824833,0.601,0.566,-0.593,-21.179,-8.422,-7.629,1
5.832428,0.605,0.57,-0.599,-21.301,-9.094,-6.774,1
5.841506,0.607,0.558,-0.612,-21.301,-10.253,-5.249,1
5.848717,0.593,0.555,-0.62,-22.155,-11.596,-4.272,1
5.857951,0.581,0.569,-0.625,-21.118,-13.427,-2.868,1
5.864794,0.574,0.586,-0.613,-16.967,-15.38,-2.197,1
5.87474,0.565,0.571,-0.614,-15.502,-17.089,-0.793,1
5.882471,0.562,0.558,-0.618,-21.85,-17.822,0.427,1
5.890039,0.565,0.573,-0.616,-33.02,-18.859,1.159,1
5.897861,0.567,0.592,-0.61,-34.423,-20.324,1.647,1
5.906933,0.572,0.59,-0.62,-31.127,-22.399,2.624,1
5.914415,0.586,0.591,-0.625,-31.433,-24.597,3.417,1
5.922099,0.59,0.625,-0.608,-30.09,-27.404,3.784,1
5.929709,0.588,0.641,-0.589,-24.719,-29.846,3.54,1
5.939192,0.592,0.644,-0.568,-20.629,-32.104,3.234,1
5.947106,0.601,0.652,-0.539,-18.31,-33.264,2.929,1
5.954349,0.615,0.67,-0.527,-17.517,-34.362,2.502,1
5.962784,0.611,0.682,-0.514,-15.624,-35.705,1.77,1
5.971994,0.626,0.688,-0.505,-13.244,-37.17,1.037,1
5.979048,0.644,0.687,-0.493,-12.084,-37.719,0.061,1
5.988135,0.666,0.687,-0.466,-12.695,-38.696,-0.915,1
5.997072,0.67,0.693,-0.431,-13.366,-38.818,-1.464,1
6.003569,0.687,0.693,-0.391,-12.512,-39.001,-2.563,1
6.012712,0.698,0.691,-0.347,-10.314,-38.696,-3.234,1
6.019298,0.724,0.682,-0.294,-7.995,-37.719,-3.784,1
6.028605,0.738,0.687,-0.27,-6.53,-36.437,-4.15,1
6.035766,0.744,0.69,-0.245,-7.019,-34.606,-4.577,1
6.044695,0.754,0.701,-0.225,-9.643,-32.043,-5.065,1
6.051908,0.755,0.711,-0.204,-10.925,-30.029,-5.615,1
6.061183,0.763,0.713,-0.201,-10.986,-27.648,-5.798,1
6.067958,0.764,0.709,-0.192,-11.23,-25.512,-6.53,1
6.077084,0.759,0.702,-0.193,-11.108,-23.193,-7.08,1
6.08426,0.764,0.697,-0.185,-10.742,-21.179,-7.568,1
6.093303,0.751,0.69,-0.164,-9.094,-18.92,-8.178,1
6.101534,0.743,0.678,-0.166,-7.995,-16.601,-8.666,1
6.109047,0.733,0.672,-0.174,-9.826,-14.221,-9.094,1
6.117991,0.724,0.69,-0.199,-12.634,-11.901,-9.704,1
6.125611,0.71,0.692,-0.224,-13.488,-10.192,-10.681,1
6.134976,0.7,0.681,-0.249,-12.268,-8.85,-11.657,1
6.142999,0.699,0.672,-0.265,-10.62,-7.995,-12.573,1
6.150141,0.694,0.645,-0.29,-10.07,-6.958,-13.244,1
6.158499,0.688,0.611,-0.313,-12.145,-5.981,-13.854,1
6.167852,0.692,0.583,-0.325,-15.38,-5.187,-14.038,1
6.175011,0.709,0.564,-0.335,-14.221,-4.821,-13.977,1
6.183433,0.708,0.548,-0.339,-7.751,-5.432,-13.732,1
6.191212,0.711,0.533,-0.337,-2.197,-5.554,-13.0,1
6.199777,0.704,0.513,-0.336,1.586,-5.676,-12.145,1
6.207857,0.703,0.498,-0.334,1.281,-5.493,-11.413,1
6.217166,0.706,0.491,-0.332,-2.685,-4.76,-10.62,1
6.224177,0.701,0.499,-0.333,-5.92,-4.272,-10.131,1
6.23317,0.697,0.498,-0.33,-5.92,-3.906,-9.521,1
6.240126,0.695,0.488,-0.337,-4.882,-3.54,-9.277,1
6.248934,0.698,0.469,-0.347,-4.211,-3.356,-8.789,1
6.256049,0.705,0.458,-0.352,-3.479,-3.234,-8.056,1
6.264506,0.712,0.456,-0.354,-1.831,-3.173,-7.019,1
6.273492,0.706,0.456,-0.354,0.732,-3.417,-6.469,1
6.280184,0.703,0.456,-0.35,1.708,-3.662,-5.798,1
6.288665,0.711,0.457,-0.344,1.037,-3.112,-5.187,1
6.297068,0.713,0.461,-0.333,0.244,-2.868,-4.394,1
6.30476,0.716,0.46,-0.327,0.488,-2.319,-3.845,1
6.312683,0.716,0.458,-0.323,0.549,-1.892,-3.112,1
6.320629,0.714,0.456,-0.328,0.61,-1.037,-2.38,1
6.327599,0.721,0.458,-0.333,0.732,-0.549,-1.77,1
6.334938,0.725,0.463,-0.344,1.22,0.0,-0.793,1
6.343608,0.729,0.47,-0.351,1.403,0.549,-0.549,1
6.352387,0.729,0.477,-0.356,1.22,0.61,0.061,1
6.359432,0.73,0.481,-0.356,2.746,1.037,0.427,1
6.36717,0.729,0.482,-0.364,4.76,0.427,1.037,1
6.376127,0.734,0.48,-0.36,5.737,0.732,1.159,1
6.3829,0.73,0.477,-0.357,6.164,1.22,1.586,1
6.390106,0.729,0.476,-0.348,5.554,1.647,2.075,1
6.399089,0.73,0.49,-0.35,5.432,2.197,2.929,1
6.405886,0.73,0.505,-0.357,4.943,2.807,3.051,1
6.414528,0.723,0.521,-0.37,4.089,3.112,3.662,1
6.422727,0.728,0.533,-0.371,3.417,3.662,3.784,1
6.429293,0.73,0.544,-0.376,3.601,3.784,4.15,1
6.437567,0.729,0.556,-0.377,3.845,4.211,4.394,1
6.444014,0.725,0.566,-0.381,2.685,4.577,4.455,1
6.451959,0.724,0.57,-0.38,1.403,5.004,4.272,1
6.460243,0.733,0.576,-0.38,0.61,4.76,4.15,1
6.466725,0.733,0.582,-0.383,1.892,5.187,4.272,1
6.475788,0.734,0.587,-0.385,4.394,4.882,4.394,1
6.483704,0.73,0.584,-0.399,5.371,5.004,4.333,1
6.490566,0.722,0.586,-0.409,3.051,5.249,4.272,1
6.499766,0.713,0.591,-0.413,1.098,5.432,4.333,1
6.507616,0.714,0.592,-0.419,1.342,5.676,4.211,1
6.514804,0.71,0.598,-0.425,2.502,5.31,4.089,1
6.522799,0.705,0.6,-0.427,3.662,5.249,3.967,1
6.530323,0.703,0.608,-0.429,3.906,5.554,3.845,1
6.538464,0.701,0.618,-0.431,3.173,5.493,3.479,1
6.546529,0.698,0.628,-0.436,2.38,5.676,3.356,1
6.553347,0.698,0.634,-0.436,0.915,5.737,2.624,1
6.561825,0.704,0.634,-0.44,0.427,5.493,2.014,1
6.570671,0.698,0.631,-0.435,1.708,5.493,1.403,1
6.577994,0.697,0.623,-0.436,2.807,5.187,0.915,1
6.584663,0.702,0.61,-0.432,3.234,5.004,0.549,1
6.592808,0.707,0.6,-0.427,3.356,5.371,0.305,1
6.601981,0.713,0.597,-0.432,4.089,5.371,0.0,1
6.608875,0.718,0.606,-0.432,6.347,5.798,-0.122,1
6.617125,0.722,0.604,-0.438,7.385,5.676,-0.183,1
6.625005,0.729,0.605,-0.444,6.652,5.859,-0.305,1
6.633381,0.736,0.603,-0.454,4.638,5.981,-0.61,1
6.640765,0.736,0.594,-0.456,-0.305,6.286,-0.854,1
6.648751,0.744,0.587,-0.455,-4.211,6.408,-0.915,1
6.657078,0.749,0.584,-0.451,-4.882,6.591,-0.854,1
6.664827,0.74,0.576,-0.443,-2.868,6.286,-0.854,1
6.671542,0.73,0.558,-0.442,-1.403,6.408,-0.854,1
6.679771,0.73,0.545,-0.441,-2.441,6.958,-0.427,1
6.687373,0.731,0.553,-0.455,-4.211,7.141,0.122,1
6.696599,0.724,0.573,-0.463,-3.54,7.08,0.366,1
6.703622,0.71,0.598,-0.481,-0.488,6.225,0.488,1
6.712686,0.699,0.602,-0.489,1.403,5.31,0.244,1
6.719998,0.685,0.597,-0.493,0.915,4.699,0.122,1
6.727164,0.677,0.602,-0.497,-1.464,4.394,-0.183,1
6.736262,0.666,0.599,-0.495,-4.211,4.15,-0.732,1
6.743746,0.659,0.586,-0.495,-6.408,3.54,-1.098,1
6.752545,0.658,0.57,-0.492,-6.347,3.051,-1.342,1
6.759704,0.676,0.579,-0.494,-2.319,2.319,-1.281,1
6.767317,0.672,0.594,-0.503,3.295,1.098,-1.037,1
6.776548,0.668,0.594,-0.506,5.92,0.488,-1.159,1
6.784431,0.666,0.594,-0.509,4.272,-0.244,-1.525,1
6.793359,0.669,0.602,-0.502,1.403,-0.488,-1.708,1
6.800704,0.674,0.603,-0.497,-0.976,-0.915,-2.014,1
6.808751,0.673,0.589,-0.489,-2.502,-1.281,-2.38,1
6.816252,0.679,0.575,-0.47,-4.028,-1.22,-2.563,1
6.823718,0.695,0.568,-0.452,-2.929,-1.342,-2.441,1
6.832725,0.703,0.575,-0.448,0.732,-1.342,-2.258,1
6.840443,0.708,0.572,-0.439,3.112,-1.586,-2.075,1
6.847696,0.708,0.57,-0.434,2.746,-1.098,-2.258,1
6.855832,0.708,0.567,-0.432,1.159,-0.61,-1.953,1
6.864274,0.723,0.563,-0.429,1.159,-0.244,-1.953,1
6.872818,0.682,0.56,-0.423,-2.136,-0.61,-2.075,1
6.88112,0.707,0.558,-0.425,-1.037,2.258,-1.708,1
6.88787,0.707,0.561,-0.423,0.244,0.305,-1.77,1
6.896595,0.691,0.568,-0.394,7.202,2.563,-1.708,1
6.904549,0.731,0.558,-0.401,8.239,2.136,-1.464,1
6.911687,0.734,0.55,-0.374,6.835,3.906,-1.403,1
6.920269,0.735,0.55,-0.383,0.549,5.249,-0.793,1
6.928063,0.731,0.556,-0.371,-5.065,7.08,-0.915,1
6.935336,0.733,0.547,-0.382,-7.324,7.324,-0.488,1
6.943992,0.723,0.528,-0.369,-6.958,8.544,-0.061,1
6.952007,0.715,0.511,-0.379,-7.263,9.033,0.915,1
6.958997,0.697,0.503,-0.379,-6.713,9.826,1.403,1
6.968397,0.678,0.504,-0.378,-2.685,10.314,2.136,1
6.97536,0.677,0.499,-0.378,2.99,10.375,3.112,1
6.982619,0.657,0.482,-0.369,8.3,10.864,4.272,1
6.991955,0.64,0.468,-0.359,9.582,11.596,5.126,1
6.998765,0.633,0.458,-0.347,7.263,13.061,6.408,1
7.006221,0.625,0.456,-0.336,3.173,14.465,7.629,1
7.015969,0.604,0.475,-0.333,0.061,16.174,8.544,1
7.023033,0.608,0.479,-0.339,0.366,17.333,9.277,1
7.030568,0.598,0.478,-0.338,2.197,18.615,9.948,1
7.038221,0.594,0.469,-0.365,2.136,19.592,10.742,1
7.047031,0.586,0.46,-0.389,-0.427,20.629,11.352,1
7.05575,0.582,0.461,-0.416,-2.075,21.301,12.329,1
7.063263,0.568,0.462,-0.436,-1.098,21.362,13.0,1
7.070226,0.551,0.469,-0.453,2.38,21.667,14.038,1
7.077492,0.541,0.471,-0.467,5.859,21.911,14.587,1
7.086013,0.525,0.469,-0.477,9.277,22.155,15.197,1
7.092515,0.516,0.464,-0.501,10.253,22.705,15.991,1
7.100784,0.499,0.46,-0.524,7.995,23.559,16.54,1
7.109716,0.487,0.444,-0.553,2.502,24.414,17.089,1
7.116319,0.504,0.432,-0.575,-6.713,25.024,18.432,1
7.125602,0.512,0.433,-0.606,-13.122,25.939,19.653,1
7.132062,0.501,0.438,-0.649,-17.395,26.245,21.057,1
7.139709,0.484,0.447,-0.695,-17.822,26.0,22.216,1
7.148961,0.458,0.451,-0.739,-15.319,25.085,23.437,1
7.156217,0.449,0.451,-0.797,-12.084,23.742,25.085,1
7.164012,0.436,0.452,-0.837,-10.62,22.338,26.977,1
7.172263,0.406,0.444,-0.877,-10.925,20.751,28.503,1
7.178999,0.381,0.423,-0.936,-13.61,19.653,30.151,1
7.187589,0.393,0.383,-1.011,-20.69,18.188,32.165,1
7.194519,0.417,0.353,-1.08,-28.259,16.174,34.606,1
7.203767,0.411,0.349,-1.156,-29.113,13.061,37.536,1
7.21108,0.407,0.331,-1.234,-25.207,8.544,40.893,1
7.218697,0.375,0.317,-1.298,-25.329,4.333,44.067,1
7.228015,0.314,0.326,-1.344,-31.677,0.122,47.79,1
7.235957,0.282,0.336,-1.403,-40.527,-3.356,50.964,1
7.244729,0.254,0.345,-1.473,-47.729,-6.835,54.077,1
7.251988,0.248,0.347,-1.551,-51.208,-12.145,57.739,1
7.260537,0.243,0.345,-1.658,-51.757,-17.578,60.241,1
7.267209,0.22,0.302,-1.843,-54.382,-24.23,62.561,1
7.276156,0.189,0.259,-1.998,-57.983,-33.63,65.612,1
7.283473,0.181,0.198,-2.176,-58.837,-43.395,69.213,1
7.291648,0.199,0.117,-2.323,-57.128,-57.128,73.669,1
7.299372,0.17,0.034,-2.472,-62.194,-69.152,78.186,1
7.308612,0.146,-0.026,-2.659,-77.392,-81.726,83.374,1
7.315749,0.03,-0.035,-2.842,-91.308,-99.365,90.637,1
7.324487,-0.098,-0.022,-3.001,-91.308,-115.722,97.229,1
7.332325,-0.278,-0.025,-3.19,-86.303,-137.39,104.675,1
7.341637,-0.356,-0.035,-3.342,-89.05,-156.127,111.755,1
7.349122,-0.401,0.061,-3.456,-88.5,-181.091,120.788,1
7.356759,-0.545,0.208,-3.467,-81.97,-203.796,127.99,1
7.366276,-0.728,0.37,-3.44,-78.43,-229.919,134.765,1
7.373034,-0.931,0.519,-3.373,-79.345,-250.244,139.404,1
7.382097,-1.187,0.662,-3.32,-84.777,-270.996,143.493,1
7.390866,-1.416,0.797,-3.215,-87.463,-296.081,147.705,1
7.397756,-1.653,0.96,-3.038,-88.623,-320.8,151.489,1
7.406289,-1.862,1.196,-2.758,-79.65,-341.613,154.357,1
7.415012,-2.096,1.454,-2.404,-60.546,-364.074,154.113,1
7.423884,-2.309,1.604,-2.077,-58.715,-379.638,151.733,1
7.431018,-2.483,1.778,-1.687,-66.284,-395.141,147.949,1
7.440284,-2.577,1.979,-1.287,-59.997,-406.127,143.615,1
7.447398,-2.736,2.258,-0.793,-38.33,-417.114,135.437,1
7.456606,-2.876,2.432,-0.4,-19.531,-421.63,124.755,1
7.464033,-2.93,2.519,-0.006,-12.207,-424.255,110.9,1
7.471721,-2.88,2.66,0.427,-2.014,-425.048,98.022,1
7.479902,-2.893,2.709,0.833,8.666,-420.471,81.909,1
7.489142,-2.725,2.689,1.222,-8.666,-413.391,66.955,1
7.497203,-2.474,2.661,1.868,-31.372,-398.681,53.771,1
7.504592,-2.189,2.669,2.267,-46.997,-375.061,40.588,1
7.513865,-1.905,2.689,2.683,-31.249,-358.154,28.442,1
7.521027,-1.525,2.574,2.968,-5.615,-333.984,13.732,1
7.530348,-1.128,2.361,3.27,-10.986,-303.161,-0.488,1
7.539145,-0.762,2.208,3.406,-27.16,-273.071,-10.253,1
7.546282,-0.422,2.069,3.453,-34.423,-240.783,-21.057,1
7.554893,-0.125,1.869,3.399,-31.738,-214.599,-27.954,1
7.562138,0.041,1.669,3.278,-38.269,-185.241,-33.63,1
7.570564,0.11,1.587,3.112,-39.794,-162.414,-36.376,1
7.578467,0.315,1.466,2.879,-33.081,-144.226,-39.733,1
7.586828,0.418,1.299,2.677,-32.897,-123.291,-42.663,1
7.595496,0.476,1.159,2.43,-47.485,-106.689,-44.433,1
7.602058,0.534,1.056,2.173,-59.509,-93.261,-45.959,1
7.610053,0.576,0.956,1.869,-58.166,-84.045,-46.691,1
7.617676,0.591,0.843,1.646,-47.912,-77.392,-47.241,1
7.626184,0.582,0.754,1.498,-39.001,-73.425,-46.63,1
7.635324,0.523,0.702,1.375,-34.118,-68.603,-45.593,1
7.642557,0.504,0.676,1.25,-33.752,-63.659,-44.128,1
7.650118,0.493,0.669,1.171,-28.503,-59.326,-42.724,1
7.659512,0.467,0.658,1.069,-22.399,-54.687,-40.588,1
7.666535,0.446,0.64,0.992,-21.179,-50.842,-39.367,1
7.675298,0.458,0.625,0.909,-22.766,-46.813,-37.658,1
7.683901,0.483,0.606,0.836,-24.169,-43.395,-36.376,1
7.691018,0.507,0.584,0.787,-20.812,-41.137,-34.729,1
7.699347,0.524,0.557,0.76,-17.089,-38.208,-32.714,1
7.706572,0.534,0.538,0.73,-19.104,-34.973,-30.883,1
7.715129,0.537,0.532,0.709,-22.766,-32.47,-29.235,1
7.722292,0.545,0.537,0.709,-22.705,-29.357,-27.77,1
7.731521,0.536,0.539,0.703,-19.714,-27.099,-26.367,1
7.738609,0.528,0.543,0.706,-15.258,-24.23,-25.207,1
7.747964,0.536,0.54,0.705,-10.375,-21.24,-23.62,1
7.755138,0.55,0.547,0.683,-11.779,-18.005,-21.972,1
7.764299,0.555,0.563,0.672,-16.052,-14.038,-20.507,1
7.771082,0.562,0.575,0.656,-18.249,-11.108,-19.287,1
7.780091,0.587,0.583,0.633,-17.089,-8.239,-18.432,1
7.787227,0.607,0.579,0.602,-14.404,-5.126,-17.15,1
7.795696,0.628,0.573,0.562,-14.038,-2.075,-15.991,1
7.803284,0.656,0.582,0.507,-15.93,0.061,-14.709,1
7.810629,0.676,0.606,0.481,-15.136,1.525,-13.793,1
7.819757,0.673,0.626,0.461,-14.343,3.051,-12.756,1
7.826579,0.67,0.637,0.446,-15.686,4.455,-12.084,1
7.83557,0.678,0.658,0.423,-17.333,6.408,-11.596,1
7.842657,0.668,0.672,0.394,-19.287,8.422,-10.986,1
7.852073,0.666,0.689,0.354,-19.226,9.521,-11.047,1
7.85907,0.68,0.701,0.315,-14.953,9.948,-10.986,1
7.867705,0.704,0.689,0.265,-9.704,9.704,-11.291,1
7.874585,0.712,0.672,0.227,-8.666,9.704,-11.413,1
7.88246,0.709,0.667,0.179,-8.117,10.07,-11.047,1
7.8911,0.731,0.67,0.112,-8.361,9.277,-10.559,1
7.897839,0.737,0.667,0.071,-9.094,7.812,-10.437,1
7.905301,0.735,0.664,0.045,-10.009,6.469,-9.948,1
7.914032,0.729,0.657,0.029,-10.131,4.76,-9.582,1
7.921343,0.726,0.655,0.031,-10.742,2.685,-8.911,1
7.929328,0.72,0.655,0.039,-11.657,1.281,-8.239,1
7.938527,0.706,0.655,0.048,-12.512,-0.244,-7.69,1
7.946065,0.703,0.654,0.065,-12.268,-1.403,-7.324,1
7.953188,0.68,0.659,0.074,-12.268,-2.319,-6.53,1
7.962349,0.675,0.67,0.084,-11.596,-3.601,-6.042,1
7.96909,0.663,0.673,0.113,-6.53,-4.821,-5.737,1
7.976877,0.655,0.667,0.139,-3.784,-5.31,-5.554,1
7.984968,0.653,0.662,0.156,-2.685,-5.493,-5.493,1
7.994026,0.652,0.665,0.155,-2.685,-5.187,-5.249,1
8.002381,0.661,0.659,0.156,-3.906,-5.126,-5.126,1
8.009967,0.681,0.645,0.149,-5.615,-5.004,-5.126,1
8.017805,0.698,0.634,0.15,-6.591,-5.615,-4.882,1
8.025382,0.708,0.639,0.157,-6.347,-6.164,-4.76,1
8.033788,0.712,0.636,0.165,-6.042,-6.469,-4.516,1
8.042215,0.712,0.641,0.174,-5.92,-6.591,-4.15,1
8.050719,0.716,0.644,0.172,-5.371,-7.141,-3.784,1
8.057466,0.723,0.647,0.168,-5.798,-7.385,-3.417,1
8.06615,0.725,0.645,0.158,-5.249,-7.812,-3.356,1
8.074371,0.731,0.638,0.141,-3.845,-8.544,-3.295,1
8.083626,0.739,0.63,0.141,-1.464,-9.399,-2.868,1
8.090753,0.736,0.623,0.14,0.488,-10.559,-2.502,1
8.099287,0.731,0.617,0.148,1.647,-11.23,-2.197,1
8.108371,0.727,0.601,0.174,2.502,-11.535,-1.403,1
8.11515,0.711,0.591,0.194,2.014,-11.657,-0.549,1
8.123123,0.7,0.594,0.204,1.281,-11.23,0.0,1
8.132221,0.701,0.59,0.212,0.061,-10.986,0.732,1
8.14045,0.704,0.593,0.207,-1.586,-10.314,1.708,1
8.147343,0.713,0.599,0.213,-1.831,-9.887,2.38,1
8.156052,0.716,0.613,0.228,-0.671,-9.704,2.685,1
8.164537,0.703,0.625,0.235,-0.671,-9.033,3.051,1
8.171132,0.706,0.634,0.25,-2.197,-8.544,3.356,1
8.179523,0.709,0.644,0.263,-2.807,-7.873,3.601,1
8.187246,0.707,0.651,0.268,-1.586,-7.629,3.601,1
8.196064,0.719,0.66,0.279,2.441,-7.202,3.723,1
8.202525,0.727,0.646,0.281,4.577,-6.591,3.601,1
8.210522,0.726,0.638,0.272,1.831,-5.371,3.784,1
8.21821,0.736,0.639,0.256,-0.427,-4.577,4.394,1
8.226405,0.733,0.651,0.241,-0.061,-4.15,4.638,1
8.233878,0.734,0.667,0.226,1.586,-4.15,4.943,1
8.24206,0.728,0.677,0.22,1.525,-3.845,5.065,1
8.249641,0.719,0.694,0.225,-0.061,-3.601,5.31,1
8.260039,0.711,0.706,0.231,-0.366,-3.479,5.554,1
8.268404,0.698,0.729,0.23,1.831,-3.234,5.31,1
8.274554,0.691,0.735,0.229,3.356,-3.356,5.31,1
8.281833,0.687,0.736,0.22,1.586,-2.441,4.882,1
8.290316,0.691,0.737,0.213,-0.976,-2.441,4.394,1
8.299903,0.695,0.747,0.208,-1.831,-1.953,4.15,1
8.306656,0.698,0.754,0.196,-0.61,-1.77,3.967,1
8.313991,0.703,0.751,0.185,0.976,-2.075,3.234,1
8.32107,0.712,0.752,0.183,0.671,-2.319,3.173,1
8.328548,0.72,0.764,0.189,0.183,-2.746,2.746,1
8.337523,0.72,0.769,0.21,0.305,-3.173,2.38,1
8.345326,0.719,0.769,0.233,0.427,-3.417,2.075,1
8.352563,0.717,0.771,0.249,0.488,-2.929,1.403,1
8.360265,0.717,0.769,0.252,0.671,-2.624,0.915,1
8.367667,0.719,0.766,0.259,0.61,-2.197,0.488,1
8.375397,0.722,0.753,0.256,0.732,-1.647,-0.061,1
8.384284,0.717,0.753,0.248,0.549,-1.098,-0.366,1
8.391622,0.719,0.75,0.236,-0.488,-0.366,-0.671,1
8.398671,0.713,0.747,0.226,-0.305,-0.549,-1.342,1
8.407875,0.711,0.736,0.223,-0.122,-0.488,-1.525,1
8.415139,0.708,0.727,0.223,-0.488,-0.427,-1.647,1
8.423692,0.709,0.722,0.237,-1.037,-0.183,-1.77,1
8.432545,0.695,0.721,0.242,-1.525,0.061,-1.953,1
8.439601,0.691,0.714,0.247,-1.708,0.488,-1.831,1
8.447258,0.686,0.708,0.253,-1.586,0.854,-1.953,1
8.456032,0.687,0.703,0.254,-0.976,1.342,-1.892,1
8.463579,0.693,0.69,0.243,-0.305,2.136,-1.892,1
8.47176,0.691,0.687,0.217,-0.183,2.624,-1.586,1
8.479176,0.7,0.688,0.2,0.488,2.502,-1.464,1
8.486678,0.705,0.686,0.187,0.915,2.38,-1.342,1
8.494301,0.709,0.674,0.174,0.671,1.892,-1.159,1
8.503521,0.71,0.676,0.166,-0.61,1.953,-1.037,1
8.510563,0.698,0.683,0.154,-2.624,1.525,-0.732,1
8.51813,0.698,0.684,0.153,-2.685,1.159,-0.915,1
8.527036,0.69,0.684,0.147,-1.159,0.305,-0.793,1
8.534586,0.685,0.688,0.145,0.793,-0.305,-0.427,1
8.543462,0.694,0.685,0.145,1.77,-0.915,-0.427,1
8.550541,0.695,0.672,0.139,1.525,-1.098,-0.061,1
8.558615,0.691,0.674,0.133,0.0,-1.342,-0.061,1
8.567686,0.696,0.685,0.134,0.671,-1.831,0.305,1
8.574605,0.695,0.694,0.143,2.929,-2.624,0.366,1
8.582123,0.692,0.686,0.152,3.051,-2.807,0.427,1
8.589826,0.693,0.685,0.167,1.708,-3.295,0.244,1
8.598844,0.694,0.69,0.17,0.305,-3.295,0.305,1
8.605949,0.697,0.685,0.194,-0.122,-3.54,0.366,1
8.613446,0.7,0.688,0.204,0.732,-3.479,0.427,1
8.621121,0.701,0.681,0.211,2.197,-3.479,0.793,1
8.628604,0.699,0.681,0.21,1.708,-3.112,0.793,1
8.63774,0.697,0.682,0.204,0.488,-2.99,0.793,1
8.644372,0.696,0.687,0.195,-0.793,-2.746,1.159,1
8.653476,0.702,0.69,0.191,-1.953,-2.624,1.098,1
8.662355,0.712,0.696,0.19,-2.075,-2.929,1.159,1
8.669264,0.71,0.704,0.19,-0.793,-2.868,0.915,1
8.676008,0.713,0.706,0.201,-1.22,-3.234,0.854,1
8.685193,0.704,0.708,0.218,-1.098,-3.234,0.976,1
8.691917,0.705,0.714,0.229,-0.854,-2.807,1.037,1
8.700743,0.7,0.721,0.238,-0.305,-2.929,1.037,1
8.707876,0.696,0.721,0.24,0.305,-2.502,0.915,1
8.716263,0.7,0.72,0.238,0.671,-2.441,0.732,1
8.723328,0.705,0.719,0.233,0.61,-2.197,0.488,1
8.731537,0.709,0.711,0.225,0.0,-1.77,0.366,1
8.740174,0.708,0.711,0.226,-0.671,-1.77,0.305,1
8.747206,0.71,0.71,0.216,-0.549,-1.708,0.305,1
8.755568,0.712,0.713,0.226,0.0,-1.77,0.549,1
8.762625,0.706,0.708,0.232,0.549,-1.892,0.244,1
8.771166,0.703,0.706,0.238,0.305,-1.77,0.305,1
8.777544,0.7,0.711,0.252,0.671,-1.403,0.183,1
8.785858,0.698,0.711,0.253,0.915,-1.22,0.244,1
8.793618,0.699,0.7,0.25,0.427,-0.854,0.305,1
8.801551,0.7,0.697,0.241,-1.281,-0.183,0.061,1
8.80957,0.7,0.695,0.232,-2.075,0.061,0.305,1
8.816211,0.7,0.69,0.226,-2.563,0.183,0.122,1
8.824814,0.698,0.687,0.213,-3.417,0.488,0.305,1
8.831269,0.7,0.688,0.217,-3.784,0.488,0.427,1
8.839426,0.698,0.689,0.216,-4.089,0.488,0.366,1
8.847558,0.694,0.684,0.218,-4.028,0.549,0.305,1
8.853999,0.688,0.68,0.22,-3.417,0.793,0.549,1
8.862285,0.688,0.675,0.218,-3.173,0.915,0.793,1
8.86909,0.693,0.67,0.213,-3.417,1.037,1.22,1
8.877253,0.694,0.672,0.202,-4.211,1.342,1.342,1
8.884328,0.694,0.677,0.191,-4.699,1.403,1.525,1
8.892508,0.693,0.68,0.181,-4.882,1.22,1.77,1
8.900644,0.693,0.687,0.179,-4.455,1.159,1.892,1
8.906987,0.695,0.69,0.18,-3.906,0.976,2.014,1
8.91521,0.693,0.698,0.175,-3.662,0.793,2.197,1
8.921615,0.698,0.703,0.177,-3.784,0.732,2.319,1
8.929818,0.7,0.708,0.175,-3.723,0.427,2.197,1
8.93668,0.695,0.718,0.18,-2.929,0.061,2.258,1
8.944629,0.698,0.722,0.182,-2.197,-0.122,2.075,1
8.952327,0.696,0.724,0.187,-2.014,-0.305,2.136,1
8.961384,0.695,0.726,0.187,-1.525,-0.183,1.892,1
8.969811,0.693,0.729,0.181,-1.403,-0.488,1.953,1
8.977293,0.695,0.723,0.174,-1.403,-0.366,1.647,1
8.98412,0.696,0.725,0.164,-1.586,-0.427,1.342,1
8.992183,0.697,0.718,0.161,-2.014,-0.732,1.281,1
9.000625,0.701,0.713,0.16,-1.953,-1.22,1.22,1
9.007791,0.708,0.708,0.165,-2.258,-1.464,1.159,1
9.016642,0.704,0.706,0.177,-1.525,-1.831,0.976,1
9.023456,0.701,0.703,0.187,-0.183,-1.892,1.342,1
9.031048,0.698,0.702,0.195,0.549,-1.892,1.403,1
9.040183,0.702,0.704,0.195,0.61,-1.77,1.647,1
9.047673,0.698,0.708,0.194,0.427,-1.525,1.77,1
9.05449,0.698,0.71,0.197,0.61,-1.403,1.464,1
9.063322,0.702,0.712,0.189,0.915,-1.342,1.647,1
9.070634,0.695,0.711,0.191,0.122,-1.342,1.708,1
9.079448,0.695,0.711,0.189,-0.671,-1.342,1.647,1
9.087262,0.693,0.717,0.205,-0.61,-1.342,1.464,1
9.094501,0.696,0.717,0.212,-0.305,-1.464,1.403,1
9.102398,0.691,0.722,0.229,0.488,-1.403,1.403,1
9.109438,0.696,0.717,0.239,0.793,-1.037,1.22,1
9.116928,0.696,0.716,0.246,0.061,-0.61,1.159,1
9.125172,0.7,0.722,0.249,-0.671,0.0,1.281,1
9.132266,0.704,0.724,0.247,-0.244,0.244,0.976,1
9.138857,0.709,0.727,0.237,0.305,0.427,0.976,1
9.147018,0.706,0.729,0.241,0.854,0.671,0.854,1
9.154436,0.701,0.734,0.241,0.366,1.037,0.671,1
9.161778,0.702,0.741,0.24,0.0,1.403,0.427,1
9.16932,0.7,0.74,0.234,0.183,1.708,0.244,1
9.177298,0.706,0.737,0.231,0.61,1.953,0.0,1
9.184282,0.7,0.739,0.218,0.183,2.075,0.0,1
9.19342,0.697,0.734,0.213,-0.915,2.197,-0.366,1
9.200631,0.691,0.736,0.199,-1.159,2.197,-0.549,1
9.208035,0.691,0.732,0.193,-0.671,2.136,-0.61,1
9.217438,0.686,0.728,0.185,-0.488,2.014,-0.976,1
9.224474,0.686,0.726,0.182,-0.549,1.708,-0.915,1
9.232864,0.686,0.718,0.184,-0.488,1.342,-0.854,1
9.239722,0.684,0.709,0.191,-0.549,1.098,-0.976,1
9.248366,0.687,0.691,0.198,-0.427,0.854,-0.854,1
9.255732,0.685,0.678,0.202,-0.122,0.793,-0.61,1
9.263355,0.684,0.667,0.213,0.488,0.61,-0.488,1
9.271026,0.688,0.663,0.216,1.403,1.22,0.183,1
9.278647,0.689,0.666,0.206,1.953,1.037,0.61,1
9.287766,0.684,0.669,0.193,1.342,1.281,1.037,1
9.295177,0.683,0.674,0.184,1.037,1.464,1.281,1
9.302002,0.679,0.673,0.177,0.061,1.098,1.647,1
9.310327,0.679,0.68,0.166,-0.854,1.22,1.953,1
9.317377,0.698,0.68,0.163,-1.77,0.976,2.197,1
9.32666,0.69,0.689,0.155,-3.051,0.854,2.319,1
9.333656,0.694,0.693,0.149,-4.15,0.61,2.441,1
9.340995,0.697,0.696,0.15,-4.943,0.488,2.807,1
9.348724,0.696,0.707,0.147,-5.981,-0.061,2.624,1
9.358039,0.695,0.715,0.149,-5.493,-0.244,2.807,1
9.36511,0.685,0.727,0.154,-4.089,-0.549,2.685,1
9.373211,0.68,0.729,0.159,-3.234,-0.854,2.563,1
9.382493,0.679,0.727,0.162,-2.014,-0.854,2.38,1
9.390117,0.677,0.73,0.16,-0.61,-1.098,2.197,1
9.39739,0.689,0.729,0.159,0.671,-1.403,1.831,1
9.404689,0.69,0.724,0.156,0.854,-1.464,1.525,1
9.413077,0.694,0.721,0.152,0.183,-1.281,1.708,1
9.4207,0.694,0.725,0.146,0.183,-1.525,1.403,1
9.430122,0.696,0.725,0.142,0.488,-2.014,1.403,1
9.436501,0.7,0.723,0.145,2.197,-2.502,1.464,1
9.445687,0.703,0.723,0.147,2.99,-2.868,1.342,1
9.452981,0.704,0.728,0.151,1.586,-3.479,1.464,1
9.460066,0.703,0.729,0.155,0.488,-3.295,1.22,1
9.469139,0.702,0.736,0.165,0.305,-3.479,1.281,1
9.475464,0.692,0.742,0.177,0.915,-3.54,0.976,1
9.482894,0.692,0.742,0.184,1.22,-3.723,0.793,1
9.489838,0.693,0.744,0.203,0.854,-3.784,0.732,1
9.497841,0.687,0.747,0.21,0.0,-3.417,0.549,1
9.505476,0.692,0.753,0.223,-0.793,-3.234,0.244,1
9.514511,0.685,0.753,0.226,-0.366,-2.99,-0.183,1
9.521713,0.689,0.748,0.232,0.244,-3.112,-0.427,1
9.530052,0.69,0.741,0.235,-0.244,-2.319,-0.549,1
9.538286,0.696,0.743,0.236,-0.976,-1.953,-0.732,1
9.547584,0.699,0.747,0.241,-0.732,-1.647,-0.732,1
9.55402,0.694,0.741,0.236,-0.305,-1.403,-1.159,1
9.563042,0.696,0.739,0.241,0.854,-1.342,-1.159,1
9.570167,0.693,0.732,0.239,1.342,-1.159,-1.342,1
9.579398,0.69,0.727,0.242,1.159,-0.793,-1.403,1
9.586018,0.69,0.728,0.249,1.22,-0.915,-1.464,1
9.594756,0.686,0.722,0.251,1.281,-0.549,-1.525,1
9.601609,0.692,0.721,0.257,0.549,0.0,-1.464,1
9.610605,0.689,0.723,0.263,0.061,0.122,-1.525,1
9.617429,0.693,0.719,0.262,-0.244,0.61,-1.281,1
9.624676,0.69,0.719,0.259,-0.976,1.403,-1.464,1
9.632399,0.687,0.717,0.262,-1.037,1.708,-1.464,1
9.641714,0.68,0.713,0.249,-1.098,2.197,-1.525,1
9.64881,0.68,0.714,0.242,-0.427,2.502,-1.342,1
9.656305,0.674,0.713,0.232,-0.183,2.685,-1.525,1
9.665176,0.674,0.704,0.219,-0.61,2.807,-1.342,1
9.671802,0.676,0.709,0.217,-0.732,2.868,-0.915,1
9.679704,0.674,0.702,0.209,-1.22,2.99,-0.915,1
9.688444,0.679,0.701,0.199,-0.976,2.99,-0.915,1
9.696463,0.685,0.703,0.197,0.0,2.99,-0.61,1
9.703407,0.687,0.703,0.19,1.464,2.746,-0.488,1
9.71233,0.685,0.704,0.18,2.319,2.563,-0.061,1
9.719282,0.688,0.701,0.17,1.892,2.197,0.061,1
9.726666,0.689,0.699,0.166,1.22,2.38,-0.183,1
9.734206,0.686,0.701,0.166,-0.061,2.258,0.183,1
9.742383,0.689,0.702,0.159,-0.854,1.953,0.305,1
9.7504,0.684,0.705,0.158,-1.281,1.892,0.244,1
9.75848,0.685,0.699,0.15,-1.22,1.525,0.0,1
9.765595,0.686,0.699,0.149,-1.037,1.342,0.183,1
9.774454,0.681,0.692,0.146,-1.098,1.037,0.244,1
9.781719,0.681,0.691,0.145,-0.732,0.793,0.244,1
9.790957,0.687,0.686,0.146,-1.342,0.671,0.366,1
9.798373,0.695,0.682,0.148,-2.563,0.427,0.793,1
9.805331,0.695,0.681,0.148,-3.601,0.366,0.915,1
9.814505,0.692,0.689,0.146,-3.601,-0.122,1.281,1
9.82136,0.7,0.693,0.148,-2.197,-0.915,1.647,1
9.830117,0.694,0.707,0.154,-0.427,-0.976,1.525,1
9.837017,0.693,0.719,0.158,1.403,-1.647,1.464,1
9.845346,0.692,0.727,0.168,4.272,-2.136,1.464,1
9.852852,0.689,0.726,0.172,5.432,-2.441,0.976,1
9.860351,0.694,0.728,0.18,3.479,-2.258,0.915,1
9.869305,0.697,0.735,0.172,1.22,-2.38,1.098,1
9.876059,0.699,0.736,0.179,0.61,-2.38,0.732,1
9.883625,0.703,0.739,0.18,0.854,-2.38,0.732,1
9.892178,0.696,0.745,0.174,1.159,-2.624,0.732,1
9.899431,0.696,0.754,0.178,1.953,-2.99,0.305,1
9.907558,0.695,0.767,0.178,3.906,-3.479,0.366,1
9.914947,0.692,0.77,0.182,6.164,-3.967,0.122,1
9.923931,0.689,0.774,0.187,7.08,-3.967,-0.427,1
9.932481,0.688,0.771,0.196,5.31,-3.662,-1.22,1
9.939737,0.694,0.765,0.203,1.892,-3.051,-1.525,1
9.946967,0.693,0.769,0.205,0.183,-2.502,-2.136,1
9.955115,0.694,0.768,0.206,0.244,-2.441,-2.38,1
9.964121,0.7,0.761,0.198,0.854,-2.136,-2.929,1
9.970845,0.698,0.749,0.189,0.122,-2.197,-3.234,1
9.979808,0.705,0.744,0.182,-0.549,-1.953,-3.417,1
9.988718,0.703,0.739,0.184,-0.671,-2.319,-3.54,1
9.995354,0.704,0.738,0.189,0.0,-2.075,-3.723,1
