timestamp_s,ax,ay,az,gx,gy,gz,label
0.005201,0.55,0.73,0.47,2.502,-1.037,-0.549,1
0.014612,0.543,0.733,0.468,3.662,-1.159,-0.488,1
0.02159,0.547,0.737,0.471,3.967,-0.976,-0.732,1
0.028545,0.549,0.738,0.474,3.173,-1.037,-1.037,1
0.037062,0.548,0.737,0.479,3.112,-0.671,-1.098,1
0.044661,0.549,0.735,0.48,2.563,-0.732,-0.915,1
0.051216,0.553,0.741,0.479,1.953,-0.549,-1.342,1
0.058441,0.552,0.737,0.481,2.319,-0.488,-1.403,1
0.06672,0.55,0.732,0.483,1.525,-0.61,-1.464,1
0.073651,0.548,0.736,0.48,1.098,-0.183,-1.586,1
0.08224,0.547,0.738,0.483,1.037,-0.183,-1.647,1
0.090402,0.541,0.737,0.482,1.037,-0.305,-1.953,1
0.09885,0.543,0.737,0.487,1.892,0.061,-1.953,1
0.105249,0.541,0.732,0.484,1.953,0.244,-2.136,1
0.113293,0.54,0.73,0.48,1.22,0.305,-2.136,1
0.121479,0.544,0.729,0.477,0.793,0.366,-2.075,1
0.128545,0.548,0.724,0.472,0.915,0.61,-2.38,1
0.135914,0.551,0.722,0.469,1.159,0.549,-2.258,1
0.143882,0.552,0.719,0.467,1.525,0.488,-2.38,1
0.151423,0.552,0.714,0.462,1.525,0.61,-2.38,1
0.159436,0.55,0.717,0.458,1.22,0.488,-2.38,1
0.16749,0.548,0.703,0.455,1.586,0.305,-2.319,1
0.176625,0.554,0.705,0.455,1.586,0.305,-2.319,1
0.182814,0.561,0.702,0.452,1.403,0.0,-2.38,1
0.191141,0.559,0.697,0.453,1.525,0.244,-2.258,1
0.198103,0.557,0.699,0.457,1.281,-0.122,-2.258,1
0.20702,0.56,0.697,0.458,0.732,-0.183,-2.014,1
0.213858,0.559,0.697,0.464,0.915,-0.305,-2.075,1
0.222511,0.557,0.693,0.463,0.976,-0.244,-1.892,1
0.229237,0.554,0.693,0.459,0.61,-0.305,-1.77,1
0.237434,0.555,0.699,0.459,0.976,-0.305,-1.647,1
0.246118,0.551,0.701,0.467,1.77,-0.488,-1.77,1
0.252956,0.555,0.698,0.464,2.502,-0.488,-1.708,1
0.260462,0.555,0.698,0.471,2.319,-0.488,-1.77,1
0.268834,0.556,0.699,0.465,1.586,-0.366,-1.403,1
0.276523,0.555,0.703,0.465,1.037,0.0,-1.22,1
0.285198,0.555,0.702,0.468,0.854,-0.183,-1.342,1
0.292309,0.554,0.698,0.471,1.098,-0.366,-1.342,1
0.301209,0.555,0.694,0.464,0.61,-0.183,-1.342,1
0.308278,0.555,0.69,0.463,0.366,-0.366,-1.098,1
0.316528,0.552,0.691,0.462,0.0,-0.427,-1.037,1
0.325023,0.552,0.688,0.464,-0.122,-0.427,-0.976,1
0.333038,0.555,0.689,0.463,-0.183,-0.549,-1.037,1
0.340527,0.551,0.685,0.46,-0.305,-0.183,-0.793,1
0.348838,0.557,0.686,0.461,-0.244,-0.366,-0.488,1
0.357805,0.553,0.69,0.459,-0.427,-0.61,-0.366,1
0.364901,0.552,0.694,0.459,-0.61,-0.427,-0.427,1
0.374266,0.55,0.697,0.458,0.061,-0.488,-0.122,1
0.381048,0.55,0.693,0.463,0.549,-0.549,-0.244,1
0.388512,0.557,0.687,0.459,0.366,-0.61,0.061,1
0.396336,0.555,0.693,0.454,-0.549,-0.732,0.183,1
0.404564,0.555,0.695,0.452,-0.793,-0.732,0.244,1
0.412742,0.557,0.697,0.447,-1.037,-0.671,0.183,1
0.420264,0.554,0.701,0.449,-0.793,-0.915,0.305,1
0.429205,0.554,0.701,0.448,-0.793,-1.22,0.366,1
0.437258,0.557,0.708,0.449,-0.244,-1.159,0.244,1
0.444081,0.556,0.706,0.453,-0.305,-1.525,0.305,1
0.453407,0.554,0.706,0.456,-0.488,-1.464,0.427,1
0.460647,0.551,0.709,0.457,-0.732,-1.586,0.61,1
0.469816,0.554,0.707,0.462,-1.22,-1.586,0.305,1
0.476944,0.553,0.711,0.462,-1.464,-1.464,0.549,1
0.484541,0.552,0.711,0.466,-1.342,-1.525,0.549,1
0.493887,0.552,0.71,0.461,-1.342,-1.342,0.549,1
0.50116,0.55,0.711,0.458,-1.22,-1.586,0.488,1
0.510081,0.554,0.714,0.458,-0.915,-1.708,0.488,1
0.516516,0.554,0.717,0.455,-1.159,-1.586,0.244,1
0.524113,0.55,0.718,0.456,-0.61,-1.892,0.427,1
0.531827,0.548,0.72,0.458,0.305,-1.892,0.427,1
0.539394,0.55,0.719,0.455,0.793,-2.319,0.61,1
0.547121,0.546,0.714,0.463,0.854,-2.197,0.183,1
0.555855,0.547,0.716,0.466,0.61,-2.136,0.0,1
0.563445,0.55,0.713,0.467,-0.061,-2.197,0.122,1
0.570716,0.555,0.71,0.463,-0.488,-2.258,0.061,1
0.580244,0.551,0.711,0.469,-0.732,-2.136,0.427,1
0.58714,0.549,0.71,0.47,-0.854,-1.892,0.244,1
0.595899,0.548,0.717,0.472,-0.427,-2.075,0.549,1
0.602864,0.546,0.715,0.474,0.061,-2.014,0.427,1
0.609882,0.55,0.718,0.477,0.427,-2.014,0.366,1
0.617944,0.551,0.715,0.482,0.549,-2.136,0.366,1
0.624803,0.552,0.712,0.482,0.366,-1.892,0.305,1
0.633125,0.55,0.713,0.481,0.122,-1.953,0.0,1
0.639489,0.554,0.71,0.48,0.0,-1.647,0.061,1
0.6469,0.556,0.713,0.479,0.122,-1.586,0.122,1
0.654881,0.55,0.713,0.479,0.549,-1.525,0.0,1
0.662146,0.553,0.71,0.473,0.366,-1.831,0.183,1
0.670532,0.555,0.713,0.475,0.488,-1.708,0.0,1
0.679292,0.556,0.711,0.479,0.183,-1.586,0.0,1
0.685979,0.546,0.708,0.481,0.305,-1.647,0.061,1
0.695063,0.55,0.708,0.484,0.488,-1.525,0.244,1
0.702686,0.547,0.701,0.484,0.793,-1.403,0.183,1
0.710749,0.543,0.702,0.492,1.037,-1.22,0.427,1
0.717706,0.543,0.704,0.492,0.732,-1.159,0.122,1
0.725788,0.543,0.707,0.493,0.671,-1.037,0.427,1
0.732831,0.544,0.704,0.493,-0.122,-0.793,0.549,1
0.741859,0.542,0.706,0.495,-0.488,-0.305,0.366,1
0.749547,0.541,0.706,0.487,-0.549,-0.244,0.549,1
0.75643,0.54,0.698,0.49,-0.427,-0.122,0.61,1
0.763993,0.544,0.698,0.483,-0.366,-0.244,0.732,1
0.773067,0.542,0.702,0.481,-0.061,-0.244,0.793,1
0.78001,0.542,0.704,0.481,0.366,0.0,0.61,1
0.787734,0.548,0.706,0.48,0.671,-0.183,0.915,1
0.79712,0.548,0.707,0.484,0.732,-0.061,1.037,1
0.803572,0.552,0.709,0.479,-0.122,0.0,1.037,1
0.812084,0.554,0.712,0.48,-0.671,0.061,1.098,1
0.821499,0.552,0.719,0.48,-0.793,0.244,1.098,1
0.828098,0.554,0.719,0.473,-0.793,0.122,1.159,1
0.835959,0.552,0.724,0.476,-0.732,0.122,0.732,1
0.844232,0.553,0.725,0.467,-0.854,0.122,0.732,1
0.851144,0.55,0.721,0.466,-0.549,0.122,0.732,1
0.858628,0.554,0.723,0.459,-0.549,-0.122,0.427,1
0.867458,0.553,0.723,0.459,-0.244,-0.244,0.305,1
0.874837,0.556,0.725,0.459,-0.427,-0.427,0.244,1
0.882322,0.556,0.724,0.465,-0.366,-0.427,0.244,1
0.891911,0.552,0.729,0.469,-0.366,-0.427,0.061,1
0.898429,0.553,0.727,0.471,-0.427,-0.366,0.305,1
0.907849,0.555,0.727,0.473,0.244,-0.61,0.061,1
0.9159,0.551,0.729,0.477,0.061,-0.427,0.0,1
0.923021,0.546,0.724,0.47,0.183,-0.549,0.061,1
0.931312,0.548,0.725,0.47,0.488,-0.427,-0.122,1
0.938306,0.547,0.719,0.464,0.732,-0.488,-0.305,1
0.946481,0.547,0.72,0.463,0.854,-0.488,-0.305,1
0.954776,0.546,0.72,0.459,0.427,-0.671,-0.244,1
0.962472,0.542,0.721,0.461,0.0,-0.732,-0.366,1
0.971385,0.543,0.72,0.467,0.61,-0.854,-0.183,1
0.978377,0.548,0.717,0.468,0.488,-0.915,-0.305,1
0.987265,0.545,0.719,0.467,0.061,-0.915,-0.488,1
0.994154,0.545,0.719,0.471,-0.305,-0.793,-0.488,1
1.003651,0.543,0.725,0.475,-0.183,-0.549,-0.488,1
1.01061,0.545,0.728,0.476,0.305,-0.732,-0.366,1
1.017494,0.548,0.724,0.474,0.244,-0.793,-0.549,1
1.025183,0.546,0.724,0.474,0.122,-0.61,-0.732,1
1.032883,0.548,0.718,0.47,0.183,-0.488,-0.732,1
1.04078,0.547,0.72,0.467,0.244,-0.427,-0.671,1
1.048954,0.546,0.717,0.462,0.244,-0.549,-0.915,1
1.055857,0.55,0.715,0.464,0.122,-0.793,-0.732,1
1.063902,0.55,0.716,0.47,0.122,-0.793,-0.915,1
1.07168,0.551,0.718,0.468,0.0,-0.732,-0.854,1
1.079714,0.553,0.719,0.467,0.061,-0.61,-0.915,1
1.088101,0.553,0.72,0.467,-0.122,-0.671,-1.098,1
1.094853,0.548,0.722,0.466,-0.366,-0.915,-0.976,1
1.103357,0.551,0.728,0.464,-0.305,-0.671,-1.22,1
1.11164,0.552,0.726,0.465,0.549,-0.976,-1.098,1
1.118641,0.551,0.718,0.467,0.915,-0.976,-1.403,1
1.127486,0.549,0.715,0.463,0.427,-1.037,-1.22,1
1.134991,0.549,0.716,0.463,-0.122,-1.159,-1.403,1
1.143223,0.549,0.717,0.458,-0.244,-1.281,-1.281,1
1.151805,0.547,0.72,0.463,-0.305,-1.281,-1.464,1
1.161158,0.549,0.717,0.457,-0.305,-1.403,-1.647,1
1.168035,0.55,0.721,0.468,-0.427,-1.464,-1.586,1
1.176234,0.548,0.719,0.464,0.549,-1.647,-1.464,1
1.185261,0.543,0.718,0.472,1.77,-1.77,-2.014,1
1.192476,0.546,0.711,0.476,2.38,-1.953,-1.708,1
1.199459,0.545,0.704,0.477,2.807,-1.892,-1.708,1
1.207131,0.545,0.697,0.479,2.136,-1.586,-1.708,1
1.214598,0.543,0.693,0.479,0.976,-1.525,-1.525,1
1.223304,0.546,0.696,0.477,0.671,-1.586,-1.342,1
1.230468,0.543,0.7,0.478,0.305,-1.342,-1.159,1
1.238404,0.547,0.699,0.471,-0.915,-1.159,-1.098,1
1.247567,0.545,0.701,0.478,-1.586,-1.159,-0.915,1
1.254324,0.543,0.708,0.483,-0.854,-1.098,-1.037,1
1.263562,0.549,0.708,0.482,0.305,-1.037,-0.976,1
1.270333,0.55,0.704,0.479,0.549,-1.159,-0.915,1
1.277836,0.548,0.701,0.485,0.488,-1.159,-0.793,1
1.286621,0.549,0.699,0.481,0.244,-0.976,-0.976,1
1.294518,0.55,0.703,0.477,-0.122,-1.037,-0.854,1
1.301649,0.552,0.712,0.472,-0.61,-0.915,-0.549,1
1.309357,0.549,0.711,0.465,-0.976,-0.61,-0.671,1
1.317533,0.548,0.72,0.465,-1.281,-0.915,-0.854,1
1.326648,0.554,0.723,0.465,-0.915,-1.464,-0.854,1
1.33353,0.547,0.722,0.468,-1.159,-1.159,-0.793,1
1.34093,0.549,0.725,0.469,-1.22,-1.281,-1.037,1
1.349565,0.547,0.729,0.469,-1.403,-1.403,-1.281,1
1.358941,0.544,0.735,0.474,-1.464,-1.342,-1.403,1
1.366121,0.547,0.736,0.473,-0.366,-1.586,-1.403,1
1.373642,0.544,0.734,0.48,0.244,-1.647,-2.014,1
1.381716,0.54,0.729,0.485,1.342,-1.77,-2.136,1
1.389262,0.546,0.72,0.489,2.746,-1.647,-2.136,1
1.396852,0.55,0.712,0.491,2.746,-1.586,-2.258,1
1.406017,0.548,0.71,0.493,1.892,-1.403,-2.197,1
1.413911,0.549,0.704,0.495,1.281,-1.159,-2.197,1
1.422097,0.551,0.705,0.494,1.159,-1.22,-1.953,1
1.429221,0.549,0.703,0.496,1.342,-0.793,-2.014,1
1.436767,0.55,0.701,0.493,1.159,-0.915,-1.77,1
1.445757,0.551,0.699,0.501,2.014,-0.976,-1.77,1
1.45336,0.553,0.694,0.505,3.417,-0.732,-1.77,1
1.460943,0.553,0.693,0.506,4.272,-0.61,-1.586,1
1.468554,0.549,0.695,0.508,5.31,-0.61,-1.586,1
1.477688,0.554,0.692,0.509,5.065,-0.183,-1.403,1
1.48569,0.551,0.693,0.5,3.723,-0.061,-0.976,1
1.492721,0.55,0.697,0.499,1.708,0.549,-1.037,1
1.501076,0.555,0.7,0.499,0.427,0.671,-1.22,1
1.508245,0.554,0.701,0.49,-0.183,0.793,-1.342,1
1.516508,0.552,0.705,0.485,-0.488,0.976,-1.037,1
1.525133,0.55,0.709,0.48,-0.244,0.854,-1.159,1
1.533125,0.552,0.705,0.483,0.61,0.671,-1.464,1
1.540358,0.553,0.702,0.483,1.403,0.671,-1.464,1
1.547768,0.55,0.695,0.478,1.708,0.793,-1.403,1
1.55662,0.549,0.693,0.48,2.319,0.488,-1.159,1
1.564505,0.551,0.69,0.483,1.953,0.854,-1.037,1
1.571316,0.55,0.685,0.477,1.586,0.915,-0.976,1
1.579384,0.542,0.686,0.482,1.098,0.915,-0.732,1
1.58688,0.548,0.688,0.477,0.61,1.037,-0.854,1
1.596191,0.544,0.69,0.469,0.0,0.976,-0.549,1
1.602802,0.543,0.691,0.467,-0.427,0.854,-0.488,1
1.611614,0.546,0.692,0.459,-0.427,0.915,-0.244,1
1.619499,0.547,0.693,0.46,-0.183,0.61,-0.671,1
1.627555,0.547,0.689,0.459,0.183,0.366,-0.244,1
1.63428,0.547,0.692,0.462,0.244,0.427,-0.183,1
1.642531,0.55,0.692,0.464,0.732,0.244,-0.183,1
1.648586,0.549,0.685,0.461,0.915,0.061,0.061,1
1.655348,0.55,0.689,0.463,0.915,0.0,0.061,1
1.662942,0.55,0.683,0.461,0.488,-0.122,0.122,1
1.671671,0.547,0.688,0.46,0.0,-0.183,0.244,1
1.679707,0.544,0.69,0.459,-0.061,-0.122,0.244,1
1.686792,0.549,0.693,0.458,0.244,-0.549,0.427,1
1.695038,0.547,0.691,0.46,0.793,-0.549,0.488,1
1.703204,0.544,0.684,0.464,0.732,-0.793,0.793,1
1.710846,0.55,0.683,0.463,0.61,-0.61,0.732,1
1.717881,0.552,0.686,0.461,0.427,-0.61,0.793,1
1.726984,0.551,0.69,0.46,-0.183,-0.793,1.037,1
1.734336,0.553,0.697,0.459,-0.366,-0.915,1.281,1
1.742691,0.547,0.698,0.46,-0.305,-1.098,0.915,1
1.749319,0.55,0.702,0.458,-0.427,-1.159,1.403,1
1.758355,0.554,0.71,0.459,-0.61,-1.22,1.037,1
1.765258,0.55,0.717,0.46,-0.244,-1.464,1.159,1
1.774423,0.553,0.724,0.462,-0.061,-1.647,1.037,1
1.781418,0.553,0.72,0.466,0.427,-1.77,1.037,1
1.788648,0.551,0.727,0.466,0.61,-1.831,0.61,1
1.797797,0.55,0.723,0.472,0.793,-1.892,0.549,1
1.805046,0.552,0.721,0.471,0.915,-1.831,0.488,1
1.813133,0.549,0.721,0.471,1.037,-1.831,0.183,1
1.820327,0.547,0.725,0.471,1.098,-1.892,0.366,1
1.827942,0.55,0.728,0.465,0.549,-1.953,0.061,1
1.837465,0.55,0.725,0.467,0.244,-2.197,-0.183,1
1.843899,0.546,0.726,0.471,0.854,-2.441,-0.061,1
1.85221,0.549,0.724,0.471,1.525,-2.38,-0.244,1
1.858712,0.548,0.723,0.476,1.464,-2.319,-0.366,1
1.867033,0.548,0.726,0.48,0.549,-2.746,-0.427,1
1.873713,0.551,0.725,0.488,0.305,-2.258,-0.427,1
1.882453,0.553,0.729,0.492,0.122,-2.319,-0.793,1
1.889507,0.549,0.729,0.488,0.61,-2.38,-0.854,1
1.898073,0.551,0.732,0.485,0.915,-2.258,-0.732,1
1.905437,0.552,0.729,0.486,1.342,-2.258,-1.159,1
1.913564,0.553,0.723,0.477,1.098,-2.258,-1.159,1
1.922637,0.551,0.728,0.477,1.342,-2.197,-1.342,1
1.929402,0.549,0.729,0.478,1.708,-2.258,-1.464,1
1.938819,0.551,0.729,0.476,1.403,-2.38,-1.708,1
1.945672,0.555,0.727,0.483,1.403,-2.258,-1.953,1
1.953322,0.554,0.729,0.48,1.037,-2.38,-2.075,1
1.960964,0.549,0.726,0.483,0.793,-2.258,-2.075,1
1.969352,0.552,0.724,0.479,0.793,-2.38,-2.136,1
1.978143,0.549,0.722,0.48,0.732,-2.258,-2.38,1
1.98552,0.547,0.717,0.477,0.671,-2.014,-2.502,1
1.993128,0.546,0.713,0.474,0.488,-2.136,-2.563,1
2.000912,0.542,0.714,0.474,0.671,-2.319,-2.563,1
2.009806,0.546,0.709,0.472,1.22,-2.38,-2.502,1
2.017746,0.543,0.705,0.468,2.197,-2.502,-2.807,1
2.025358,0.544,0.698,0.463,2.38,-2.502,-2.502,1
2.03319,0.55,0.69,0.465,1.586,-2.746,-2.502,1
2.040444,0.554,0.689,0.462,0.915,-2.624,-2.624,1
2.049593,0.558,0.686,0.456,0.183,-2.746,-2.746,1
2.056392,0.566,0.685,0.447,-0.427,-2.868,-2.258,1
2.064984,0.573,0.679,0.443,-0.976,-3.417,-2.136,1
2.072586,0.573,0.681,0.435,-1.22,-3.54,-2.075,1
2.080849,0.575,0.682,0.436,-1.037,-4.028,-1.892,1
2.089762,0.573,0.679,0.426,-1.098,-4.455,-1.647,1
2.097987,0.569,0.671,0.428,-1.159,-4.943,-1.647,1
2.105329,0.566,0.667,0.42,-1.037,-5.371,-1.586,1
2.112963,0.565,0.665,0.415,-1.037,-5.737,-1.342,1
2.120878,0.561,0.656,0.414,-1.77,-6.408,-1.037,1
2.128362,0.56,0.659,0.413,-2.807,-6.958,-0.793,1
2.137246,0.557,0.646,0.416,-2.258,-7.446,-0.183,1
2.146456,0.559,0.635,0.428,-2.014,-8.483,-0.122,1
2.153185,0.558,0.617,0.465,-2.197,-9.338,0.366,1
2.162812,0.556,0.61,0.499,-1.647,-9.643,0.793,1
2.16831,0.54,0.593,0.538,-0.183,-10.009,1.708,1
2.176044,0.518,0.575,0.588,1.281,-10.437,1.892,1
2.184535,0.5,0.557,0.651,3.417,-10.559,2.319,1
2.192647,0.48,0.529,0.729,5.126,-10.925,2.99,1
2.200348,0.448,0.501,0.835,8.422,-10.131,4.577,1
2.207026,0.415,0.475,0.916,10.986,-9.704,5.004,1
2.214854,0.398,0.455,1.048,15.686,-9.216,5.859,1
2.223505,0.366,0.422,1.218,21.301,-7.629,6.896,1
2.230888,0.354,0.374,1.405,32.653,-4.821,8.483,1
2.238197,0.333,0.314,1.631,45.104,-1.403,10.253,1
2.247159,0.304,0.229,1.883,56.762,3.601,12.573,1
2.254333,0.253,0.133,2.153,63.781,11.413,15.747,1
2.262167,0.199,-0.001,2.465,62.622,21.606,20.507,1
2.269473,0.132,-0.096,2.71,55.297,35.217,26.0,1
2.276694,0.075,-0.18,2.913,42.48,52.673,33.874,1
2.285495,-0.001,-0.207,3.117,38.452,67.932,41.198,1
2.293044,-0.069,-0.228,3.306,43.884,83.862,48.706,1
2.301339,-0.145,-0.24,3.472,50.17,100.952,56.701,1
2.308512,-0.23,-0.273,3.609,51.818,119.873,65.124,1
2.315992,-0.345,-0.268,3.655,41.931,143.188,75.012,1
2.325584,-0.414,-0.213,3.66,30.944,163.574,82.885,1
2.332543,-0.526,-0.124,3.625,26.489,183.715,89.721,1
2.340023,-0.657,0.0,3.525,27.954,205.505,97.351,1
2.347713,-0.791,0.096,3.407,32.226,223.022,102.783,1
2.356004,-0.916,0.193,3.262,33.386,240.6,107.849,1
2.363626,-1.061,0.295,3.101,31.311,257.385,112.487,1
2.372441,-1.222,0.429,2.934,32.287,273.193,116.088,1
2.380244,-1.422,0.591,2.728,36.132,287.902,119.445,1
2.387253,-1.606,0.749,2.554,39.733,301.025,122.07,1
2.394407,-1.813,0.939,2.397,47.119,315.185,124.206,1
2.402159,-1.99,1.087,2.229,56.518,327.087,125.671,1
2.410435,-2.171,1.203,2.036,59.997,337.951,126.281,1
2.417298,-2.356,1.319,1.83,60.485,348.205,126.403,1
2.424406,-2.481,1.446,1.621,61.035,355.529,125.61,1
2.43237,-2.588,1.602,1.402,64.88,364.746,124.145,1
2.439791,-2.679,1.755,1.165,71.044,369.995,122.07,1
2.448727,-2.735,1.928,0.897,80.627,375.305,119.079,1
2.457362,-2.751,2.08,0.615,76.965,378.112,115.234,1
2.464708,-2.736,2.227,0.352,64.758,380.31,109.558,1
2.472098,-2.699,2.354,0.06,55.48,380.981,102.355,1
2.480211,-2.608,2.426,-0.159,58.41,378.051,93.261,1
2.48849,-2.625,2.454,-0.349,67.382,374.023,85.876,1
2.49555,-2.439,2.45,-0.538,70.861,370.91,78.308,1
2.503051,-2.375,2.406,-0.798,61.645,366.455,69.03,1
2.511631,-2.235,2.364,-1.037,59.57,361.572,61.462,1
2.519039,-2.092,2.3,-1.314,55.664,353.515,54.199,1
2.528076,-1.923,2.252,-1.555,50.415,343.627,46.874,1
2.5353,-1.785,2.206,-1.75,47.18,330.932,38.757,1
2.544183,-1.645,2.167,-1.873,47.79,317.993,31.86,1
2.552165,-1.431,2.115,-1.92,55.236,303.71,25.451,1
2.559136,-1.426,2.023,-1.984,56.762,293.823,20.202,1
2.566726,-1.175,1.934,-2.008,58.898,276.977,14.16,1
2.574994,-1.288,1.845,-2.028,52.429,270.507,10.498,1
2.582891,-0.995,1.815,-2.145,44.86,255.371,5.249,1
2.590357,-0.933,1.771,-2.191,42.358,243.53,0.183,1
2.597898,-0.81,1.732,-2.305,41.503,228.088,-4.821,1
2.606343,-0.698,1.687,-2.342,44.25,214.538,-8.544,1
2.615295,-0.558,1.619,-2.422,40.161,200.927,-12.512,1
2.622403,-0.481,1.542,-2.479,30.7,187.744,-15.93,1
2.631428,-0.336,1.529,-2.467,36.743,167.053,-19.531,1
2.638331,-0.236,1.43,-2.371,39.367,156.494,-21.545,1
2.647147,-0.107,1.345,-2.394,16.357,143.188,-24.536,1
2.655064,-0.086,1.327,-2.357,3.723,130.798,-26.794,1
2.662493,-0.081,1.342,-2.222,20.385,115.051,-28.503,1
2.67128,0.105,1.22,-2.065,39.428,102.844,-31.127,1
2.678289,0.147,1.149,-2.058,27.282,93.811,-32.714,1
2.685846,0.183,1.098,-2.017,17.395,83.312,-33.813,1
2.694505,0.244,1.041,-1.947,11.84,73.913,-34.362,1
2.701401,0.135,1.043,-1.882,16.723,63.11,-34.606,1
2.709868,0.335,0.954,-1.697,25.634,53.222,-35.339,1
2.716535,0.336,0.916,-1.706,11.474,49.255,-34.912,1
2.725345,0.328,0.922,-1.67,-9.948,39.123,-35.034,1
2.733205,0.361,0.927,-1.599,-14.77,31.921,-35.095,1
2.740487,0.406,0.919,-1.544,-18.859,23.803,-35.278,1
2.748123,0.436,0.916,-1.453,-18.432,16.113,-35.583,1
2.756218,0.452,0.909,-1.4,-12.268,7.263,-35.827,1
2.764977,0.447,0.875,-1.345,-6.591,-0.244,-36.071,1
2.77198,0.441,0.836,-1.286,-4.882,-6.774,-36.254,1
2.781061,0.438,0.788,-1.21,-6.286,-13.122,-35.522,1
2.788656,0.427,0.761,-1.136,-8.85,-19.836,-34.79,1
2.79779,0.423,0.729,-1.058,-10.925,-24.658,-33.508,1
2.805105,0.414,0.71,-0.994,-13.488,-29.907,-32.287,1
2.814073,0.407,0.692,-0.93,-16.723,-34.362,-31.188,1
2.822044,0.388,0.684,-0.893,-20.08,-38.269,-29.846,1
2.831288,0.362,0.688,-0.837,-23.254,-42.297,-28.381,1
2.839258,0.363,0.697,-0.793,-23.437,-45.471,-27.648,1
2.8477,0.365,0.706,-0.749,-22.094,-49.194,-26.672,1
2.855287,0.376,0.704,-0.708,-20.263,-52.612,-26.062,1
2.86446,0.395,0.7,-0.653,-15.869,-55.786,-25.512,1
2.871326,0.419,0.676,-0.607,-12.39,-58.593,-25.39,1
2.880671,0.44,0.644,-0.554,-10.375,-61.34,-24.536,1
2.887557,0.46,0.613,-0.49,-10.742,-63.293,-23.681,1
2.896761,0.473,0.585,-0.436,-12.817,-64.453,-21.911,1
2.903708,0.481,0.569,-0.387,-16.296,-64.88,-20.141,1
2.912625,0.481,0.558,-0.343,-21.301,-65.368,-17.944,1
2.921342,0.479,0.556,-0.305,-25.085,-65.551,-15.502,1
2.928355,0.478,0.564,-0.263,-26.733,-65.612,-13.488,1
2.937119,0.48,0.57,-0.233,-26.55,-65.246,-11.169,1
2.946379,0.478,0.592,-0.2,-24.963,-65.368,-9.033,1
2.953235,0.478,0.608,-0.187,-23.437,-64.941,-7.446,1
2.962632,0.471,0.631,-0.172,-22.094,-64.88,-5.92,1
2.969808,0.467,0.656,-0.155,-20.263,-64.636,-5.126,1
2.978837,0.468,0.677,-0.14,-18.005,-64.514,-4.272,1
2.986272,0.477,0.693,-0.125,-15.319,-64.453,-3.601,1
2.99514,0.493,0.702,-0.112,-11.291,-63.964,-3.601,1
3.00262,0.512,0.693,-0.108,-8.728,-63.842,-3.295,1
3.010786,0.527,0.686,-0.095,-9.216,-63.537,-3.234,1
3.020214,0.539,0.68,-0.091,-11.352,-62.927,-2.746,1
3.02762,0.55,0.675,-0.077,-13.732,-62.377,-1.708,1
3.035601,0.562,0.676,-0.065,-16.235,-61.462,-1.098,1
3.043355,0.574,0.687,-0.057,-18.981,-60.729,-0.427,1
3.052607,0.571,0.704,-0.051,-20.263,-60.18,0.427,1
3.059271,0.571,0.718,-0.041,-18.432,-59.814,0.976,1
3.067786,0.564,0.729,-0.03,-15.808,-59.509,1.342,1
3.075768,0.571,0.733,-0.016,-12.939,-59.326,1.647,1
3.083827,0.584,0.738,-0.012,-10.742,-58.715,2.197,1
3.091906,0.58,0.74,-0.004,-8.911,-58.227,2.38,1
3.100727,0.579,0.746,0.002,-7.324,-57.983,2.197,1
3.106035,0.586,0.742,0.008,-5.92,-57.556,2.258,1
3.114515,0.593,0.741,0.018,-5.126,-56.823,2.441,1
3.122072,0.586,0.74,0.019,-5.249,-56.396,2.807,1
3.129567,0.581,0.742,0.027,-6.347,-55.725,3.479,1
3.13841,0.567,0.748,0.02,-8.3,-54.748,3.601,1
3.145502,0.57,0.757,0.023,-9.338,-54.321,4.15,1
3.153089,0.572,0.759,0.021,-10.253,-53.588,4.394,1
3.161355,0.571,0.762,0.03,-12.512,-53.283,4.577,1
3.168956,0.581,0.763,0.042,-14.648,-52.368,4.882,1
3.17808,0.586,0.781,0.062,-15.747,-52.062,4.76,1
3.184663,0.588,0.782,0.071,-15.686,-51.025,4.943,1
3.193108,0.593,0.794,0.07,-15.258,-50.231,5.004,1
3.200606,0.591,0.812,0.081,-13.61,-49.621,4.699,1
3.208039,0.597,0.814,0.087,-10.742,-48.706,4.272,1
3.215811,0.603,0.82,0.071,-10.925,-48.4,4.028,1
3.223051,0.597,0.833,0.08,-10.253,-47.546,3.479,1
3.230598,0.594,0.838,0.088,-9.155,-46.081,3.051,1
3.238877,0.609,0.835,0.073,-10.253,-45.288,2.563,1
3.24685,0.6,0.847,0.092,-9.033,-44.677,1.892,1
3.255928,0.607,0.838,0.083,-7.202,-43.457,1.281,1
3.263321,0.614,0.83,0.077,-8.483,-42.48,0.976,1
3.272365,0.615,0.833,0.077,-10.498,-41.32,0.61,1
3.278644,0.62,0.836,0.072,-11.718,-40.771,0.183,1
3.287232,0.615,0.844,0.072,-11.718,-39.367,-0.122,1
3.296058,0.623,0.845,0.053,-12.695,-38.696,-0.488,1
3.303455,0.618,0.859,0.037,-13.549,-38.146,-0.915,1
3.310841,0.617,0.864,0.023,-13.305,-37.658,-1.525,1
3.319254,0.626,0.869,0.002,-12.939,-36.987,-2.319,1
3.329422,0.631,0.87,-0.025,-12.512,-36.987,-3.173,1
3.336519,0.633,0.865,-0.049,-10.986,-37.109,-3.906,1
3.345732,0.631,0.861,-0.065,-8.239,-37.963,-4.699,1
3.352767,0.625,0.851,-0.071,-5.92,-38.696,-5.004,1
3.361519,0.625,0.838,-0.078,-4.333,-39.184,-5.798,1
3.370573,0.623,0.829,-0.083,-3.845,-39.733,-6.042,1
3.377799,0.621,0.815,-0.097,-3.906,-39.978,-6.164,1
3.386465,0.625,0.806,-0.106,-4.028,-40.405,-6.408,1
3.395355,0.63,0.791,-0.118,-4.516,-40.832,-6.469,1
3.402516,0.634,0.785,-0.132,-5.432,-41.625,-6.469,1
3.411584,0.634,0.78,-0.141,-6.958,-42.358,-6.286,1
3.418673,0.625,0.78,-0.151,-8.178,-43.457,-6.347,1
3.427932,0.618,0.773,-0.165,-9.582,-44.25,-6.408,1
3.435907,0.621,0.77,-0.177,-10.437,-45.288,-6.347,1
3.442931,0.617,0.769,-0.183,-11.047,-46.386,-6.286,1
3.452561,0.609,0.769,-0.188,-11.291,-47.79,-6.408,1
3.461185,0.604,0.765,-0.197,-10.192,-49.865,-6.408,1
3.469517,0.603,0.756,-0.186,-8.422,-51.574,-6.103,1
3.476713,0.598,0.75,-0.177,-7.263,-53.1,-6.042,1
3.485433,0.592,0.74,-0.163,-8.422,-54.931,-5.798,1
3.494552,0.583,0.734,-0.143,-9.948,-55.603,-5.737,1
3.501495,0.587,0.729,-0.124,-12.451,-56.274,-5.187,1
3.510396,0.579,0.731,-0.112,-14.587,-56.945,-4.821,1
3.517588,0.576,0.729,-0.107,-16.479,-57.434,-4.394,1
3.526684,0.573,0.73,-0.098,-17.272,-58.593,-3.967,1
3.533859,0.573,0.729,-0.085,-17.15,-59.692,-3.54,1
3.543153,0.563,0.72,-0.066,-16.906,-60.852,-3.051,1
3.550887,0.552,0.714,-0.035,-18.493,-61.584,-2.685,1
3.559669,0.551,0.701,0.003,-20.324,-61.95,-2.197,1
3.567418,0.553,0.699,0.034,-22.338,-62.133,-1.647,1
3.575874,0.558,0.688,0.058,-22.277,-62.377,-0.732,1
3.582908,0.55,0.689,0.081,-20.385,-62.561,0.122,1
3.591448,0.553,0.691,0.098,-17.456,-62.683,0.854,1
3.599783,0.555,0.692,0.131,-14.343,-62.683,1.525,1
3.606953,0.559,0.682,0.153,-12.39,-62.316,2.197,1
3.614453,0.568,0.676,0.173,-14.892,-61.584,3.173,1
3.622881,0.575,0.687,0.183,-21.118,-60.791,3.784,1
3.630129,0.551,0.705,0.211,-23.742,-59.753,4.516,1
3.637509,0.547,0.717,0.217,-24.597,-59.082,5.004,1
3.64674,0.54,0.734,0.241,-22.399,-58.288,5.432,1
3.654205,0.543,0.734,0.255,-19.47,-57.25,5.798,1
3.662822,0.551,0.737,0.266,-18.92,-56.823,5.798,1
3.670546,0.552,0.745,0.28,-17.272,-55.541,6.286,1
3.676974,0.565,0.742,0.286,-16.54,-54.687,6.347,1
3.684404,0.567,0.738,0.293,-15.38,-53.283,6.835,1
3.692535,0.571,0.739,0.302,-15.075,-52.673,7.019,1
3.700958,0.577,0.745,0.317,-14.587,-52.185,7.263,1
3.708078,0.582,0.745,0.34,-14.038,-50.781,7.324,1
3.715532,0.577,0.75,0.368,-13.366,-49.133,7.812,1
3.723916,0.582,0.749,0.369,-14.343,-47.668,8.056,1
3.733427,0.575,0.768,0.378,-16.174,-46.142,8.483,1
3.740201,0.566,0.778,0.4,-15.075,-44.067,8.605,1
3.748484,0.575,0.781,0.395,-13.488,-42.358,8.728,1
3.756581,0.573,0.789,0.385,-12.573,-40.771,8.728,1
3.764347,0.573,0.793,0.375,-11.718,-39.489,8.483,1
3.772477,0.578,0.803,0.368,-10.498,-38.085,8.483,1
3.780245,0.59,0.808,0.36,-9.155,-37.17,8.361,1
3.788514,0.597,0.813,0.361,-8.056,-36.071,8.056,1
3.79513,0.602,0.806,0.371,-7.019,-35.034,8.117,1
3.803979,0.606,0.801,0.369,-6.774,-33.508,7.751,1
3.811178,0.607,0.799,0.362,-8.361,-32.714,7.69,1
3.820553,0.598,0.808,0.36,-10.192,-31.311,7.629,1
3.827788,0.599,0.804,0.36,-10.864,-30.212,7.446,1
3.836444,0.603,0.804,0.364,-10.009,-29.296,7.446,1
3.844717,0.604,0.799,0.362,-9.216,-28.076,7.141,1
3.851545,0.597,0.803,0.362,-9.704,-26.855,7.141,1
3.86063,0.592,0.807,0.362,-11.108,-25.756,6.958,1
3.867785,0.597,0.813,0.361,-12.023,-24.353,7.08,1
3.876315,0.593,0.816,0.354,-11.413,-23.193,7.08,1
3.883867,0.592,0.823,0.35,-11.169,-21.85,6.713,1
3.89202,0.595,0.821,0.343,-10.742,-20.996,6.591,1
3.899791,0.597,0.817,0.333,-10.681,-20.019,6.408,1
3.907787,0.595,0.817,0.325,-10.803,-19.104,6.347,1
3.917055,0.594,0.812,0.316,-10.253,-18.249,6.225,1
3.923875,0.582,0.817,0.308,-8.85,-18.005,6.347,1
3.932922,0.578,0.82,0.304,-6.53,-17.395,6.225,1
3.940015,0.585,0.812,0.287,-6.408,-16.601,6.347,1
3.947273,0.574,0.807,0.277,-8.483,-15.991,6.103,1
3.956716,0.571,0.809,0.267,-10.131,-15.319,6.225,1
3.963195,0.567,0.822,0.276,-13.305,-15.258,6.164,1
3.971387,0.58,0.819,0.292,-14.465,-14.343,5.981,1
3.97889,0.59,0.82,0.305,-14.282,-13.977,5.798,1
3.986875,0.596,0.824,0.323,-12.145,-13.183,5.737,1
3.995095,0.601,0.819,0.323,-11.108,-12.512,5.615,1
4.0021,0.596,0.832,0.329,-10.559,-11.596,5.554,1
4.010589,0.598,0.831,0.329,-8.85,-10.375,5.615,1
4.018702,0.58,0.844,0.316,-8.605,-9.399,5.371,1
4.026259,0.577,0.844,0.306,-8.972,-8.3,5.187,1
4.033884,0.573,0.858,0.294,-9.399,-7.385,5.065,1
4.043264,0.573,0.871,0.277,-10.131,-6.896,4.943,1
4.051208,0.572,0.884,0.263,-10.375,-6.042,4.15,1
4.058423,0.585,0.879,0.243,-9.887,-5.432,3.845,1
4.065865,0.591,0.884,0.235,-8.728,-5.615,3.295,1
4.074726,0.597,0.879,0.233,-7.568,-5.493,2.868,1
4.08206,0.603,0.875,0.237,-7.263,-5.126,2.441,1
4.089928,0.603,0.865,0.238,-7.751,-4.516,1.892,1
4.099173,0.596,0.859,0.233,-8.3,-4.089,1.77,1
4.106143,0.591,0.864,0.232,-8.911,-3.723,1.342,1
4.113805,0.593,0.865,0.228,-8.178,-3.295,0.976,1
4.121622,0.587,0.868,0.226,-6.408,-3.173,0.549,1
4.130875,0.586,0.874,0.216,-4.821,-2.807,0.183,1
4.138737,0.584,0.87,0.211,-4.821,-2.624,-0.122,1
4.14641,0.585,0.863,0.204,-4.943,-2.441,-0.61,1
4.154129,0.586,0.858,0.197,-4.882,-2.014,-0.793,1
4.163433,0.593,0.857,0.189,-4.028,-1.953,-1.098,1
4.170436,0.597,0.849,0.175,-2.563,-1.831,-1.342,1
4.17946,0.598,0.84,0.17,-2.014,-1.892,-1.464,1
4.187134,0.595,0.833,0.166,-2.014,-2.197,-1.525,1
4.195621,0.6,0.822,0.17,-2.99,-2.136,-1.586,1
4.203687,0.598,0.825,0.173,-3.784,-1.953,-1.525,1
4.211134,0.597,0.829,0.182,-3.906,-2.075,-1.403,1
4.218631,0.591,0.826,0.192,-2.929,-1.892,-1.647,1
4.227518,0.584,0.827,0.192,-2.624,-1.403,-1.647,1
4.235493,0.582,0.839,0.184,-2.99,-1.098,-1.953,1
4.242652,0.573,0.848,0.18,-3.234,-1.098,-2.014,1
4.251671,0.573,0.852,0.175,-2.441,-0.671,-2.136,1
4.260513,0.575,0.853,0.167,-1.77,-1.037,-2.502,1
4.268062,0.577,0.845,0.16,-0.549,-0.793,-2.746,1
4.276555,0.581,0.834,0.156,-0.305,-0.793,-2.868,1
4.285151,0.585,0.83,0.15,-1.525,-0.793,-2.807,1
4.292101,0.588,0.833,0.145,-2.807,-1.037,-3.112,1
4.299881,0.59,0.839,0.146,-3.356,-1.037,-3.234,1
4.309056,0.593,0.836,0.145,-2.502,-1.037,-3.601,1
4.317439,0.59,0.83,0.14,-0.61,-1.586,-3.784,1
4.324698,0.586,0.82,0.139,0.61,-1.708,-3.845,1
4.33365,0.587,0.814,0.136,0.61,-2.014,-3.723,1
4.340861,0.589,0.805,0.141,0.244,-1.892,-4.028,1
4.35054,0.582,0.796,0.145,-0.305,-1.953,-3.54,1
4.357703,0.582,0.795,0.149,-0.244,-1.77,-3.479,1
4.367191,0.583,0.789,0.15,-0.122,-1.77,-3.601,1
4.373948,0.577,0.789,0.154,0.427,-2.136,-3.295,1
4.38226,0.579,0.782,0.154,-0.305,-2.075,-3.234,1
4.391569,0.581,0.783,0.162,-0.671,-1.953,-2.929,1
4.399073,0.582,0.788,0.164,-1.159,-1.708,-2.929,1
4.406289,0.582,0.787,0.164,-0.793,-1.647,-2.685,1
4.415418,0.581,0.784,0.159,-0.061,-1.708,-2.502,1
4.422701,0.584,0.786,0.15,0.366,-1.647,-2.624,1
4.430152,0.581,0.78,0.141,0.244,-1.77,-2.38,1
4.439218,0.585,0.776,0.142,-0.061,-2.075,-2.258,1
4.447808,0.587,0.779,0.139,0.244,-2.319,-1.953,1
4.454066,0.588,0.776,0.142,0.976,-2.441,-1.953,1
4.46274,0.588,0.776,0.145,0.854,-2.746,-1.831,1
4.470265,0.583,0.776,0.153,0.061,-2.807,-1.586,1
4.479427,0.585,0.78,0.156,-0.427,-2.563,-1.281,1
4.4875,0.581,0.784,0.163,-0.427,-2.624,-1.281,1
4.494212,0.578,0.781,0.164,0.0,-2.319,-1.098,1
4.502249,0.578,0.772,0.156,0.122,-2.441,-0.793,1
4.509811,0.578,0.777,0.152,-0.305,-2.441,-0.61,1
4.519181,0.579,0.782,0.147,-0.305,-2.258,-0.427,1
4.527732,0.581,0.776,0.144,0.244,-2.868,-0.305,1
4.534932,0.585,0.769,0.144,0.732,-3.112,-0.122,1
4.542666,0.585,0.769,0.147,0.671,-3.173,0.244,1
4.551706,0.583,0.771,0.153,0.915,-3.417,0.305,1
4.558966,0.587,0.771,0.158,0.732,-3.417,0.61,1
4.567711,0.586,0.768,0.167,0.793,-3.479,0.793,1
4.574509,0.582,0.776,0.167,0.366,-3.295,1.098,1
4.583509,0.584,0.782,0.17,-0.122,-3.051,1.281,1
4.59071,0.586,0.79,0.173,-0.549,-2.868,1.403,1
4.599389,0.584,0.798,0.17,-0.366,-2.807,1.525,1
4.606377,0.584,0.799,0.163,-0.305,-2.624,1.586,1
4.615302,0.585,0.808,0.155,0.122,-2.807,1.525,1
4.622206,0.59,0.813,0.149,0.122,-2.99,1.403,1
4.629591,0.586,0.816,0.15,0.366,-3.051,1.342,1
4.638787,0.593,0.817,0.149,0.488,-3.234,1.037,1
4.645351,0.59,0.82,0.157,0.549,-3.601,1.098,1
4.652994,0.591,0.815,0.155,0.488,-3.479,1.22,1
4.661831,0.593,0.814,0.161,0.122,-3.723,1.037,1
4.668754,0.593,0.81,0.172,0.0,-3.662,1.037,1
4.675629,0.594,0.81,0.177,0.061,-3.54,0.976,1
4.684456,0.591,0.812,0.17,0.366,-3.601,0.915,1
4.691619,0.585,0.817,0.169,-0.061,-3.54,0.976,1
4.699348,0.582,0.824,0.165,-0.671,-3.234,0.793,1
4.707201,0.584,0.827,0.164,-0.549,-3.295,0.61,1
4.716563,0.583,0.83,0.151,-0.366,-3.356,0.488,1
4.724628,0.583,0.836,0.151,-0.183,-3.479,0.183,1
4.731888,0.586,0.831,0.15,0.793,-3.662,0.122,1
4.739236,0.588,0.835,0.146,0.793,-3.906,0.0,1
4.746772,0.591,0.825,0.153,0.244,-4.15,0.0,1
4.75595,0.591,0.825,0.156,-0.61,-4.028,-0.122,1
4.763717,0.594,0.824,0.159,-0.793,-3.967,-0.244,1
4.771019,0.588,0.828,0.157,-0.671,-4.15,-0.427,1
4.778495,0.587,0.833,0.156,-0.488,-4.089,-0.549,1
4.785624,0.582,0.83,0.152,-0.366,-4.15,-0.793,1
4.794279,0.581,0.82,0.134,-2.319,-3.967,-0.793,1
4.801563,0.583,0.84,0.138,-3.784,-4.516,-0.976,1
4.809406,0.581,0.834,0.143,-1.159,-4.638,-1.159,1
4.81686,0.587,0.835,0.14,0.0,-5.249,-1.281,1
4.823782,0.579,0.833,0.146,0.122,-5.187,-1.525,1
4.832519,0.581,0.833,0.146,0.0,-5.493,-1.586,1
4.839554,0.582,0.835,0.148,0.183,-5.676,-1.586,1
4.846997,0.582,0.819,0.157,0.671,-5.798,-1.708,1
4.854391,0.583,0.821,0.16,1.159,-5.859,-1.77,1
4.863579,0.588,0.816,0.159,1.403,-5.859,-1.892,1
4.871861,0.587,0.81,0.155,1.037,-5.798,-1.831,1
4.87883,0.584,0.811,0.15,0.183,-5.92,-1.892,1
4.887674,0.582,0.808,0.154,-1.525,-5.859,-1.708,1
4.89588,0.579,0.812,0.152,-2.38,-5.981,-1.892,1
4.903606,0.585,0.812,0.148,-3.295,-6.164,-1.708,1
4.911155,0.582,0.821,0.155,-2.685,-6.591,-1.831,1
4.921016,0.589,0.82,0.163,-0.793,-6.652,-1.953,1
4.928036,0.592,0.818,0.165,0.671,-6.958,-1.953,1
4.935713,0.589,0.816,0.162,0.976,-6.774,-2.136,1
4.944468,0.592,0.81,0.162,0.976,-6.896,-2.075,1
4.952711,0.581,0.814,0.168,0.793,-7.019,-2.319,1
4.959778,0.583,0.811,0.167,0.854,-7.019,-2.136,1
4.966845,0.582,0.813,0.17,0.671,-6.896,-2.38,1
4.975629,0.584,0.81,0.169,0.549,-7.019,-2.563,1
4.982927,0.58,0.806,0.166,0.793,-7.019,-2.563,1
4.99231,0.58,0.804,0.165,0.793,-7.08,-2.502,1
4.998975,0.579,0.802,0.157,0.671,-7.324,-2.441,1
5.007174,0.581,0.797,0.159,0.732,-7.385,-2.258,1
5.014789,0.576,0.792,0.163,0.61,-7.934,-1.953,1
5.022544,0.576,0.79,0.164,-0.122,-7.629,-2.197,1
5.032711,0.586,0.788,0.17,-1.647,-7.629,-2.136,1
5.040065,0.585,0.795,0.175,-2.319,-7.812,-2.075,1
5.047608,0.583,0.795,0.178,-2.014,-7.812,-2.014,1
5.05701,0.581,0.798,0.175,-2.075,-7.629,-1.525,1
5.063893,0.583,0.808,0.167,-2.929,-8.117,-1.892,1
5.072495,0.578,0.814,0.175,-0.671,-8.056,-1.953,1
5.080965,0.591,0.811,0.168,1.892,-8.422,-1.892,1
5.087917,0.577,0.808,0.173,2.38,-8.728,-2.014,1
5.096899,0.583,0.801,0.176,2.075,-8.666,-2.075,1
5.103113,0.582,0.803,0.18,1.403,-8.85,-2.258,1
5.111443,0.585,0.8,0.185,1.647,-8.911,-2.075,1
5.120677,0.587,0.795,0.188,1.464,-8.666,-2.136,1
5.126907,0.593,0.801,0.183,1.098,-8.422,-1.953,1
5.136119,0.577,0.8,0.176,0.732,-8.972,-2.197,1
5.14335,0.58,0.799,0.179,0.793,-8.728,-2.197,1
5.150925,0.576,0.798,0.173,0.549,-8.911,-2.258,1
5.159902,0.57,0.796,0.176,0.366,-8.666,-2.075,1
5.169007,0.568,0.797,0.176,-0.366,-8.85,-2.197,1
5.176247,0.569,0.796,0.177,0.427,-8.972,-2.075,1
5.183967,0.566,0.795,0.176,0.976,-8.972,-2.197,1
5.190551,0.572,0.789,0.183,1.77,-9.338,-1.953,1
5.199861,0.573,0.784,0.189,1.647,-9.46,-1.831,1
5.207627,0.574,0.778,0.19,0.854,-9.277,-1.647,1
5.216146,0.579,0.779,0.19,0.488,-8.911,-1.464,1
5.223843,0.577,0.782,0.19,-0.244,-9.033,-1.159,1
5.231795,0.577,0.783,0.189,-0.366,-8.789,-1.037,1
5.239211,0.576,0.782,0.181,-0.488,-9.155,-1.098,1
5.248124,0.578,0.783,0.179,0.0,-9.399,-0.915,1
5.255256,0.582,0.771,0.178,0.61,-9.46,-0.854,1
5.262676,0.588,0.759,0.182,0.732,-9.521,-0.549,1
5.270612,0.597,0.741,0.19,0.732,-9.521,-0.183,1
5.27942,0.604,0.729,0.188,0.793,-9.338,0.305,1
5.286532,0.61,0.719,0.186,-0.122,-9.46,1.037,1
5.294548,0.621,0.699,0.195,-0.976,-9.155,2.014,1
5.303643,0.635,0.693,0.192,-2.075,-9.216,2.746,1
5.310449,0.641,0.677,0.196,-2.502,-9.094,3.723,1
5.319431,0.64,0.668,0.204,-1.403,-9.155,5.187,1
5.326658,0.624,0.665,0.208,1.525,-9.399,6.713,1
5.334861,0.614,0.656,0.21,4.882,-9.826,7.446,1
5.3419,0.604,0.635,0.223,8.911,-10.681,8.361,1
5.350311,0.586,0.624,0.246,12.023,-11.291,8.911,1
5.35744,0.576,0.605,0.264,14.16,-11.901,9.826,1
5.365866,0.567,0.583,0.274,11.901,-11.901,10.803,1
5.372919,0.541,0.589,0.297,7.446,-11.657,12.084,1
5.381505,0.519,0.605,0.316,0.0,-10.742,13.671,1
5.389591,0.507,0.622,0.335,-4.882,-9.948,14.526,1
5.397153,0.507,0.651,0.341,-7.751,-9.46,15.747,1
5.404817,0.509,0.691,0.357,-6.835,-9.216,16.235,1
5.413831,0.499,0.701,0.375,-2.685,-8.361,16.784,1
5.421,0.511,0.71,0.354,-1.464,-8.483,17.028,1
5.430069,0.503,0.716,0.384,2.136,-9.643,17.333,1
5.436914,0.505,0.707,0.397,5.92,-10.07,17.395,1
5.444267,0.511,0.71,0.446,9.277,-12.573,17.15,1
5.452803,0.524,0.708,0.539,15.258,-14.587,17.15,1
5.461214,0.513,0.679,0.717,21.972,-16.662,17.028,1
5.468081,0.562,0.704,0.917,24.597,-19.409,16.357,1
5.475937,0.671,0.714,1.256,34.973,-20.935,15.808,1
5.484108,0.688,0.701,1.691,52.734,-19.104,16.479,1
5.491293,0.656,0.709,2.138,73.12,-15.38,17.272,1
5.498885,0.592,0.728,2.654,97.717,-10.009,18.127,1
5.506254,0.54,0.73,3.228,120.91,-0.976,19.47,1
5.514769,0.353,0.708,3.843,134.887,13.61,21.606,1
5.522145,0.153,0.714,4.406,138.488,34.301,24.658,1
5.529316,-0.082,0.74,4.861,133.789,58.166,28.259,1
5.536978,-0.367,0.798,5.252,126.647,85.449,31.921,1
5.545934,-0.604,0.881,5.576,112.304,115.417,35.217,1
5.55412,-0.813,1.009,5.819,90.82,154.663,39.306,1
5.561516,-1.026,1.212,5.921,80.749,190.612,40.832,1
5.568392,-1.262,1.425,5.909,78.308,224.975,41.442,1
5.577059,-1.476,1.582,5.843,79.956,259.948,41.259,1
5.583809,-1.734,1.718,5.691,79.65,296.691,40.954,1
5.592157,-2.043,1.867,5.414,84.106,334.533,39.916,1
5.599774,-2.399,1.979,4.986,89.599,374.816,38.879,1
5.608177,-2.762,2.066,4.528,97.717,405.578,37.719,1
5.615539,-3.131,2.198,4.008,122.619,434.02,36.56,1
5.623254,-3.487,2.275,3.407,134.887,459.96,36.682,1
5.629745,-3.894,2.312,2.738,134.887,482.849,36.804,1
5.638439,-4.332,2.356,2.091,144.104,499.267,37.353,1
5.646095,-4.469,2.402,1.544,150.939,513.427,37.536,1
5.65315,-4.709,2.382,0.936,139.099,529.357,37.78,1
5.660863,-4.85,2.353,0.227,111.389,538.269,37.048,1
5.668427,-4.917,2.348,-0.431,72.631,543.09,33.508,1
5.677804,-4.958,2.385,-1.148,13.61,545.593,26.733,1
5.685141,-4.669,2.501,-1.72,-26.794,539.306,14.038,1
5.693618,-4.541,2.576,-2.24,-28.259,526.306,0.0,1
5.700917,-4.376,2.584,-2.822,-15.319,504.272,-15.808,1
5.709496,-4.097,2.515,-3.212,-0.427,481.201,-29.052,1
5.718426,-3.689,2.331,-3.627,11.779,458.557,-41.076,1
5.72522,-3.405,2.128,-3.967,7.08,428.1,-54.26,1
5.734415,-3.059,1.897,-4.262,-3.356,401.0,-64.331,1
5.742231,-2.625,1.651,-4.583,-8.056,364.257,-74.89,1
5.749756,-2.31,1.456,-4.735,-2.868,329.895,-82.336,1
5.759052,-1.881,1.212,-4.787,11.291,290.649,-88.623,1
5.76653,-1.509,0.961,-4.806,15.808,259.582,-89.904,1
5.775131,-1.249,0.817,-4.742,32.348,223.022,-89.111,1
5.782904,-0.958,0.639,-4.701,56.03,193.481,-85.998,1
5.791165,-0.751,0.479,-4.655,71.96,158.569,-80.688,1
5.798403,-0.557,0.343,-4.51,76.599,130.371,-75.256,1
5.806955,-0.403,0.23,-4.326,76.354,104.736,-69.152,1
5.815222,-0.27,0.104,-4.046,73.486,80.932,-62.377,1
5.822876,-0.101,0.011,-3.832,61.401,56.335,-54.077,1
5.83128,-0.011,-0.044,-3.61,39.916,37.353,-47.119,1
5.840081,0.025,-0.065,-3.386,12.207,20.874,-40.527,1
5.84682,0.01,-0.035,-3.115,-9.704,4.272,-34.362,1
5.855588,0.013,0.004,-2.828,-20.263,-14.709,-27.893,1
5.86256,0.037,0.065,-2.478,-19.348,-29.052,-22.46,1
5.871381,0.024,0.124,-2.227,-4.516,-42.724,-16.723,1
5.878626,0.021,0.143,-2.032,11.779,-53.649,-12.817,1
5.886796,0.037,0.154,-1.826,24.291,-64.208,-8.3,1
5.896207,0.058,0.147,-1.701,25.512,-71.594,-4.638,1
5.903346,0.095,0.153,-1.538,16.723,-78.247,-0.854,1
5.912665,0.118,0.179,-1.381,-0.61,-84.167,3.845,1
5.921494,0.148,0.242,-1.163,-12.573,-88.623,8.239,1
5.928919,0.167,0.307,-0.958,-14.648,-93.322,13.549,1
5.937733,0.184,0.362,-0.803,-10.986,-96.13,17.333,1
5.945156,0.188,0.431,-0.631,-4.76,-97.961,21.179,1
5.953094,0.189,0.489,-0.526,0.0,-97.961,23.376,1
5.962554,0.207,0.547,-0.436,0.854,-97.961,25.146,1
5.96993,0.221,0.591,-0.37,-1.831,-97.351,26.367,1
5.978906,0.216,0.642,-0.301,-7.507,-96.069,27.343,1
5.98617,0.23,0.686,-0.235,-10.498,-95.581,27.587,1
5.995288,0.268,0.715,-0.165,-9.582,-94.177,27.832,1
6.00271,0.292,0.732,-0.125,-6.958,-93.505,28.137,1
6.011237,0.324,0.743,-0.066,-3.234,-92.651,28.381,1
6.018582,0.365,0.748,-0.025,-1.342,-91.003,28.747,1
6.027341,0.391,0.762,0.009,-3.967,-88.745,29.113,1
6.034595,0.406,0.786,0.031,-10.314,-85.754,28.991,1
6.043266,0.404,0.815,0.039,-19.348,-82.397,29.052,1
6.050452,0.396,0.854,0.043,-25.451,-79.528,28.442,1
6.058004,0.379,0.9,0.018,-28.991,-76.477,27.77,1
6.067084,0.381,0.926,-0.004,-29.235,-73.913,26.062,1
6.074694,0.394,0.949,-0.028,-26.245,-72.448,24.658,1
6.081819,0.404,0.956,-0.057,-21.24,-71.35,22.644,1
6.089495,0.418,0.951,-0.08,-17.028,-70.373,20.996,1
6.097605,0.447,0.94,-0.105,-13.671,-69.885,19.348,1
6.106843,0.47,0.929,-0.124,-10.864,-69.396,17.028,1
6.113701,0.491,0.911,-0.133,-8.544,-69.519,15.686,1
6.12313,0.525,0.892,-0.125,-5.737,-69.396,14.221,1
6.130329,0.542,0.878,-0.127,-4.943,-69.091,13.244,1
6.13784,0.559,0.868,-0.126,-7.69,-68.115,12.512,1
6.146933,0.539,0.866,-0.155,-14.831,-67.077,12.084,1
6.15414,0.527,0.87,-0.167,-21.789,-66.467,11.718,1
6.163034,0.519,0.877,-0.188,-27.526,-65.063,11.535,1
6.170206,0.507,0.899,-0.202,-31.127,-64.331,10.925,1
6.177995,0.516,0.914,-0.226,-28.625,-64.453,10.498,1
6.18717,0.534,0.916,-0.241,-20.69,-65.612,10.07,1
6.194079,0.556,0.904,-0.239,-9.643,-67.199,9.094,1
6.201802,0.576,0.888,-0.233,-1.586,-68.359,8.422,1
6.209731,0.588,0.856,-0.228,3.234,-69.58,7.873,1
6.21765,0.599,0.83,-0.219,2.563,-69.824,7.385,1
6.227297,0.592,0.811,-0.216,-4.577,-69.396,7.751,1
6.235417,0.577,0.812,-0.213,-15.441,-68.847,7.263,1
6.243335,0.553,0.827,-0.207,-28.503,-68.237,7.385,1
6.250327,0.542,0.854,-0.196,-36.926,-67.199,7.324,1
6.258202,0.539,0.882,-0.187,-40.405,-66.65,7.385,1
6.266275,0.538,0.912,-0.183,-37.597,-66.894,6.469,1
6.274008,0.552,0.926,-0.179,-31.005,-67.26,5.798,1
6.281671,0.544,0.931,-0.172,-22.888,-68.115,4.821,1
6.289366,0.546,0.924,-0.162,-14.892,-68.481,3.723,1
6.298555,0.55,0.899,-0.155,-10.131,-68.725,2.441,1
6.305573,0.547,0.871,-0.158,-11.108,-68.298,1.464,1
6.313334,0.545,0.852,-0.167,-17.7,-67.504,0.793,1
6.32216,0.536,0.834,-0.175,-28.015,-67.26,0.671,1
6.329127,0.544,0.828,-0.178,-37.78,-66.833,0.793,1
6.336604,0.557,0.834,-0.177,-45.043,-66.711,1.159,1
6.345733,0.554,0.848,-0.167,-46.02,-66.711,1.464,1
6.354281,0.553,0.855,-0.145,-43.029,-67.016,1.342,1
6.362052,0.555,0.854,-0.132,-36.56,-67.443,1.403,1
6.369949,0.552,0.846,-0.11,-29.785,-67.382,1.525,1
6.377521,0.557,0.829,-0.1,-22.094,-67.321,1.831,1
6.385455,0.559,0.801,-0.091,-17.822,-66.955,2.075,1
6.393561,0.543,0.778,-0.082,-15.93,-66.528,2.38,1
6.401828,0.548,0.75,-0.068,-15.869,-65.856,2.685,1
6.408595,0.548,0.729,-0.061,-18.371,-64.697,3.234,1
6.416366,0.555,0.72,-0.066,-23.254,-63.781,3.906,1
6.425273,0.523,0.727,-0.062,-28.259,-62.805,4.638,1
6.432059,0.512,0.733,-0.062,-31.738,-62.072,5.187,1
6.441051,0.498,0.735,-0.061,-33.63,-61.34,5.737,1
6.448656,0.504,0.738,-0.062,-34.606,-60.607,6.469,1
6.456263,0.5,0.737,-0.066,-33.935,-60.363,7.08,1
6.465153,0.508,0.737,-0.068,-31.616,-60.363,7.568,1
6.472478,0.531,0.739,-0.082,-27.709,-60.729,8.178,1
6.481606,0.533,0.736,-0.096,-25.817,-61.096,8.728,1
6.489214,0.533,0.729,-0.098,-24.963,-61.523,9.155,1
6.497666,0.536,0.717,-0.107,-26.123,-61.34,10.253,1
6.504698,0.532,0.712,-0.123,-30.395,-61.096,10.742,1
6.513567,0.52,0.712,-0.145,-35.827,-60.913,11.901,1
6.520997,0.515,0.711,-0.164,-39.306,-60.913,13.0,1
6.528724,0.508,0.728,-0.196,-40.283,-61.706,14.221,1
6.536913,0.511,0.732,-0.202,-36.804,-63.537,14.77,1
6.546089,0.512,0.728,-0.197,-31.921,-64.514,15.747,1
6.5528,0.515,0.712,-0.212,-29.785,-65.795,16.235,1
6.560558,0.517,0.703,-0.214,-29.724,-66.711,16.845,1
6.569654,0.499,0.694,-0.211,-33.264,-66.955,17.456,1
6.57701,0.497,0.685,-0.222,-40.466,-66.711,17.883,1
6.585786,0.493,0.68,-0.235,-52.246,-66.528,18.737,1
6.59369,0.471,0.692,-0.249,-61.157,-66.711,19.775,1
6.601278,0.456,0.716,-0.265,-65.002,-67.26,20.751,1
6.61017,0.472,0.724,-0.262,-62.194,-68.359,21.85,1
6.617363,0.478,0.729,-0.258,-56.457,-69.519,23.071,1
6.626194,0.499,0.721,-0.261,-50.598,-70.983,24.597,1
6.632827,0.515,0.71,-0.261,-48.339,-72.082,25.817,1
6.641756,0.511,0.706,-0.26,-47.973,-72.57,27.038,1
6.648806,0.512,0.705,-0.269,-49.621,-73.852,28.686,1
6.657444,0.506,0.714,-0.276,-54.443,-74.279,30.395,1
6.664864,0.486,0.738,-0.281,-60.058,-75.256,31.555,1
6.673691,0.458,0.79,-0.279,-65.185,-75.561,32.592,1
6.681044,0.446,0.832,-0.27,-67.26,-76.599,33.386,1
6.68869,0.426,0.869,-0.252,-63.049,-77.453,33.996,1
6.697993,0.44,0.894,-0.245,-55.664,-79.04,34.179,1
6.705093,0.439,0.902,-0.228,-46.081,-81.481,34.179,1
6.712671,0.437,0.91,-0.204,-38.085,-83.129,34.179,1
6.721789,0.436,0.905,-0.178,-33.325,-84.411,33.874,1
6.728858,0.428,0.904,-0.153,-32.958,-84.655,33.447,1
6.736459,0.421,0.91,-0.126,-37.597,-84.106,33.142,1
6.744751,0.412,0.928,-0.125,-43.762,-83.557,32.775,1
6.753644,0.411,0.962,-0.133,-49.56,-83.251,32.47,1
6.76243,0.407,1.008,-0.148,-47.729,-84.594,31.982,1
6.769858,0.372,1.068,-0.122,-35.095,-87.463,30.822,1
6.778794,0.392,1.078,-0.069,-22.033,-89.416,28.991,1
6.786379,0.408,1.06,-0.013,-13.427,-90.454,26.977,1
6.794207,0.411,1.047,0.033,-12.145,-90.637,25.512,1
6.801629,0.424,1.029,0.081,-14.16,-90.454,23.986,1
6.81084,0.443,1.009,0.135,-17.944,-88.867,22.399,1
6.818473,0.447,1.008,0.167,-20.629,-87.646,21.789,1
6.82529,0.422,1.022,0.195,-20.996,-86.486,20.263,1
6.832823,0.43,1.032,0.241,-17.333,-85.693,18.859,1
6.841082,0.437,1.023,0.265,-12.145,-84.472,17.761,1
6.849501,0.446,1.009,0.291,-5.859,-83.496,16.113,1
6.856139,0.416,1.002,0.327,-0.427,-82.458,14.77,1
6.863317,0.414,0.977,0.375,3.112,-80.688,13.793,1
6.871354,0.418,0.942,0.422,3.54,-77.758,12.817,1
6.878143,0.425,0.921,0.456,3.295,-75.744,12.145,1
6.886077,0.428,0.894,0.489,3.601,-72.57,11.962,1
6.893628,0.438,0.875,0.498,2.99,-69.213,11.901,1
6.902397,0.418,0.865,0.484,0.366,-65.979,11.901,1
6.908218,0.412,0.863,0.468,-2.685,-62.866,12.268,1
6.917237,0.41,0.873,0.461,-5.187,-60.546,12.512,1
6.925618,0.395,0.884,0.47,-5.981,-58.471,12.878,1
6.933068,0.415,0.893,0.493,-6.896,-55.114,13.305,1
6.940374,0.436,0.894,0.507,-6.958,-51.94,13.671,1
6.949115,0.451,0.895,0.502,-7.08,-49.011,13.793,1
6.956573,0.461,0.905,0.496,-7.324,-46.081,14.343,1
6.966009,0.457,0.921,0.492,-6.469,-43.518,14.709,1
6.973567,0.47,0.927,0.482,-5.126,-40.588,14.648,1
6.980746,0.493,0.926,0.456,-4.089,-37.841,14.587,1
6.989412,0.508,0.925,0.417,-3.845,-35.4,14.404,1
6.996568,0.508,0.928,0.384,-3.967,-33.874,14.404,1
7.004263,0.503,0.928,0.384,-4.333,-32.165,14.099,1
7.012551,0.516,0.93,0.383,-6.164,-30.09,13.854,1
7.021802,0.519,0.95,0.377,-6.896,-28.381,13.183,1
7.029084,0.527,0.956,0.361,-5.432,-26.306,12.573,1
7.036226,0.526,0.957,0.348,-5.981,-24.78,12.145,1
7.045051,0.524,0.962,0.335,-7.995,-23.071,11.291,1
7.053556,0.525,0.957,0.322,-8.483,-21.606,10.925,1
7.0607,0.532,0.953,0.307,-7.934,-20.385,9.887,1
7.068151,0.529,0.954,0.305,-7.324,-19.47,9.155,1
7.077223,0.537,0.946,0.303,-7.507,-18.31,8.972,1
7.085149,0.536,0.94,0.295,-7.812,-16.601,8.178,1
7.092627,0.518,0.949,0.278,-8.483,-15.319,7.69,1
7.101605,0.511,0.968,0.269,-7.324,-14.648,7.08,1
7.108496,0.504,0.976,0.27,-3.784,-13.732,6.347,1
7.11627,0.51,0.978,0.267,-0.183,-12.878,5.676,1
7.124541,0.506,0.969,0.257,2.929,-12.023,5.004,1
7.132633,0.506,0.958,0.248,5.31,-11.474,4.211,1
7.139381,0.513,0.944,0.253,7.019,-10.986,3.662,1
7.146616,0.506,0.921,0.254,7.141,-9.582,3.234,1
7.155005,0.516,0.903,0.245,3.295,-8.3,2.868,1
7.162275,0.516,0.905,0.239,-2.502,-6.835,2.563,1
7.170863,0.51,0.916,0.23,-5.859,-5.798,2.563,1
7.177639,0.511,0.922,0.212,-5.554,-4.577,2.136,1
7.185624,0.507,0.923,0.175,-4.577,-4.211,1.831,1
7.193622,0.496,0.923,0.141,-3.54,-3.906,1.647,1
7.201783,0.496,0.918,0.116,-2.929,-3.845,1.22,1
7.209094,0.488,0.916,0.081,-2.319,-4.15,1.159,1
7.216902,0.482,0.918,0.071,-0.61,-4.577,0.915,1
7.225529,0.494,0.91,0.067,0.854,-5.126,0.732,1
7.232869,0.497,0.901,0.065,3.173,-5.981,0.732,1
7.24051,0.497,0.89,0.065,5.92,-6.225,0.61,1
7.248089,0.484,0.879,0.065,6.835,-6.469,0.671,1
7.256825,0.494,0.87,0.068,6.103,-6.103,0.976,1
7.263487,0.485,0.864,0.053,2.441,-6.103,0.854,1
7.270863,0.48,0.866,0.039,0.244,-6.469,0.854,1
7.278539,0.484,0.868,0.027,0.549,-6.774,0.915,1
7.287425,0.483,0.863,0.017,0.427,-7.08,0.671,1
7.295131,0.488,0.864,0.014,0.061,-7.934,0.793,1
7.303028,0.488,0.857,0.025,0.61,-9.155,0.915,1
7.310112,0.488,0.857,0.048,1.098,-9.277,1.037,1
7.318384,0.487,0.854,0.075,0.976,-9.46,1.281,1
7.326464,0.492,0.853,0.091,-0.183,-9.521,1.281,1
7.335015,0.493,0.856,0.099,-0.549,-8.911,1.464,1
7.341735,0.497,0.855,0.101,-0.305,-8.605,1.525,1
7.349423,0.498,0.86,0.102,-0.549,-8.544,2.075,1
7.357342,0.497,0.865,0.097,-1.525,-8.117,1.953,1
7.365838,0.502,0.874,0.092,-1.647,-7.69,2.258,1
7.373926,0.503,0.878,0.09,-1.464,-7.812,2.136,1
7.381413,0.495,0.89,0.085,-0.61,-7.69,2.136,1
7.389535,0.49,0.887,0.083,0.61,-8.117,2.136,1
7.397479,0.487,0.888,0.082,0.183,-8.422,2.014,1
7.405503,0.49,0.892,0.09,-0.671,-8.239,1.831,1
7.413855,0.495,0.892,0.105,-0.793,-8.544,1.647,1
7.420781,0.503,0.894,0.114,0.061,-8.117,1.525,1
7.42848,0.493,0.893,0.116,-0.793,-7.934,1.281,1
7.436906,0.494,0.895,0.113,-1.953,-7.751,1.159,1
7.444473,0.493,0.903,0.107,-1.708,-7.324,1.037,1
7.45378,0.491,0.91,0.087,-1.403,-7.385,0.854,1
7.460849,0.482,0.916,0.079,-0.488,-7.629,0.671,1
7.468394,0.483,0.922,0.081,0.976,-8.056,0.488,1
7.476011,0.485,0.923,0.078,1.342,-8.422,0.366,1
7.485259,0.479,0.92,0.081,1.647,-8.666,0.427,1
7.492998,0.484,0.914,0.089,1.831,-8.972,-0.122,1
7.501827,0.489,0.909,0.102,1.22,-8.728,-0.183,1
7.507568,0.487,0.899,0.105,0.488,-8.605,-0.549,1
7.515844,0.486,0.904,0.107,0.0,-8.728,-0.488,1
7.524024,0.487,0.907,0.104,-0.061,-8.666,-0.854,1
7.531107,0.487,0.903,0.101,-0.061,-8.605,-0.915,1
7.539502,0.488,0.902,0.089,-0.976,-8.605,-1.281,1
7.548399,0.485,0.908,0.086,-0.793,-8.972,-1.159,1
7.555385,0.487,0.909,0.086,0.0,-9.338,-1.22,1
7.562823,0.487,0.908,0.089,1.098,-9.704,-1.586,1
7.571973,0.488,0.902,0.09,1.586,-9.826,-1.586,1
7.579874,0.485,0.896,0.1,1.22,-9.948,-1.831,1
7.587029,0.491,0.892,0.111,0.854,-9.765,-2.197,1
7.594481,0.491,0.889,0.119,0.915,-9.826,-2.197,1
7.602302,0.491,0.883,0.122,1.22,-9.643,-1.892,1
7.610101,0.492,0.88,0.121,0.671,-9.399,-2.38,1
7.619251,0.49,0.882,0.111,0.915,-9.277,-2.563,1
7.627157,0.48,0.88,0.103,1.77,-9.46,-2.319,1
7.634949,0.477,0.88,0.095,2.563,-9.399,-2.502,1
7.642418,0.479,0.877,0.084,2.99,-9.704,-2.319,1
7.651267,0.477,0.873,0.09,3.601,-10.253,-2.075,1
7.658484,0.484,0.868,0.098,3.295,-10.131,-1.892,1
7.665089,0.489,0.865,0.101,2.136,-10.009,-1.77,1
7.673466,0.489,0.869,0.11,1.22,-9.887,-1.525,1
7.681079,0.492,0.872,0.114,0.427,-10.009,-1.647,1
7.690093,0.488,0.871,0.112,0.488,-9.948,-1.77,1
7.697434,0.486,0.869,0.11,0.976,-10.07,-1.708,1
7.705558,0.479,0.873,0.109,0.854,-10.07,-2.075,1
7.713095,0.483,0.868,0.105,0.671,-10.253,-2.014,1
7.722277,0.489,0.864,0.109,0.549,-10.192,-2.014,1
7.730244,0.489,0.873,0.099,1.953,-10.253,-1.892,1
7.736915,0.485,0.868,0.095,3.051,-10.742,-1.831,1
7.744378,0.485,0.877,0.092,5.126,-11.047,-1.708,1
7.752099,0.491,0.874,0.086,6.286,-11.474,-1.953,1
7.761495,0.491,0.875,0.086,6.713,-11.718,-1.77,1
7.768507,0.489,0.871,0.081,6.164,-12.268,-1.403,1
7.776241,0.488,0.866,0.079,5.493,-12.39,-1.403,1
7.783839,0.482,0.866,0.08,5.493,-12.878,-1.342,1
7.793112,0.487,0.866,0.07,6.469,-13.244,-1.525,1
7.801827,0.488,0.863,0.067,8.239,-13.671,-1.647,1
7.808866,0.49,0.85,0.056,10.375,-14.404,-1.586,1
7.817817,0.493,0.845,0.038,11.779,-15.197,-1.342,1
7.824873,0.484,0.845,0.031,12.512,-16.357,-0.732,1
7.833776,0.484,0.845,0.027,13.0,-17.211,-0.671,1
7.84129,0.486,0.843,0.028,14.404,-18.127,-0.427,1
7.848562,0.478,0.842,0.032,14.526,-19.531,-0.549,1
7.857773,0.48,0.836,0.051,14.709,-20.202,-0.183,1
7.864623,0.482,0.821,0.066,12.451,-20.568,-0.183,1
7.872565,0.481,0.818,0.08,10.009,-20.874,0.305,1
7.879169,0.482,0.821,0.086,8.666,-20.629,0.366,1
7.887257,0.482,0.824,0.091,8.178,-21.24,0.61,1
7.894423,0.478,0.834,0.091,8.911,-21.789,0.915,1
7.902257,0.467,0.839,0.096,10.986,-22.521,0.976,1
7.909693,0.463,0.842,0.11,12.878,-23.376,1.159,1
7.918732,0.46,0.836,0.117,13.427,-23.559,1.403,1
7.926139,0.467,0.826,0.134,12.268,-23.498,1.525,1
7.933878,0.462,0.825,0.145,9.826,-23.742,1.77,1
7.941551,0.459,0.824,0.171,7.141,-23.62,1.953,1
7.949411,0.454,0.824,0.188,4.699,-23.437,2.38,1
7.958183,0.458,0.826,0.21,2.929,-22.766,2.929,1
7.964888,0.446,0.834,0.22,2.929,-22.46,2.807,1
7.973117,0.436,0.844,0.231,2.929,-21.911,3.112,1
7.979878,0.432,0.848,0.243,2.502,-21.484,3.173,1
7.989068,0.436,0.857,0.256,2.38,-21.057,3.356,1
7.9954,0.433,0.864,0.268,2.563,-20.446,3.295,1
8.003176,0.438,0.87,0.277,3.234,-20.08,3.723,1
8.010548,0.445,0.868,0.28,3.54,-19.226,3.662,1
8.01914,0.453,0.872,0.283,4.272,-18.493,3.54,1
8.025873,0.457,0.861,0.281,3.845,-17.944,3.601,1
8.034854,0.455,0.865,0.276,2.929,-17.639,3.601,1
8.041798,0.457,0.866,0.276,1.647,-16.845,3.784,1
8.050763,0.466,0.872,0.27,0.061,-16.479,4.089,1
8.057475,0.46,0.882,0.27,-0.244,-16.174,4.089,1
8.066155,0.458,0.891,0.265,0.061,-15.991,3.967,1
8.073212,0.458,0.895,0.266,0.305,-15.563,3.54,1
8.081217,0.464,0.899,0.266,-0.122,-15.075,3.54,1
8.088835,0.471,0.9,0.268,-0.488,-14.587,3.234,1
8.097437,0.469,0.902,0.255,-0.671,-14.465,3.112,1
8.104688,0.463,0.908,0.254,-0.244,-14.587,2.624,1
8.112414,0.463,0.913,0.259,0.305,-14.16,2.38,1
8.121596,0.461,0.922,0.257,0.793,-14.099,1.831,1
8.128457,0.462,0.927,0.257,1.892,-13.488,1.586,1
8.135813,0.459,0.925,0.248,2.319,-13.366,1.281,1
8.143447,0.465,0.93,0.237,2.929,-13.366,0.793,1
8.150954,0.467,0.924,0.219,3.784,-13.183,0.488,1
8.158515,0.467,0.92,0.208,4.577,-13.366,0.244,1
8.167476,0.467,0.916,0.197,5.371,-13.427,-0.183,1
8.175585,0.47,0.911,0.181,6.286,-13.854,-0.366,1
8.183728,0.476,0.9,0.179,6.164,-14.038,-0.549,1
8.191884,0.474,0.899,0.178,6.713,-14.526,-0.61,1
8.198845,0.469,0.893,0.173,6.286,-14.953,-0.671,1
8.206877,0.461,0.887,0.175,5.676,-15.319,-0.671,1
8.214503,0.463,0.886,0.18,5.004,-15.502,-0.793,1
8.222935,0.458,0.883,0.175,4.211,-15.624,-0.793,1
8.231568,0.442,0.89,0.172,3.967,-15.869,-0.915,1
8.239675,0.444,0.891,0.171,4.821,-16.235,-0.915,1
8.246815,0.452,0.879,0.174,5.737,-16.723,-1.037,1
8.254534,0.452,0.868,0.175,5.859,-17.395,-0.976,1
8.262187,0.461,0.856,0.189,5.065,-17.639,-0.61,1
8.270018,0.463,0.851,0.199,4.516,-17.822,-0.549,1
8.278959,0.459,0.84,0.206,5.371,-18.005,-0.061,1
8.285709,0.451,0.822,0.212,6.164,-18.432,0.305,1
8.293391,0.456,0.805,0.215,7.08,-18.798,0.671,1
8.30258,0.448,0.798,0.218,7.019,-18.737,0.976,1
8.309471,0.441,0.786,0.215,7.507,-19.348,1.586,1
8.317101,0.428,0.777,0.213,7.751,-19.897,2.197,1
8.324874,0.417,0.767,0.218,7.873,-20.812,2.563,1
8.333397,0.41,0.76,0.229,7.263,-21.545,3.112,1
8.340441,0.414,0.75,0.251,6.652,-22.155,3.601,1
8.347854,0.413,0.749,0.26,4.699,-22.583,4.516,1
8.355482,0.401,0.746,0.268,2.075,-23.071,5.004,1
8.364215,0.404,0.746,0.28,0.427,-23.071,5.92,1
8.371097,0.409,0.746,0.282,-0.488,-23.193,7.202,1
8.380438,0.403,0.757,0.283,-1.464,-23.498,8.117,1
8.387652,0.416,0.755,0.3,-0.183,-23.986,9.216,1
8.394492,0.456,0.755,0.331,2.746,-25.207,10.62,1
8.402482,0.463,0.752,0.368,5.187,-26.123,11.413,1
8.41095,0.47,0.762,0.417,9.582,-26.733,12.084,1
8.419577,0.468,0.765,0.478,13.916,-27.587,12.939,1
8.42728,0.48,0.75,0.542,18.188,-28.198,13.427,1
8.434477,0.508,0.732,0.6,19.226,-28.259,14.038,1
8.442139,0.49,0.726,0.69,13.977,-27.343,14.953,1
8.449468,0.503,0.727,0.754,2.685,-26.733,15.441,1
8.456847,0.508,0.738,0.878,-10.437,-25.634,15.991,1
8.466068,0.486,0.76,1.028,-18.676,-24.047,16.357,1
8.472975,0.471,0.818,1.243,-19.531,-23.62,16.174,1
8.481719,0.437,0.878,1.625,-8.728,-22.277,15.686,1
8.488967,0.418,0.904,2.048,8.483,-17.7,14.953,1
8.498101,0.262,0.931,2.569,23.071,-11.657,13.244,1
8.505646,0.067,0.89,3.358,38.452,0.793,11.413,1
8.514199,-0.057,0.804,4.096,39.733,19.165,10.803,1
8.520121,-0.241,0.757,4.801,32.165,43.64,10.498,1
8.52776,-0.437,0.746,5.425,31.677,72.387,11.352,1
8.536747,-0.643,0.819,5.905,42.48,106.262,12.268,1
8.543467,-0.885,0.836,6.24,42.724,139.892,13.549,1
8.5511,-1.099,0.904,6.515,42.541,182.006,15.075,1
8.558611,-1.392,0.977,6.575,36.621,225.83,17.456,1
8.566594,-1.703,1.086,6.459,34.729,270.141,19.287,1
8.575633,-2.057,1.217,6.095,48.034,318.481,22.338,1
8.583572,-2.46,1.295,5.623,45.104,357.299,25.878,1
8.591498,-2.761,1.33,5.145,34.851,392.761,28.686,1
8.598824,-3.097,1.545,4.505,46.813,432.739,32.836,1
8.607722,-3.469,1.705,3.79,53.649,460.388,35.217,1
8.615273,-3.813,1.864,3.06,56.945,483.459,36.376,1
8.622478,-4.14,2.056,2.216,65.368,502.014,36.132,1
8.629865,-4.395,2.158,1.443,71.166,519.104,34.057,1
8.637671,-4.638,2.273,0.67,72.082,528.259,29.602,1
8.645248,-4.77,2.351,-0.095,71.105,531.372,22.888,1
8.65285,-4.722,2.417,-0.776,62.622,530.09,13.977,1
8.662066,-4.536,2.449,-1.455,52.185,526.062,3.601,1
8.668974,-4.402,2.458,-2.171,36.56,514.587,-8.728,1
8.678042,-4.303,2.426,-2.824,10.498,491.943,-25.085,1
8.685236,-3.967,2.352,-3.159,0.366,468.139,-39.123,1
8.693098,-3.528,2.236,-3.436,5.31,441.528,-51.147,1
8.700955,-3.25,2.069,-3.591,12.634,408.569,-62.866,1
8.710131,-2.912,1.872,-3.658,12.878,380.554,-70.007,1
8.718085,-2.517,1.641,-3.687,8.789,355.651,-75.134,1
8.72528,-2.241,1.497,-3.735,2.075,326.477,-79.101,1
8.734327,-1.971,1.342,-3.765,10.986,301.513,-81.115,1
8.742349,-1.625,1.147,-3.839,35.705,270.263,-81.481,1
8.749629,-1.416,0.95,-3.873,52.978,244.567,-79.467,1
8.757545,-1.193,0.758,-3.88,61.828,220.092,-75.622,1
8.765342,-0.975,0.577,-3.843,66.772,197.937,-71.289,1
8.774131,-0.778,0.464,-3.819,67.382,174.011,-65.795,1
8.781256,-0.622,0.39,-3.723,65.246,152.832,-61.645,1
8.789405,-0.483,0.333,-3.56,63.354,134.643,-56.579,1
8.798492,-0.344,0.278,-3.355,60.18,113.159,-50.354,1
8.806061,-0.234,0.231,-3.104,56.091,96.374,-44.25,1
8.815093,-0.168,0.212,-2.871,44.311,78.43,-36.926,1
8.822661,-0.113,0.241,-2.554,30.09,65.246,-30.7,1
8.829996,-0.076,0.273,-2.325,22.705,51.391,-24.23,1
8.838877,-0.079,0.323,-2.112,26.977,39.245,-19.165,1
8.845945,-0.052,0.347,-1.922,33.874,29.235,-13.916,1
8.855298,-0.011,0.354,-1.856,31.799,18.371,-7.568,1
8.863216,0.015,0.379,-1.795,26.123,9.216,-2.868,1
8.871245,0.069,0.423,-1.694,18.432,-0.854,2.258,1
8.878643,0.118,0.479,-1.583,12.573,-8.789,6.469,1
8.886171,0.176,0.542,-1.424,11.962,-16.54,9.216,1
8.894179,0.224,0.584,-1.316,17.517,-22.521,11.413,1
8.902517,0.249,0.611,-1.243,26.855,-30.578,12.756,1
8.910314,0.268,0.619,-1.149,31.616,-36.437,12.756,1
8.918287,0.287,0.612,-1.071,29.541,-41.32,12.878,1
8.924737,0.305,0.6,-0.993,18.615,-44.677,13.0,1
8.932445,0.316,0.604,-0.91,2.746,-46.936,13.244,1
8.941684,0.33,0.62,-0.835,-11.108,-49.011,13.793,1
8.94869,0.31,0.656,-0.762,-18.127,-51.574,14.648,1
8.958113,0.298,0.68,-0.676,-22.583,-54.077,16.052,1
8.96557,0.301,0.702,-0.601,-25.634,-56.213,17.395,1
8.973107,0.325,0.733,-0.529,-25.573,-58.044,19.104,1
8.982127,0.312,0.77,-0.479,-21.362,-60.119,20.446,1
8.989597,0.3,0.819,-0.432,-14.709,-62.011,21.728,1
8.998803,0.282,0.869,-0.378,-6.652,-64.147,22.338,1
9.006993,0.278,0.888,-0.368,-5.126,-64.941,22.216,1
9.013931,0.281,0.893,-0.364,-12.023,-65.612,22.155,1
9.023299,0.313,0.908,-0.353,-20.202,-66.04,21.85,1
9.030123,0.301,0.943,-0.336,-24.414,-66.65,21.362,1
9.037689,0.307,0.973,-0.327,-20.019,-67.81,20.751,1
9.046134,0.337,0.981,-0.321,-12.084,-68.969,19.775,1
9.054823,0.364,0.977,-0.32,-5.737,-70.19,18.493,1
9.061818,0.391,0.971,-0.33,-5.004,-71.289,17.272,1
9.07117,0.404,0.969,-0.332,-6.042,-72.509,15.747,1
9.07801,0.416,0.969,-0.318,-7.873,-73.486,14.099,1
9.085493,0.435,0.977,-0.302,-8.972,-74.646,12.39,1
9.09392,0.44,0.991,-0.283,-9.216,-75.439,11.108,1
9.102574,0.433,1.002,-0.265,-9.399,-76.293,9.826,1
9.111002,0.435,1.003,-0.245,-10.253,-76.904,8.056,1
9.119127,0.429,1.002,-0.234,-12.207,-77.148,7.263,1
9.12762,0.425,1.004,-0.231,-16.113,-77.026,5.798,1
9.135171,0.433,1.005,-0.224,-20.08,-77.148,4.943,1
9.142066,0.434,1.008,-0.218,-22.827,-77.27,4.028,1
9.150808,0.433,1.019,-0.188,-25.024,-77.758,3.234,1
9.158995,0.452,1.018,-0.162,-24.78,-77.27,2.685,1
9.1662,0.459,1.015,-0.145,-23.01,-77.575,2.136,1
9.174363,0.455,1.011,-0.163,-19.897,-78.308,1.77,1
9.181667,0.45,1.013,-0.172,-16.54,-79.772,1.22,1
9.189365,0.44,1.017,-0.169,-15.197,-80.566,0.61,1
9.197213,0.424,1.025,-0.161,-16.174,-80.627,-0.244,1
9.205837,0.42,1.041,-0.157,-17.456,-80.505,-1.281,1
9.21509,0.41,1.052,-0.141,-17.944,-80.078,-2.441,1
9.223005,0.403,1.061,-0.136,-17.578,-80.444,-3.845,1
9.229976,0.413,1.066,-0.115,-15.014,-80.444,-5.371,1
9.23795,0.43,1.053,-0.101,-12.39,-80.566,-7.08,1
9.246685,0.429,1.034,-0.075,-11.169,-80.322,-8.483,1
9.253804,0.44,1.016,-0.059,-10.192,-79.711,-9.887,1
9.263012,0.435,0.99,-0.054,-10.437,-79.711,-10.437,1
9.271519,0.435,0.979,-0.046,-11.474,-79.711,-10.986,1
9.278627,0.428,0.97,-0.05,-13.488,-79.528,-11.657,1
9.28774,0.405,0.955,-0.04,-16.845,-78.918,-11.657,1
9.295184,0.394,0.942,-0.04,-22.155,-78.43,-11.413,1
9.304104,0.424,0.922,-0.025,-26.367,-77.758,-11.413,1
9.312902,0.452,0.906,-0.02,-26.855,-76.843,-10.986,1
9.320508,0.447,0.889,-0.013,-26.062,-76.11,-10.498,1
9.328479,0.46,0.883,-0.006,-23.315,-75.561,-10.375,1
9.336666,0.492,0.86,0.001,-20.202,-74.951,-10.253,1
9.344621,0.494,0.831,0.003,-19.775,-74.157,-9.643,1
9.351858,0.503,0.804,0.002,-22.094,-73.547,-9.033,1
9.36094,0.52,0.781,-0.023,-27.832,-72.143,-8.056,1
9.368795,0.509,0.786,-0.052,-33.386,-72.204,-7.263,1
9.37774,0.453,0.81,-0.057,-34.057,-72.814,-6.103,1
9.384843,0.439,0.824,-0.05,-31.86,-73.608,-5.371,1
9.394299,0.436,0.826,-0.044,-29.602,-74.035,-4.882,1
9.402726,0.437,0.818,-0.031,-27.832,-74.157,-4.455,1
9.410906,0.435,0.816,-0.009,-25.939,-74.34,-4.15,1
9.41854,0.436,0.811,0.01,-23.62,-73.852,-3.906,1
9.425626,0.428,0.812,0.033,-21.362,-73.608,-3.601,1
9.433407,0.434,0.803,0.059,-17.822,-72.998,-3.356,1
9.442494,0.443,0.79,0.084,-13.366,-72.021,-3.356,1
9.449372,0.453,0.77,0.096,-9.948,-71.166,-2.99,1
9.458764,0.462,0.765,0.1,-8.178,-70.068,-2.258,1
9.464613,0.452,0.759,0.101,-9.155,-69.03,-1.281,1
9.473845,0.436,0.77,0.102,-12.939,-67.626,-0.732,1
9.483274,0.426,0.785,0.114,-17.761,-66.04,-0.549,1
9.490711,0.439,0.798,0.118,-19.897,-64.514,-0.122,1
9.498842,0.446,0.81,0.122,-18.981,-63.415,0.244,1
9.505953,0.447,0.818,0.117,-16.723,-62.805,0.244,1
9.514484,0.453,0.821,0.118,-12.939,-62.011,0.183,1
9.521708,0.459,0.82,0.114,-8.361,-61.157,0.366,1
9.531008,0.457,0.82,0.108,-5.859,-60.18,0.244,1
9.538671,0.456,0.815,0.105,-6.042,-59.265,0.244,1
9.545481,0.467,0.808,0.108,-7.629,-57.8,0.0,1
9.553336,0.476,0.8,0.099,-11.352,-56.579,0.0,1
9.560295,0.476,0.802,0.089,-16.906,-55.053,0.061,1
9.568962,0.479,0.812,0.085,-22.644,-53.833,0.366,1
9.575577,0.477,0.825,0.088,-25.329,-53.222,0.427,1
9.583218,0.489,0.83,0.084,-26.184,-52.429,0.427,1
9.5916,0.493,0.829,0.084,-25.268,-51.879,0.488,1
9.598699,0.492,0.838,0.084,-22.521,-51.574,0.427,1
9.607195,0.492,0.84,0.092,-18.066,-51.513,0.488,1
9.616178,0.51,0.837,0.101,-11.535,-50.598,0.305,1
9.623846,0.52,0.842,0.101,-7.446,-50.048,0.061,1
9.631215,0.516,0.845,0.101,-5.615,-49.011,0.0,1
9.638916,0.506,0.851,0.09,-8.483,-47.607,-0.427,1
9.648485,0.503,0.848,0.077,-14.16,-46.325,-0.732,1
9.656956,0.5,0.851,0.072,-20.507,-45.349,-0.976,1
9.6647,0.5,0.849,0.065,-26.733,-44.311,-0.732,1
9.671944,0.5,0.851,0.059,-30.334,-44.189,-0.854,1
9.681112,0.506,0.849,0.053,-31.921,-44.128,-0.671,1
9.688086,0.519,0.85,0.049,-31.372,-44.372,-0.732,1
9.695799,0.525,0.846,0.048,-30.334,-44.738,-0.549,1
9.704932,0.533,0.838,0.048,-29.052,-45.288,-0.366,1
9.712248,0.539,0.828,0.039,-27.465,-45.959,0.122,1
9.720021,0.543,0.83,0.041,-25.085,-46.936,0.488,1
9.728236,0.541,0.828,0.046,-21.85,-47.424,1.22,1
9.735352,0.54,0.834,0.041,-19.042,-48.217,1.77,1
9.74328,0.534,0.837,0.043,-17.089,-48.583,2.014,1
9.752443,0.541,0.833,0.043,-16.784,-48.522,2.563,1
9.759376,0.546,0.828,0.044,-18.432,-49.072,2.563,1
9.766852,0.547,0.833,0.047,-20.324,-49.072,3.173,1
9.775427,0.554,0.832,0.057,-19.104,-49.56,3.234,1
9.783,0.561,0.831,0.061,-16.479,-50.109,3.479,1
9.790873,0.563,0.833,0.062,-14.892,-50.537,3.601,1
9.79923,0.558,0.824,0.061,-16.174,-50.659,4.028,1
9.806244,0.559,0.838,0.073,-18.615,-50.781,3.967,1
9.813825,0.538,0.847,0.068,-19.47,-50.598,4.211,1
9.822846,0.531,0.861,0.068,-19.836,-51.269,4.394,1
9.830178,0.544,0.874,0.073,-16.174,-51.147,4.15,1
9.837905,0.545,0.889,0.071,-13.0,-51.574,3.784,1
9.847011,0.546,0.887,0.075,-10.375,-51.452,3.112,1
9.854077,0.551,0.888,0.068,-9.826,-51.879,2.624,1
9.861333,0.553,0.874,0.07,-11.108,-52.001,1.831,1
9.869076,0.551,0.865,0.077,-15.38,-52.307,1.464,1
9.87822,0.552,0.865,0.09,-20.446,-52.246,0.854,1
9.885358,0.545,0.869,0.103,-25.39,-51.818,0.976,1
9.892836,0.54,0.877,0.123,-29.052,-51.391,0.549,1
9.900642,0.541,0.888,0.132,-30.883,-50.842,0.793,1
9.909726,0.54,0.903,0.142,-30.395,-50.354,0.671,1
9.917898,0.524,0.913,0.146,-27.038,-49.987,0.793,1
9.925824,0.515,0.929,0.156,-21.911,-49.621,0.0,1
9.933434,0.511,0.937,0.162,-17.089,-49.316,-0.183,1
9.941604,0.521,0.937,0.174,-12.207,-48.828,-0.976,1
9.949427,0.54,0.919,0.183,-9.277,-47.973,-2.136,1
9.958084,0.551,0.907,0.181,-10.62,-47.058,-2.441,1
9.964967,0.54,0.895,0.174,-15.136,-45.898,-2.99,1
9.973564,0.526,0.89,0.169,-21.85,-44.555,-3.112,1
9.981904,0.517,0.892,0.162,-29.418,-43.457,-3.295,1
9.99036,0.508,0.9,0.157,-38.146,-42.724,-3.662,1
9.997943,0.492,0.917,0.156,-42.053,-42.358,-3.967,1
