timestamp_s,ax,ay,az,gx,gy,gz,label
0.004853,0.27,0.97,-0.497,-33.203,5.187,-4.028,1
0.014792,0.219,0.977,-0.539,-37.658,5.432,-4.272,1
0.021415,0.235,0.975,-0.594,-23.071,2.319,-5.249,1
0.029227,0.232,0.94,-0.573,-0.488,-1.77,-5.859,1
0.036629,0.213,0.904,-0.525,12.39,-3.967,-6.713,1
0.045013,0.221,0.873,-0.485,12.939,-4.455,-7.202,1
0.051401,0.235,0.884,-0.452,6.896,-3.112,-7.69,1
0.059295,0.252,0.894,-0.453,1.831,-2.502,-8.483,1
0.067979,0.269,0.83,-0.443,-5.432,-1.525,-8.422,1
0.075267,0.292,0.857,-0.421,-10.07,0.122,-9.521,1
0.08347,0.307,0.861,-0.437,-20.812,2.563,-9.582,1
0.092675,0.303,0.859,-0.457,-30.639,3.662,-10.07,1
0.10061,0.316,0.846,-0.459,-36.621,4.638,-10.009,1
0.107167,0.34,0.871,-0.469,-38.024,5.126,-9.582,1
0.116103,0.356,0.818,-0.473,-34.301,4.699,-10.62,1
0.125596,0.352,0.787,-0.452,-35.339,5.981,-9.826,1
0.132695,0.308,0.734,-0.481,-42.663,7.629,-8.972,1
0.141297,0.315,0.763,-0.478,-51.757,9.094,-9.216,1
0.148692,0.379,0.748,-0.456,-68.42,11.474,-9.155,1
0.156838,0.259,0.799,-0.466,-82.763,16.174,-8.605,1
0.163706,0.26,0.891,-0.544,-89.233,15.014,-8.3,1
0.172865,0.27,0.851,-0.493,-74.646,15.38,-9.521,1
0.18042,0.226,0.82,-0.565,-60.18,14.709,-8.789,1
0.188864,0.254,0.853,-0.57,-51.635,13.0,-9.277,1
0.197333,0.265,0.906,-0.508,-47.729,13.122,-9.887,1
0.204658,0.265,0.916,-0.476,-50.048,14.343,-11.047,1
0.21357,0.24,0.905,-0.465,-54.26,15.991,-12.084,1
0.220705,0.222,0.832,-0.494,-57.373,16.906,-12.878,1
0.228023,0.196,0.729,-0.497,-55.908,18.066,-12.878,1
0.236558,0.186,0.672,-0.514,-53.222,18.737,-11.596,1
0.245226,0.193,0.7,-0.536,-49.621,18.615,-11.047,1
0.254509,0.232,0.736,-0.512,-38.757,19.165,-10.62,1
0.261812,0.26,0.774,-0.551,-28.198,19.165,-10.559,1
0.269072,0.275,0.812,-0.591,-22.216,18.554,-11.108,1
0.278432,0.285,0.858,-0.636,-16.113,17.944,-11.779,1
0.285669,0.329,0.871,-0.712,-12.207,16.113,-12.939,1
0.294585,0.34,0.876,-0.734,-8.789,13.854,-13.793,1
0.303069,0.361,0.872,-0.744,-3.967,11.474,-14.526,1
0.310313,0.353,0.863,-0.742,-0.732,8.728,-15.563,1
0.319741,0.3,0.847,-0.715,3.417,7.263,-16.052,1
0.328679,0.276,0.81,-0.723,9.277,5.676,-16.418,1
0.335947,0.239,0.767,-0.717,16.784,3.051,-16.845,1
0.345122,0.225,0.721,-0.68,23.254,2.014,-17.211,1
0.354536,0.208,0.717,-0.669,18.676,2.014,-17.639,1
0.361624,0.191,0.722,-0.647,6.286,3.051,-18.249,1
0.36975,0.187,0.729,-0.642,-0.732,3.723,-18.371,1
0.377959,0.212,0.752,-0.673,6.103,2.197,-18.859,1
0.386176,0.197,0.767,-0.684,24.169,-0.915,-19.226,1
0.39498,0.217,0.773,-0.695,43.395,-3.417,-18.981,1
0.403549,0.238,0.791,-0.725,52.49,-5.737,-19.409,1
0.409456,0.302,0.821,-0.719,49.987,-6.347,-19.348,1
0.418754,0.312,0.875,-0.729,36.315,-5.371,-19.47,1
0.427854,0.307,0.931,-0.755,19.348,-5.249,-20.446,1
0.434596,0.32,0.953,-0.757,10.559,-5.371,-21.545,1
0.443629,0.327,0.941,-0.77,4.882,-5.615,-22.521,1
0.450304,0.319,0.918,-0.772,2.746,-7.324,-23.437,1
0.45773,0.311,0.894,-0.754,6.774,-8.544,-24.169,1
0.466091,0.302,0.879,-0.745,12.878,-10.07,-24.902,1
0.475128,0.302,0.836,-0.718,19.409,-11.779,-25.207,1
0.483934,0.288,0.794,-0.686,23.681,-12.512,-25.329,1
0.491148,0.256,0.77,-0.662,25.268,-12.939,-25.207,1
0.499685,0.245,0.748,-0.626,21.789,-12.573,-25.268,1
0.507248,0.251,0.731,-0.595,17.211,-12.023,-24.841,1
0.515777,0.259,0.74,-0.554,14.038,-11.413,-24.78,1
0.524399,0.281,0.759,-0.532,10.437,-10.437,-24.414,1
0.531739,0.312,0.781,-0.526,6.958,-10.009,-24.475,1
0.541122,0.339,0.804,-0.516,6.774,-9.155,-24.597,1
0.54845,0.359,0.814,-0.525,7.446,-8.666,-24.658,1
0.559414,0.38,0.829,-0.534,8.544,-8.239,-24.597,1
0.566637,0.399,0.858,-0.58,8.178,-8.3,-25.085,1
0.575477,0.411,0.872,-0.61,7.568,-8.239,-25.695,1
0.582227,0.41,0.875,-0.645,8.056,-8.239,-26.367,1
0.591131,0.416,0.885,-0.685,8.117,-8.728,-26.855,1
0.598295,0.418,0.904,-0.708,8.728,-9.338,-27.526,1
0.607039,0.423,0.94,-0.723,10.559,-10.192,-27.893,1
0.614337,0.434,0.969,-0.729,13.061,-11.291,-29.113,1
0.622455,0.446,0.981,-0.717,15.075,-12.268,-30.029,1
0.628806,0.426,0.982,-0.701,17.089,-13.427,-31.433,1
0.637122,0.413,0.953,-0.678,20.812,-14.709,-32.653,1
0.644827,0.4,0.891,-0.664,23.01,-15.136,-33.935,1
0.652579,0.403,0.835,-0.641,19.897,-15.258,-34.179,1
0.660521,0.397,0.805,-0.612,15.258,-15.075,-34.484,1
0.66674,0.41,0.799,-0.599,14.099,-14.648,-35.095,1
0.677659,0.388,0.793,-0.576,14.709,-14.953,-35.522,1
0.68477,0.385,0.819,-0.562,18.005,-14.587,-36.132,1
0.693777,0.41,0.856,-0.577,19.653,-14.343,-36.56,1
0.699678,0.419,0.901,-0.58,20.996,-14.465,-37.719,1
0.710617,0.43,0.922,-0.588,24.353,-14.404,-38.879,1
0.716771,0.442,0.943,-0.621,22.338,-13.977,-40.283,1
0.72642,0.509,1.008,-0.663,18.615,-12.695,-41.32,1
0.733096,0.497,1.011,-0.73,8.239,-13.488,-42.785,1
0.742528,0.516,0.989,-0.744,1.037,-12.573,-44.067,1
0.749176,0.508,1.009,-0.75,-3.845,-14.221,-45.41,1
0.757914,0.528,1.004,-0.703,3.845,-15.136,-46.752,1
0.766063,0.546,0.958,-0.655,9.826,-16.723,-47.973,1
0.773795,0.549,0.927,-0.575,10.62,-16.296,-48.583,1
0.781736,0.563,0.931,-0.55,8.972,-16.113,-49.194,1
0.790048,0.585,0.943,-0.447,9.094,-17.333,-50.109,1
0.799083,0.615,0.946,-0.384,17.211,-16.174,-50.659,1
0.80645,0.624,0.914,-0.36,16.845,-16.418,-51.513,1
0.814446,0.615,0.9,-0.32,13.549,-14.526,-52.185,1
0.82376,0.599,0.915,-0.326,8.361,-13.488,-52.856,1
0.831263,0.585,0.947,-0.318,2.624,-11.84,-53.771,1
0.838485,0.575,0.981,-0.319,3.051,-11.23,-55.725,1
0.847125,0.546,1.008,-0.317,5.554,-10.131,-57.495,1
0.855445,0.541,1.031,-0.333,10.559,-9.765,-59.753,1
0.86341,0.569,1.041,-0.331,18.249,-9.765,-61.584,1
0.870712,0.577,1.036,-0.355,21.606,-9.46,-63.598,1
0.87976,0.604,1.031,-0.35,21.24,-9.46,-66.04,1
0.887696,0.651,1.038,-0.344,24.597,-9.277,-68.42,1
0.895685,0.676,1.035,-0.325,26.611,-8.972,-70.129,1
0.903404,0.682,1.057,-0.314,22.949,-7.141,-71.899,1
0.912448,0.686,1.107,-0.304,17.028,-6.103,-74.34,1
0.919206,0.686,1.156,-0.291,19.226,-5.126,-76.904,1
0.92836,0.685,1.172,-0.295,20.507,-4.577,-79.833,1
0.935121,0.693,1.185,-0.273,19.348,-3.723,-83.496,1
0.943682,0.7,1.2,-0.265,19.165,-2.197,-87.28,1
0.950524,0.71,1.207,-0.26,18.798,-1.464,-90.515,1
0.958382,0.707,1.208,-0.242,19.47,-0.427,-93.872,1
0.965905,0.706,1.198,-0.243,20.568,0.427,-97.595,1
0.975305,0.705,1.186,-0.221,23.803,0.976,-101.257,1
0.983618,0.685,1.157,-0.219,26.0,2.136,-105.346,1
0.990548,0.662,1.13,-0.21,26.184,3.723,-108.642,1
0.998601,0.651,1.092,-0.204,24.353,5.493,-111.755,1
1.006644,0.641,1.056,-0.224,22.399,6.591,-114.196,1
1.01332,0.645,1.02,-0.228,23.01,7.202,-117.248,1
1.02132,0.616,0.992,-0.241,26.184,7.751,-119.445,1
1.029092,0.596,0.953,-0.258,26.489,8.056,-121.154,1
1.037178,0.574,0.921,-0.271,25.695,7.995,-123.046,1
1.043678,0.533,0.885,-0.283,27.404,7.568,-124.633,1
1.051948,0.487,0.832,-0.281,31.616,7.202,-126.464,1
1.058362,0.502,0.765,-0.283,39.184,5.981,-127.624,1
1.066795,0.506,0.698,-0.26,45.227,5.737,-128.417,1
1.074326,0.505,0.659,-0.272,45.288,7.019,-128.356,1
1.081221,0.513,0.627,-0.285,36.743,7.141,-128.845,1
1.088242,0.519,0.617,-0.268,32.897,8.544,-128.417,1
1.096076,0.536,0.608,-0.288,33.203,8.422,-128.356,1
1.103624,0.53,0.605,-0.278,36.682,8.483,-127.99,1
1.110722,0.513,0.595,-0.284,42.114,8.666,-127.746,1
1.119017,0.489,0.578,-0.275,47.424,7.934,-127.624,1
1.127229,0.479,0.541,-0.283,52.124,9.033,-127.746,1
1.133892,0.51,0.487,-0.291,55.541,8.728,-127.441,1
1.140818,0.532,0.422,-0.296,51.452,10.498,-126.586,1
1.149325,0.557,0.41,-0.318,41.625,12.145,-126.22,1
1.155929,0.545,0.405,-0.31,44.189,11.718,-124.633,1
1.163215,0.579,0.629,-0.396,50.964,19.653,-121.459,1
1.171277,0.376,0.451,-0.603,21.789,14.282,-123.229,1
1.179176,0.236,0.457,-0.312,-4.821,22.216,-122.863,1
1.185757,0.222,0.437,-0.494,2.624,26.489,-122.009,1
1.194546,0.11,0.396,-0.395,5.859,23.193,-122.924,1
1.201145,0.132,0.348,-0.378,12.939,32.348,-121.582,1
1.208081,0.246,0.276,-0.427,3.356,29.235,-120.971,1
1.216369,0.33,0.255,-0.338,-2.563,37.78,-118.835,1
1.224662,0.428,0.237,-0.456,-13.61,37.048,-117.858,1
1.23181,0.53,0.238,-0.396,-19.226,37.719,-116.333,1
1.239852,0.645,0.241,-0.48,-11.84,35.461,-114.624,1
1.247933,0.696,0.229,-0.451,-1.464,30.944,-113.22,1
1.254723,0.741,0.204,-0.47,14.648,28.747,-111.694,1
1.261696,0.78,0.161,-0.483,28.32,23.132,-110.412,1
1.269406,0.788,0.138,-0.453,39.672,21.179,-108.276,1
1.276445,0.789,0.112,-0.469,46.752,18.615,-106.079,1
1.284316,0.719,0.104,-0.455,39.428,19.226,-104.125,1
1.29121,0.628,0.151,-0.459,31.066,19.897,-103.149,1
1.298723,0.562,0.21,-0.441,28.869,19.958,-102.722,1
1.306836,0.505,0.253,-0.437,32.287,20.385,-103.027,1
1.313251,0.506,0.257,-0.448,31.799,20.568,-103.515,1
1.321716,0.537,0.27,-0.45,25.634,21.85,-104.37,1
1.329899,0.602,0.279,-0.452,20.202,22.277,-105.163,1
1.336545,0.697,0.305,-0.442,22.644,21.606,-105.712,1
1.344996,0.741,0.331,-0.444,27.648,20.812,-106.201,1
1.352766,0.783,0.359,-0.45,28.747,19.47,-107.238,1
1.361191,0.79,0.398,-0.437,27.832,18.92,-108.52,1
1.367921,0.762,0.456,-0.425,29.296,18.249,-109.985,1
1.376584,0.732,0.507,-0.398,34.729,17.517,-112.548,1
1.384257,0.732,0.501,-0.373,37.048,18.371,-115.478,1
1.392129,0.767,0.471,-0.359,22.094,20.202,-118.103,1
1.400244,0.794,0.462,-0.315,0.793,23.315,-120.544,1
1.408014,0.817,0.469,-0.29,-21.423,26.55,-122.924,1
1.415852,0.833,0.483,-0.261,-44.799,28.869,-125.793,1
1.424618,0.826,0.5,-0.215,-59.265,31.005,-128.112,1
1.431197,0.836,0.536,-0.187,-64.147,31.616,-131.225,1
1.439166,0.825,0.561,-0.147,-59.997,32.043,-133.605,1
1.447574,0.832,0.561,-0.112,-57.556,33.386,-137.084,1
1.455386,0.853,0.554,-0.084,-58.715,36.376,-139.831,1
1.463961,0.909,0.574,-0.072,-54.016,37.841,-142.456,1
1.470996,0.869,0.57,-0.049,-43.518,39.672,-145.629,1
1.479476,0.826,0.561,-0.045,-45.776,42.663,-148.071,1
1.488067,0.777,0.587,-0.054,-52.978,44.86,-151.245,1
1.496396,0.523,0.783,-0.039,-23.01,44.982,-157.226,1
1.504808,0.269,0.839,-0.066,44.921,42.114,-162.841,1
1.513157,0.414,0.681,-0.173,84.228,39.855,-169.555,1
1.519711,0.222,0.668,-0.182,51.696,49.56,-175.231,1
1.527451,0.243,0.648,-0.276,21.606,50.903,-180.786,1
1.535825,0.184,0.667,-0.283,6.958,57.006,-185.424,1
1.542966,0.143,0.688,-0.385,5.798,56.03,-190.917,1
1.551082,0.141,0.605,-0.419,18.554,56.64,-195.861,1
1.559431,0.148,0.528,-0.549,31.005,55.297,-199.462,1
1.565761,0.171,0.442,-0.632,38.574,54.443,-201.965,1
1.573737,0.128,0.37,-0.727,40.832,53.283,-203.552,1
1.580744,0.089,0.318,-0.806,40.283,52.307,-205.261,1
1.590073,0.024,0.24,-0.897,32.165,51.94,-206.42,1
1.597407,-0.04,0.156,-0.974,15.686,51.391,-206.97,1
1.605854,-0.067,0.066,-1.036,-2.563,50.842,-207.58,1
1.614153,-0.109,-0.058,-1.116,-23.01,48.4,-207.946,1
1.620877,-0.096,-0.198,-1.144,-34.484,43.945,-207.397,1
1.629539,-0.137,-0.335,-1.137,-40.649,41.076,-205.688,1
1.637099,-0.152,-0.461,-1.143,-39.001,35.278,-204.101,1
1.64563,-0.188,-0.609,-1.111,-26.245,28.076,-201.293,1
1.65355,-0.228,-0.76,-1.06,-15.502,22.521,-197.937,1
1.661908,-0.25,-0.931,-0.99,-13.854,19.531,-193.847,1
1.670344,-0.281,-1.064,-0.92,-16.479,16.113,-187.255,1
1.677273,-0.305,-1.176,-0.853,-12.329,15.38,-180.419,1
1.686862,-0.288,-1.34,-0.795,5.493,11.718,-171.813,1
1.693649,-0.279,-1.507,-0.719,13.366,11.291,-163.208,1
1.70289,-0.289,-1.665,-0.621,9.338,12.878,-151.855,1
1.709956,-0.311,-1.761,-0.543,7.507,14.526,-141.113,1
1.718214,-0.356,-1.874,-0.482,10.498,15.624,-129.638,1
1.726661,-0.371,-1.992,-0.437,21.24,14.953,-118.164,1
1.734306,-0.39,-2.152,-0.345,22.46,16.174,-103.332,1
1.740964,-0.41,-2.279,-0.292,17.211,18.493,-89.782,1
1.749544,-0.42,-2.367,-0.22,21.728,20.263,-75.195,1
1.757931,-0.412,-2.493,-0.16,29.785,22.155,-57.922,1
1.764613,-0.418,-2.591,-0.093,32.47,25.39,-41.748,1
1.774727,-0.439,-2.67,-0.05,37.048,29.052,-25.207,1
1.782556,-0.478,-2.763,0.043,45.715,33.203,-4.638,1
1.78913,-0.525,-2.864,0.068,41.503,39.916,14.16,1
1.797699,-0.646,-2.92,0.092,31.311,46.264,33.63,1
1.806123,-0.787,-2.947,0.094,37.414,52.795,57.006,1
1.814917,-0.964,-3.035,0.103,48.95,57.983,81.787,1
1.821872,-1.165,-3.083,0.091,48.583,64.575,104.187,1
1.830921,-1.408,-3.06,0.063,52.185,69.641,127.746,1
1.838598,-1.745,-2.984,0.038,79.711,72.204,155.395,1
1.846112,-2.068,-2.971,0.018,110.473,72.692,180.175,1
1.855206,-2.431,-3.089,0.009,100.646,77.575,206.603,1
1.862527,-2.7,-3.087,-0.022,68.481,86.059,240.783,1
1.871775,-3.059,-3.028,-0.019,66.711,90.209,271.179,1
1.878247,-3.533,-3.003,-0.04,72.265,95.581,308.715,1
1.885772,-4.052,-2.956,-0.059,59.631,100.83,343.017,1
1.894516,-4.672,-2.823,-0.068,43.518,109.252,378.906,1
1.903787,-5.486,-2.593,-0.106,37.841,116.577,415.161,1
1.911053,-6.327,-2.397,-0.101,31.677,126.342,459.045,1
1.917883,-7.109,-2.189,-0.127,34.118,136.169,499.023,1
1.926116,-8.081,-2.01,-0.186,27.404,144.348,540.527,1
1.933561,-9.316,-1.795,-0.224,28.259,156.616,592.834,1
1.941744,-10.501,-1.787,-0.344,1.403,169.555,641.113,1
1.950289,-11.662,-1.759,-0.465,-49.743,190.246,693.481,1
1.957518,-13.706,-1.7,-0.628,-139.16,218.444,746.093,1
1.967258,-15.312,-1.535,-0.785,-178.894,246.643,801.025,1
1.977495,-15.996,-1.434,-1.003,-141.662,279.479,869.445,1
1.985369,-15.999,-1.382,-1.639,-88.012,300.598,965.637,1
1.993459,-15.999,-1.099,-2.157,-9.887,297.241,1045.41,1
2.002482,-15.999,-0.795,-2.564,105.651,270.202,1118.225,1
2.010147,-15.999,-0.291,-3.097,271.911,199.829,1205.505,1
2.018749,-15.999,0.263,-3.309,416.625,100.402,1278.686,1
2.025914,-15.999,0.934,-3.432,550.048,-30.883,1344.909,1
2.035542,-15.999,1.885,-3.088,671.386,-224.792,1401.55,1
2.042399,-15.999,2.841,-2.476,741.149,-405.578,1424.194,1
2.050064,-15.999,3.904,-1.483,781.433,-632.629,1412.17,1
2.059055,-15.999,4.731,-0.311,805.969,-822.936,1373.413,1
2.066012,-15.999,5.598,1.106,879.516,-1024.597,1299.621,1
2.07377,-15.999,6.415,2.895,1002.807,-1231.323,1193.908,1
2.08233,-15.999,7.64,5.659,1180.053,-1454.345,1002.502,1
2.090052,-15.999,7.642,7.193,1374.999,-1586.669,782.775,1
2.099154,-15.999,6.819,8.193,1527.831,-1717.346,517.822,1
2.106498,-15.999,6.354,8.737,1835.51,-1762.817,132.629,1
2.11362,-15.999,4.755,7.529,1803.527,-1719.177,-231.567,1
2.122105,-15.999,3.996,7.334,1335.632,-1567.687,-514.282,1
2.131381,-15.999,3.655,6.809,856.994,-1355.102,-699.951,1
2.140347,-15.999,3.309,5.607,594.299,-1217.834,-807.861,1
2.148698,-15.999,2.969,5.55,555.114,-1111.328,-867.797,1
2.156128,-15.999,2.021,4.945,673.156,-994.689,-932.495,1
2.163675,-15.999,0.854,4.444,758.239,-854.553,-991.76,1
2.172989,-15.999,-0.196,4.147,717.102,-713.561,-1025.573,1
2.180904,-15.999,-0.72,3.807,626.22,-578.125,-1036.743,1
2.188063,-15.999,-1.169,3.501,616.882,-470.642,-1032.409,1
2.195634,-15.999,-1.941,3.039,678.222,-345.458,-1010.803,1
2.205418,-15.999,-2.695,2.869,614.196,-237.792,-975.707,1
2.21376,-15.999,-3.236,2.787,522.766,-117.675,-915.832,1
2.222979,-15.669,-3.677,2.525,484.924,-24.291,-844.787,1
2.230084,-13.613,-3.986,2.246,452.331,49.743,-778.686,1
2.237227,-11.872,-4.003,1.766,422.241,106.872,-710.51,1
2.246166,-10.544,-4.079,1.349,397.033,162.536,-630.493,1
2.25357,-9.432,-4.144,0.942,345.703,204.467,-561.523,1
2.261262,-8.586,-4.022,0.601,272.644,235.351,-495.422,1
2.268937,-7.753,-3.712,0.276,203.613,257.69,-424.804,1
2.276906,-6.998,-3.475,0.03,169.25,264.526,-370.605,1
2.287049,-6.138,-3.348,-0.155,139.038,266.174,-322.143,1
2.294665,-5.183,-3.12,-0.37,114.379,259.094,-269.714,1
2.302203,-4.54,-3.01,-0.443,99.06,251.708,-222.534,1
2.313026,-3.955,-2.762,-0.484,96.984,238.891,-185.241,1
2.320087,-3.495,-2.58,-0.452,112.976,225.219,-140.747,1
2.32788,-3.11,-2.414,-0.44,105.895,214.721,-110.839,1
2.338454,-2.834,-2.221,-0.351,103.454,206.054,-79.528,1
2.345777,-2.542,-2.032,-0.32,108.154,196.166,-52.307,1
2.355574,-2.306,-1.872,-0.272,99.914,189.758,-28.32,1
2.363154,-2.067,-1.69,-0.257,85.205,183.41,-10.62,1
2.371953,-1.865,-1.531,-0.202,73.669,175.72,7.507,1
2.380493,-1.66,-1.374,-0.177,70.373,166.076,23.437,1
2.388206,-1.427,-1.251,-0.135,68.115,156.311,37.048,1
2.396999,-1.227,-1.17,-0.122,67.81,146.85,47.729,1
2.403578,-0.989,-1.069,-0.066,71.105,136.718,57.067,1
2.410945,-0.871,-0.984,0.0,80.261,127.807,65.551,1
2.4195,-0.774,-0.894,0.049,93.078,118.286,73.059,1
2.425783,-0.763,-0.813,0.088,106.872,109.558,79.772,1
2.435208,-0.583,-0.731,0.141,122.131,100.952,85.327,1
2.441254,-0.524,-0.654,0.175,128.784,93.444,89.904,1
2.448939,-0.464,-0.586,0.22,138.244,86.425,93.322,1
2.458776,-0.396,-0.52,0.284,150.878,79.956,96.435,1
2.464504,-0.296,-0.487,0.32,153.869,74.096,99.365,1
2.473512,-0.272,-0.456,0.338,142.333,70.068,101.013,1
2.482755,-0.228,-0.41,0.389,127.868,66.711,102.355,1
2.490214,-0.112,-0.381,0.404,123.474,63.049,103.149,1
2.497993,-0.015,-0.381,0.46,125.061,58.898,104.003,1
2.50518,0.081,-0.381,0.478,127.38,55.786,104.431,1
2.513854,0.166,-0.364,0.519,126.159,53.161,105.041,1
2.52143,0.21,-0.344,0.551,122.863,52.551,105.529,1
2.529897,0.254,-0.298,0.581,121.582,50.659,105.712,1
2.537475,0.278,-0.261,0.614,123.474,50.292,106.201,1
2.544337,0.314,-0.223,0.604,123.352,49.316,106.14,1
2.551579,0.37,-0.169,0.618,125.61,48.645,105.712,1
2.560995,0.404,-0.134,0.604,131.286,47.79,105.468,1
2.568601,0.468,-0.099,0.606,135.498,46.081,104.675,1
2.576823,0.518,-0.052,0.619,139.16,45.532,103.942,1
2.584586,0.579,-0.022,0.64,143.554,44.311,102.416,1
2.592435,0.63,-0.003,0.656,148.742,45.166,101.806,1
2.599354,0.681,0.02,0.65,151.123,44.677,100.646,1
2.607039,0.712,0.051,0.68,155.395,44.982,99.731,1
2.614399,0.72,0.062,0.68,161.376,44.982,98.937,1
2.622499,0.736,0.065,0.67,163.574,45.959,98.571,1
2.629861,0.796,0.071,0.66,163.574,45.654,98.266,1
2.636971,0.828,0.089,0.675,167.541,46.752,98.388,1
2.644477,0.827,0.101,0.648,169.799,48.156,98.51,1
2.652765,0.835,0.124,0.627,164.794,49.865,98.327,1
2.661017,0.866,0.165,0.604,158.63,52.612,98.388,1
2.669187,0.884,0.205,0.583,156.921,53.771,98.266,1
2.67736,0.892,0.27,0.572,162.414,54.321,97.656,1
2.68397,0.886,0.311,0.552,170.41,54.199,96.74,1
2.692305,0.891,0.337,0.54,178.894,53.649,95.581,1
2.699627,0.891,0.336,0.516,183.044,53.588,94.909,1
2.708337,0.89,0.341,0.494,183.593,54.321,93.627,1
2.715491,0.926,0.346,0.437,183.288,54.992,93.017,1
2.723632,0.927,0.337,0.398,176.025,55.358,92.346,1
2.730838,0.943,0.342,0.355,172.424,56.274,91.674,1
2.737778,0.982,0.357,0.327,172.302,55.48,90.82,1
2.744829,0.978,0.4,0.331,177.612,55.419,90.332,1
2.752382,0.941,0.444,0.321,183.654,54.992,89.477,1
2.763012,0.9,0.478,0.322,189.27,54.321,88.317,1
2.770125,0.881,0.505,0.312,189.392,54.26,87.097,1
2.777505,0.856,0.529,0.31,184.387,55.175,85.327,1
2.786434,0.854,0.554,0.3,177.307,56.152,83.74,1
2.793565,0.85,0.588,0.283,171.142,56.579,81.42,1
2.800749,0.808,0.613,0.275,168.518,57.434,79.589,1
2.809411,0.841,0.617,0.242,167.114,57.922,77.453,1
2.816358,0.879,0.609,0.215,165.71,58.166,75.683,1
2.824684,0.91,0.621,0.201,164.611,58.654,73.852,1
2.83237,0.902,0.653,0.182,164.672,58.898,71.594,1
2.840355,0.87,0.677,0.183,165.954,59.753,69.213,1
2.848239,0.819,0.704,0.186,163.33,60.974,66.04,1
2.856444,0.747,0.718,0.193,156.799,62.744,62.927,1
2.863867,0.777,0.739,0.203,148.132,63.781,59.936,1
2.870573,0.691,0.747,0.223,141.357,65.063,57.006,1
2.880085,0.697,0.762,0.214,132.873,65.673,53.894,1
2.888049,0.75,0.738,0.204,129.882,65.734,50.354,1
2.894899,0.801,0.719,0.176,134.338,65.246,47.485,1
2.903144,0.881,0.662,0.122,134.704,65.185,45.898,1
2.912398,0.943,0.647,0.075,134.094,65.063,44.128,1
2.919536,0.97,0.673,0.025,140.136,63.232,42.48,1
2.929592,0.967,0.696,0.0,156.188,60.668,41.076,1
2.936329,0.944,0.7,0.003,169.006,58.898,39.489,1
2.943701,0.946,0.672,0.017,165.161,60.18,37.414,1
2.952131,0.984,0.67,0.013,146.24,61.645,35.949,1
2.959591,0.956,0.68,0.031,130.798,63.232,33.813,1
2.968809,0.97,0.691,0.036,121.52,64.086,30.761,1
2.977146,0.954,0.689,0.044,117.37,64.025,27.832,1
2.984159,1.005,0.685,0.038,120.3,63.232,24.963,1
2.993288,1.045,0.699,0.043,130.065,61.462,21.728,1
3.000287,1.083,0.695,0.032,141.967,59.326,19.958,1
3.008707,1.115,0.692,0.035,155.395,57.25,18.432,1
3.016073,1.143,0.695,0.017,167.419,55.603,16.601,1
3.023461,1.092,0.724,0.021,174.743,54.26,14.587,1
3.031249,1.041,0.748,0.01,175.903,54.687,12.878,1
3.039334,1.001,0.767,0.007,170.959,55.297,10.437,1
3.047073,1.008,0.777,-0.011,162.414,57.495,8.544,1
3.054803,1.014,0.78,-0.041,143.615,59.936,5.31,1
3.062135,1.048,0.765,-0.061,127.563,62.194,2.746,1
3.071153,1.062,0.773,-0.088,116.76,63.903,-0.183,1
3.079464,1.079,0.786,-0.113,113.22,64.941,-3.234,1
3.087848,1.079,0.797,-0.133,113.464,65.673,-5.798,1
3.097133,1.064,0.804,-0.149,113.647,66.04,-8.605,1
3.104103,1.032,0.81,-0.163,115.844,66.955,-11.413,1
3.113654,1.008,0.802,-0.172,118.041,67.321,-14.465,1
3.121225,0.977,0.779,-0.172,119.323,67.932,-16.967,1
3.128907,0.958,0.761,-0.17,120.91,68.115,-18.737,1
3.136479,0.945,0.75,-0.169,124.938,69.03,-20.324,1
3.146073,0.916,0.73,-0.186,127.502,69.458,-21.911,1
3.153009,0.883,0.683,-0.211,118.591,70.373,-21.362,1
3.16095,0.878,0.705,-0.25,109.497,73.12,-23.01,1
3.170786,0.825,0.737,-0.293,97.351,73.73,-24.353,1
3.177483,0.81,0.755,-0.318,98.083,75.744,-27.282,1
3.186357,0.813,0.761,-0.365,109.252,74.584,-29.541,1
3.194457,0.816,0.729,-0.423,125.488,74.157,-31.005,1
3.203853,0.835,0.719,-0.455,135.925,72.509,-32.226,1
3.211242,0.832,0.709,-0.489,143.615,72.631,-32.287,1
3.219463,0.835,0.738,-0.505,150.512,71.35,-33.02,1
3.227561,0.784,0.766,-0.525,168.823,70.007,-33.264,1
3.235262,0.767,0.742,-0.594,187.255,66.345,-33.752,1
3.243357,0.797,0.696,-0.602,183.776,64.575,-33.996,1
3.252164,0.795,0.737,-0.664,168.457,65.673,-34.79,1
3.259437,0.713,0.754,-0.676,160.217,63.476,-35.827,1
3.267118,0.733,0.748,-0.73,158.203,62.377,-36.315,1
3.276586,0.737,0.748,-0.73,162.536,58.959,-37.414,1
3.284128,0.723,0.734,-0.75,168.029,56.701,-37.719,1
3.291062,0.729,0.704,-0.743,170.654,54.443,-38.085,1
3.299815,0.705,0.672,-0.732,169.921,52.734,-38.269,1
3.308582,0.74,0.64,-0.723,167.236,51.269,-38.391,1
3.316146,0.719,0.604,-0.702,162.292,49.499,-38.146,1
3.324285,0.731,0.585,-0.685,161.071,48.034,-37.231,1
3.331827,0.725,0.568,-0.684,160.034,46.63,-36.376,1
3.338979,0.709,0.555,-0.68,155.944,45.959,-35.766,1
3.347059,0.71,0.537,-0.693,148.315,45.288,-35.095,1
3.355715,0.735,0.532,-0.69,139.465,44.738,-34.362,1
3.363671,0.746,0.538,-0.691,134.033,43.884,-33.63,1
3.370938,0.751,0.542,-0.693,134.521,42.48,-32.958,1
3.379813,0.76,0.523,-0.694,135.986,41.748,-32.531,1
3.387294,0.773,0.5,-0.686,131.469,40.893,-31.249,1
3.395854,0.803,0.5,-0.666,129.882,39.245,-29.724,1
3.402772,0.816,0.495,-0.644,129.15,38.513,-28.32,1
3.411616,0.817,0.504,-0.612,129.943,36.743,-26.977,1
3.417939,0.816,0.517,-0.599,131.225,35.705,-25.329,1
3.426246,0.81,0.529,-0.578,131.896,34.423,-24.108,1
3.435008,0.77,0.537,-0.572,129.455,33.935,-23.071,1
3.442368,0.761,0.537,-0.565,122.192,33.691,-22.705,1
3.451464,0.747,0.521,-0.565,107.727,35.095,-22.46,1
3.458423,0.719,0.518,-0.564,87.89,35.522,-22.338,1
3.465763,0.732,0.526,-0.574,72.509,36.254,-22.521,1
3.476468,0.73,0.533,-0.543,67.382,35.644,-23.01,1
3.483211,0.783,0.53,-0.565,73.913,32.958,-23.986,1
3.492153,0.762,0.523,-0.508,84.228,31.372,-24.108,1
3.500053,0.77,0.498,-0.513,91.308,29.663,-22.888,1
3.507718,0.786,0.498,-0.472,95.214,28.93,-21.728,1
3.51609,0.766,0.498,-0.45,96.801,29.174,-20.629,1
3.525317,0.775,0.488,-0.437,92.59,29.846,-19.653,1
3.532898,0.784,0.479,-0.439,83.618,31.005,-18.92,1
3.540929,0.775,0.484,-0.431,71.899,32.531,-18.249,1
3.549553,0.757,0.491,-0.44,64.27,33.386,-17.7,1
3.559125,0.743,0.495,-0.451,63.659,33.142,-17.7,1
3.566517,0.736,0.482,-0.458,69.824,32.104,-17.7,1
3.573757,0.738,0.469,-0.451,76.171,31.249,-17.578,1
3.582439,0.739,0.461,-0.44,81.787,30.09,-16.601,1
3.590857,0.742,0.451,-0.431,86.486,29.418,-15.991,1
3.597353,0.745,0.433,-0.43,90.026,28.442,-14.343,1
3.60676,0.744,0.42,-0.425,89.843,28.381,-13.0,1
3.615902,0.75,0.419,-0.426,85.998,28.625,-10.864,1
3.62359,0.752,0.423,-0.423,82.397,29.052,-8.972,1
3.631205,0.747,0.431,-0.427,77.758,30.029,-7.568,1
3.639022,0.75,0.437,-0.433,72.998,30.456,-6.652,1
3.647774,0.753,0.446,-0.433,67.871,30.822,-5.92,1
3.657439,0.76,0.44,-0.439,62.133,31.066,-5.004,1
3.664269,0.752,0.441,-0.439,53.466,31.616,-4.028,1
3.673934,0.76,0.453,-0.437,45.898,31.799,-2.746,1
3.680394,0.759,0.485,-0.441,43.273,31.677,-1.831,1
3.687815,0.755,0.529,-0.442,46.142,30.883,-0.915,1
3.696599,0.748,0.556,-0.447,52.612,29.296,-0.488,1
3.705693,0.724,0.578,-0.44,54.931,28.93,-0.305,1
3.713293,0.73,0.624,-0.455,52.612,28.869,-0.549,1
3.721496,0.727,0.664,-0.46,49.621,28.625,-1.464,1
3.728925,0.729,0.709,-0.471,51.391,27.465,-2.99,1
3.73688,0.741,0.723,-0.488,54.626,26.489,-4.455,1
3.746135,0.741,0.712,-0.501,53.955,25.329,-6.225,1
3.752482,0.759,0.692,-0.515,48.645,25.085,-7.69,1
3.761734,0.75,0.682,-0.509,40.344,24.353,-8.911,1
3.768272,0.802,0.67,-0.511,31.616,23.925,-10.375,1
3.776182,0.805,0.681,-0.505,25.939,23.193,-11.169,1
3.785628,0.812,0.688,-0.5,26.062,22.094,-12.207,1
3.792544,0.841,0.682,-0.483,31.799,19.897,-13.244,1
3.799949,0.843,0.682,-0.481,41.687,17.761,-13.854,1
3.808989,0.847,0.702,-0.462,59.875,15.319,-14.587,1
3.817666,0.809,0.722,-0.449,92.224,13.183,-15.38,1
3.825132,0.799,0.627,-0.446,103.576,9.033,-16.296,1
3.834367,0.784,0.583,-0.428,98.876,10.925,-16.723,1
3.843719,0.787,0.555,-0.416,82.885,10.864,-17.15,1
3.85068,0.791,0.531,-0.378,57.556,13.671,-17.639,1
3.857659,0.764,0.527,-0.358,35.217,15.014,-18.493,1
3.865269,0.775,0.5,-0.335,15.38,16.601,-18.554,1
3.874161,0.833,0.526,-0.328,-2.258,18.066,-19.226,1
3.883224,0.845,0.586,-0.307,-2.807,17.822,-20.08,1
3.89059,0.904,0.624,-0.31,10.864,16.845,-21.057,1
3.899847,0.979,0.64,-0.322,28.564,15.747,-22.094,1
3.907414,1.007,0.628,-0.35,35.278,15.93,-23.254,1
3.914839,1.025,0.612,-0.354,28.442,17.395,-24.414,1
3.923543,1.047,0.588,-0.365,14.953,20.08,-25.39,1
3.931248,1.045,0.639,-0.356,4.577,22.094,-26.367,1
3.938506,1.056,0.645,-0.344,-5.31,23.559,-28.137,1
3.947245,1.023,0.701,-0.302,-3.54,24.719,-29.785,1
3.954908,0.974,0.747,-0.291,7.934,24.841,-31.127,1
3.964025,0.925,0.772,-0.27,21.24,23.132,-33.203,1
3.972831,0.891,0.783,-0.264,32.409,23.803,-35.766,1
3.980582,0.874,0.8,-0.278,33.508,23.803,-38.879,1
3.987672,0.837,0.792,-0.282,33.203,24.597,-41.748,1
3.996646,0.84,0.797,-0.27,36.132,26.123,-45.166,1
4.004682,0.811,0.786,-0.284,36.01,26.489,-48.278,1
4.013413,0.79,0.773,-0.291,33.203,28.625,-51.635,1
4.022498,0.827,0.77,-0.318,32.592,28.564,-54.443,1
4.030214,0.845,0.781,-0.32,35.644,28.442,-57.006,1
4.037316,0.864,0.795,-0.347,37.292,27.587,-59.387,1
4.046364,0.884,0.79,-0.363,32.897,27.16,-61.279,1
4.053219,0.91,0.808,-0.36,29.541,26.855,-63.476,1
4.061259,0.903,0.834,-0.36,30.517,26.367,-65.795,1
4.068601,0.883,0.851,-0.35,31.799,25.573,-68.603,1
4.077982,0.869,0.847,-0.339,28.991,25.573,-72.143,1
4.085609,0.875,0.843,-0.324,25.451,26.0,-75.5,1
4.094302,0.885,0.814,-0.306,23.071,26.0,-79.345,1
4.103131,0.92,0.777,-0.287,23.681,25.878,-83.374,1
4.110338,0.933,0.753,-0.265,28.015,25.573,-86.364,1
4.118801,0.957,0.724,-0.266,32.775,25.085,-88.928,1
4.125959,0.988,0.702,-0.279,33.752,24.78,-91.369,1
4.133266,1.011,0.697,-0.308,31.494,25.695,-93.872,1
4.140791,1.029,0.725,-0.356,26.367,26.0,-97.351,1
4.149458,1.093,0.752,-0.39,24.536,25.451,-101.745,1
4.156282,1.153,0.754,-0.434,22.521,24.658,-106.628,1
4.164386,1.149,0.755,-0.468,18.92,23.01,-112.487,1
4.172303,1.169,0.746,-0.478,21.362,21.057,-118.103,1
4.180325,1.195,0.706,-0.5,22.888,19.775,-124.267,1
4.188112,1.207,0.707,-0.54,18.005,20.08,-129.394,1
4.195796,1.165,0.744,-0.599,15.686,20.019,-134.094,1
4.204319,1.169,0.81,-0.648,24.597,18.615,-139.465,1
4.21236,1.151,0.83,-0.686,37.17,16.357,-145.202,1
4.221011,1.141,0.842,-0.712,42.114,14.892,-149.841,1
4.228844,1.12,0.852,-0.72,53.344,11.596,-154.052,1
4.23755,1.081,0.839,-0.725,61.706,9.521,-157.104,1
4.246654,1.055,0.815,-0.699,69.091,6.286,-159.423,1
4.254781,0.987,0.821,-0.647,66.894,5.493,-160.644,1
4.261849,0.875,0.897,-0.586,60.852,5.432,-162.048,1
4.270549,0.814,0.945,-0.535,61.157,5.004,-163.269,1
4.279467,0.716,0.98,-0.496,55.969,5.92,-165.405,1
4.287679,0.609,1.028,-0.457,53.222,5.493,-168.518,1
4.294857,0.52,1.02,-0.376,60.119,4.821,-171.264,1
4.302437,0.445,0.973,-0.3,56.823,6.347,-174.072,1
4.310139,0.407,0.949,-0.21,52.246,7.69,-176.513,1
4.320309,0.4,0.919,-0.162,52.307,10.62,-178.344,1
4.327667,0.344,0.877,-0.176,41.748,13.183,-180.053,1
4.336447,0.326,0.876,-0.186,35.339,15.38,-181.335,1
4.34555,0.304,0.831,-0.204,39.672,15.197,-183.471,1
4.352891,0.302,0.735,-0.192,38.757,16.54,-184.814,1
4.361446,0.293,0.678,-0.186,36.499,18.066,-185.913,1
4.369004,0.289,0.614,-0.154,44.86,19.042,-186.706,1
4.376593,0.306,0.509,-0.145,49.072,21.484,-187.072,1
4.385406,0.312,0.407,-0.167,41.564,25.024,-187.072,1
4.394705,0.296,0.372,-0.196,41.259,27.648,-186.584,1
4.401819,0.255,0.254,-0.229,39.916,30.517,-185.913,1
4.410534,0.204,0.192,-0.276,27.526,34.423,-185.607,1
4.41891,0.166,0.137,-0.316,27.16,36.376,-185.546,1
4.426907,0.131,-0.003,-0.38,24.353,38.452,-185.302,1
4.434997,0.105,-0.108,-0.407,21.972,40.039,-184.936,1
4.442782,0.118,-0.287,-0.412,22.949,41.809,-183.471,1
4.451611,0.049,-0.416,-0.393,21.118,44.006,-180.969,1
4.459613,-0.002,-0.483,-0.398,15.624,47.119,-178.344,1
4.469393,-0.04,-0.562,-0.428,-3.54,51.208,-175.17,1
4.477822,-0.108,-0.619,-0.419,-9.033,53.405,-172.241,1
4.485085,-0.167,-0.696,-0.449,-15.38,55.175,-169.311,1
4.493825,-0.237,-0.797,-0.43,-18.798,56.274,-166.32,1
4.503415,-0.319,-0.943,-0.427,-17.639,58.105,-162.78,1
4.51019,-0.373,-1.118,-0.416,-23.071,58.654,-158.508,1
4.518844,-0.399,-1.278,-0.355,-20.446,59.265,-153.442,1
4.526825,-0.421,-1.513,-0.257,-15.808,60.729,-145.812,1
4.536584,-0.42,-1.712,-0.153,-19.226,64.636,-136.901,1
4.543781,-0.451,-1.918,-0.032,-21.484,70.068,-124.267,1
4.55215,-0.562,-2.124,0.034,-34.423,77.453,-111.511,1
4.561718,-0.633,-2.239,0.121,-40.588,83.984,-95.336,1
4.570262,-0.773,-2.408,0.2,-34.79,90.576,-79.467,1
4.57728,-0.938,-2.614,0.273,-40.1,101.318,-58.715,1
4.587543,-1.1,-2.766,0.302,-38.269,111.572,-35.522,1
4.596637,-1.366,-2.89,0.333,-16.296,119.506,-9.948,1
4.605733,-1.703,-3.01,0.325,-9.216,130.004,18.493,1
4.612642,-2.097,-2.996,0.31,-30.395,144.226,48.706,1
4.621584,-2.436,-2.938,0.315,-45.654,156.738,79.223,1
4.629012,-2.789,-2.889,0.365,-44.677,168.457,106.262,1
4.636608,-3.186,-2.81,0.379,-45.349,183.654,138.793,1
4.644211,-3.539,-2.717,0.427,-44.982,197.204,166.503,1
4.652622,-3.925,-2.622,0.471,-35.583,212.28,196.166,1
4.659768,-4.356,-2.526,0.484,-25.512,227.111,226.928,1
4.670006,-4.772,-2.459,0.518,-5.859,242.37,259.643,1
4.677452,-5.391,-2.507,0.522,15.258,261.657,303.039,1
4.684292,-5.93,-2.591,0.495,37.841,279.541,345.825,1
4.694206,-6.714,-2.839,0.411,15.869,305.175,401.855,1
4.704372,-7.936,-2.962,0.266,-79.467,348.51,471.313,1
4.711065,-9.258,-2.895,0.176,-145.08,387.39,523.498,1
4.720188,-11.18,-2.779,-0.031,-190.917,432.617,584.289,1
4.729516,-13.119,-2.834,-0.142,-205.993,479.125,638.061,1
4.737972,-15.494,-3.018,-0.532,-211.73,531.616,707.336,1
4.744928,-15.994,-3.117,-0.906,-125.549,577.209,786.682,1
4.75562,-15.999,-3.382,-1.605,-3.479,600.219,881.713,1
4.763096,-15.999,-3.466,-2.399,108.642,603.881,994.506,1
4.772015,-15.999,-3.171,-3.308,267.028,568.542,1122.436,1
4.780657,-15.999,-2.735,-4.014,425.109,496.887,1243.286,1
4.789551,-15.999,-1.875,-4.704,600.158,359.619,1387.634,1
4.796845,-15.999,-0.558,-4.558,713.5,165.039,1521.911,1
4.804562,-15.999,1.167,-4.089,818.664,-67.81,1627.075,1
4.814538,-15.999,2.779,-3.115,876.708,-297.241,1679.565,1
4.823403,-15.999,4.55,-1.764,897.338,-565.002,1691.833,1
4.830747,-15.999,6.011,-0.373,870.178,-789.855,1658.08,1
4.837493,-15.999,7.462,1.463,933.654,-1065.246,1572.814,1
4.845506,-15.999,8.251,3.585,1131.164,-1321.166,1436.95,1
4.853794,-15.999,8.333,5.817,1353.454,-1594.36,1229.919,1
4.862244,-15.999,8.483,8.152,1717.04,-1845.886,955.505,1
4.868857,-15.999,8.436,9.145,1999.999,-1999.938,525.39,1
4.87645,-15.999,6.881,8.483,1999.999,-1999.572,-26.184,1
4.884686,-15.999,4.319,7.058,1999.999,-1922.18,-646.667,1
4.893046,-15.999,3.177,6.596,1510.864,-1585.998,-985.595,1
4.901721,-15.999,2.496,5.727,704.04,-1288.391,-1141.723,1
4.910154,-15.999,2.821,5.741,409.118,-1112.548,-1175.72,1
4.918595,-15.999,2.515,5.298,484.985,-1003.356,-1195.678,1
4.925599,-15.999,1.143,4.919,704.284,-861.938,-1227.661,1
4.93584,-15.999,-0.446,4.532,746.337,-660.827,-1247.985,1
4.94502,-15.999,-1.622,3.885,674.377,-496.948,-1246.276,1
4.953432,-15.999,-2.934,3.575,561.279,-317.688,-1201.11,1
4.962432,-15.999,-3.323,3.261,526.916,-207.702,-1145.263,1
4.96945,-15.999,-3.758,3.0,571.35,-82.397,-1055.786,1
4.97727,-15.999,-4.514,2.489,549.743,13.244,-980.712,1
4.985844,-15.999,-5.089,2.115,475.28,90.942,-893.005,1
4.9951,-14.659,-5.16,1.77,450.378,168.457,-781.921,1
5.003522,-12.218,-5.158,1.121,440.551,215.454,-686.828,1
5.011529,-10.581,-4.877,0.618,387.145,260.742,-579.162,1
5.018703,-9.289,-4.336,0.137,310.485,282.714,-484.374,1
5.028891,-8.214,-3.891,-0.1,276.062,294.616,-411.499,1
5.037275,-6.97,-3.381,-0.443,257.263,292.358,-335.632,1
5.045452,-6.214,-3.037,-0.571,233.52,289.672,-268.493,1
5.053567,-5.449,-2.662,-0.687,207.946,278.32,-209.899,1
5.062248,-4.891,-2.367,-0.715,180.053,271.728,-165.283,1
5.070624,-4.461,-2.157,-0.716,136.169,260.62,-120.849,1
5.07954,-4.02,-1.951,-0.666,111.083,252.441,-87.829,1
5.088238,-3.462,-1.702,-0.626,99.548,238.22,-54.321,1
5.097514,-3.13,-1.518,-0.548,104.919,224.731,-26.0,1
5.105138,-2.759,-1.337,-0.49,111.022,210.815,-1.647,1
5.113677,-2.411,-1.105,-0.4,117.309,198.547,18.615,1
5.122716,-2.167,-0.948,-0.343,122.436,185.913,35.705,1
5.130076,-1.92,-0.833,-0.273,124.267,176.391,47.973,1
5.13771,-1.699,-0.752,-0.243,128.112,164.123,60.241,1
5.145996,-1.517,-0.72,-0.189,126.708,155.822,69.335,1
5.156341,-1.377,-0.702,-0.186,110.29,147.155,77.697,1
5.164682,-1.198,-0.663,-0.154,95.336,140.502,84.106,1
5.171759,-1.009,-0.663,-0.18,86.12,132.08,89.172,1
5.18144,-0.865,-0.688,-0.167,83.129,124.755,93.566,1
5.188766,-0.696,-0.684,-0.18,88.012,115.295,98.449,1
5.198222,-0.585,-0.688,-0.158,97.29,105.529,103.454,1
5.206846,-0.501,-0.674,-0.165,105.773,97.167,107.727,1
5.215097,-0.327,-0.645,-0.143,118.347,86.181,112.548,1
5.223304,-0.183,-0.576,-0.128,119.689,77.331,116.943,1
5.23054,-0.136,-0.469,-0.086,122.558,69.335,119.14,1
5.23981,-0.132,-0.31,-0.031,134.46,60.607,119.75,1
5.247464,-0.16,-0.241,0.019,147.766,51.818,119.506,1
5.256243,-0.083,-0.235,0.059,158.935,44.067,118.347,1
5.263453,0.08,-0.305,0.083,152.587,36.987,117.309,1
5.27085,0.175,-0.345,0.102,130.065,34.729,116.821,1
5.279775,0.24,-0.317,0.115,106.201,30.761,115.417,1
5.286803,0.307,-0.285,0.15,108.093,26.611,114.868,1
5.294263,0.364,-0.289,0.14,118.103,21.301,113.769,1
5.303141,0.489,-0.28,0.163,125.976,15.747,112.915,1
5.310564,0.548,-0.223,0.21,130.432,11.291,112.854,1
5.319233,0.563,-0.163,0.263,134.643,7.507,111.877,1
5.327018,0.601,-0.083,0.32,144.531,4.699,110.595,1
5.334806,0.647,-0.009,0.378,162.353,1.159,108.459,1
5.342324,0.714,0.044,0.426,177.246,-2.014,106.75,1
5.349811,0.723,0.084,0.47,187.561,-4.455,104.431,1
5.357862,0.733,0.097,0.518,185.791,-5.432,102.539,1
5.365263,0.812,0.113,0.552,173.706,-4.638,100.646,1
5.374112,0.866,0.105,0.571,155.029,-3.356,98.571,1
5.382311,0.948,0.094,0.615,138.122,-2.197,96.679,1
5.390073,0.999,0.097,0.653,133.728,-1.403,95.886,1
5.398423,1.043,0.127,0.669,135.07,-1.22,95.52,1
5.405846,1.01,0.202,0.697,141.174,-1.525,95.092,1
5.412878,0.968,0.265,0.714,153.32,-2.319,93.261,1
5.421374,0.961,0.305,0.727,163.452,-2.197,91.308,1
5.429042,1.031,0.327,0.754,169.311,-2.075,89.233,1
5.437685,1.033,0.351,0.77,171.508,0.305,86.975,1
5.445181,1.025,0.366,0.764,167.358,2.258,84.716,1
5.453344,1.0,0.376,0.763,159.79,5.615,82.397,1
5.461501,0.99,0.378,0.743,153.137,7.995,80.017,1
5.469215,1.015,0.36,0.729,150.146,10.253,78.063,1
5.476848,1.029,0.331,0.702,146.911,12.634,76.66,1
5.485985,1.013,0.324,0.668,141.906,14.831,74.89,1
5.493696,0.988,0.338,0.623,141.113,16.296,73.242,1
5.502736,0.983,0.337,0.579,143.676,17.028,71.472,1
5.510666,1.024,0.342,0.535,145.812,17.211,70.007,1
5.517269,1.029,0.353,0.534,153.93,16.601,68.664,1
5.525475,1.042,0.366,0.509,160.827,17.211,67.504,1
5.532998,1.038,0.354,0.487,165.1,17.333,66.04,1
5.540622,1.05,0.358,0.486,168.395,18.31,64.086,1
5.548126,1.098,0.309,0.444,175.048,18.554,63.171,1
5.556008,1.08,0.278,0.418,169.738,19.104,63.049,1
5.564714,1.098,0.285,0.415,163.269,20.629,62.622,1
5.572518,1.025,0.324,0.379,153.747,22.216,62.377,1
5.580191,0.97,0.364,0.354,147.155,22.583,60.974,1
5.588154,0.958,0.373,0.33,142.272,23.437,59.631,1
5.59693,0.973,0.375,0.284,135.803,24.169,58.044,1
5.604373,0.985,0.378,0.259,130.371,25.207,55.603,1
5.612806,0.971,0.397,0.257,130.798,26.184,53.71,1
5.620262,0.951,0.408,0.234,134.582,27.221,51.696,1
5.62728,0.943,0.412,0.219,138.427,27.526,49.56,1
5.635468,0.955,0.399,0.187,140.625,28.259,47.607,1
5.643156,0.975,0.39,0.173,140.502,28.808,46.142,1
5.649886,0.989,0.377,0.16,139.16,29.418,44.982,1
5.659059,0.985,0.38,0.151,139.648,29.174,44.067,1
5.664486,0.968,0.385,0.15,143.127,28.991,43.762,1
5.671989,0.941,0.386,0.135,146.606,28.381,42.968,1
5.679422,0.928,0.38,0.12,146.85,27.954,42.541,1
5.688463,0.916,0.386,0.111,143.066,27.954,41.748,1
5.696278,0.899,0.391,0.115,137.878,28.686,40.649,1
5.702374,0.869,0.395,0.098,131.958,30.273,39.123,1
5.710011,0.881,0.389,0.084,125.976,31.127,37.231,1
5.71868,0.92,0.368,0.081,120.605,32.165,36.132,1
5.726553,0.971,0.358,0.067,117.492,33.752,34.973,1
5.733417,0.99,0.348,0.056,117.187,34.057,34.484,1
5.741843,1.003,0.347,0.05,118.835,35.034,34.301,1
5.747593,1.012,0.354,0.034,122.375,35.034,33.996,1
5.756511,1.0,0.358,0.022,126.647,34.423,33.813,1
5.763684,0.986,0.368,0.018,131.958,34.057,33.691,1
5.771471,0.968,0.378,0.016,136.657,33.386,33.569,1
5.77849,0.955,0.374,0.011,138.183,33.081,33.447,1
5.78758,0.94,0.377,0.002,137.146,33.813,32.836,1
5.795841,0.925,0.39,-0.006,133.911,35.156,31.494,1
5.802704,0.916,0.391,-0.011,130.31,36.926,30.822,1
5.81008,0.927,0.38,-0.031,125.122,38.696,29.541,1
5.81807,0.954,0.371,-0.036,119.384,40.771,28.93,1
5.827241,0.978,0.368,-0.037,113.525,42.785,28.381,1
5.833561,0.98,0.384,-0.041,110.717,44.616,27.648,1
5.841829,0.989,0.388,-0.053,110.595,45.349,26.916,1
5.851474,0.986,0.389,-0.052,111.328,45.898,26.855,1
5.8569,0.983,0.394,-0.055,112.976,46.142,26.855,1
5.865322,0.968,0.397,-0.066,116.271,46.874,26.55,1
5.872993,0.984,0.408,-0.079,121.826,46.997,26.55,1
5.879859,0.996,0.43,-0.083,130.065,46.997,26.306,1
5.888964,0.98,0.451,-0.095,139.587,47.546,26.0,1
5.896363,0.965,0.465,-0.103,146.362,48.583,25.451,1
5.903375,0.937,0.485,-0.127,147.888,50.17,24.902,1
5.91096,0.909,0.5,-0.141,144.409,52.124,24.169,1
5.91973,0.888,0.52,-0.164,139.343,54.321,22.888,1
5.927067,0.869,0.577,-0.181,138.488,55.358,21.972,1
5.935744,0.876,0.541,-0.206,131.958,55.541,21.057,1
5.943427,0.87,0.55,-0.223,121.398,56.701,20.629,1
5.950302,0.875,0.562,-0.241,114.868,56.396,20.08,1
5.957971,0.876,0.576,-0.246,113.342,56.64,19.348,1
5.966602,0.881,0.588,-0.259,116.088,55.48,18.493,1
5.973787,0.891,0.594,-0.255,122.009,55.48,17.7,1
5.981393,0.884,0.596,-0.261,128.967,55.419,16.479,1
5.98947,0.882,0.591,-0.265,133.422,56.518,15.38,1
5.997041,0.883,0.589,-0.273,133.483,57.861,14.404,1
6.004486,0.88,0.602,-0.286,129.943,60.18,13.061,1
6.011756,0.869,0.617,-0.293,126.22,61.889,12.329,1
6.02194,0.86,0.625,-0.306,120.666,64.025,10.925,1
6.029111,0.856,0.635,-0.325,113.22,66.223,8.85,1
6.036614,0.874,0.635,-0.333,108.764,67.443,7.751,1
6.044361,0.888,0.631,-0.341,103.82,68.359,6.713,1
6.051599,0.894,0.62,-0.345,98.388,68.908,5.432,1
6.060472,0.901,0.612,-0.344,98.632,68.542,4.699,1
6.067913,0.914,0.601,-0.341,102.661,67.749,4.028,1
6.075563,0.885,0.597,-0.344,107.238,67.382,3.784,1
6.084452,0.884,0.598,-0.347,112.304,66.772,3.479,1
6.092462,0.881,0.607,-0.366,116.699,66.101,3.295,1
6.099707,0.899,0.635,-0.385,124.755,65.124,2.319,1
6.107401,0.882,0.66,-0.388,132.568,64.453,1.831,1
6.114933,0.862,0.689,-0.39,139.587,64.147,1.22,1
6.12242,0.845,0.707,-0.38,144.226,63.842,0.549,1
6.130245,0.83,0.716,-0.369,143.188,64.941,-0.488,1
6.139622,0.8,0.721,-0.362,136.23,66.528,-1.586,1
6.147234,0.794,0.728,-0.355,120.544,69.396,-2.807,1
6.155918,0.8,0.744,-0.36,110.961,71.166,-4.028,1
6.1633,0.808,0.754,-0.366,107.543,72.143,-5.371,1
6.171216,0.815,0.776,-0.376,111.755,72.204,-6.958,1
6.180411,0.814,0.771,-0.389,122.741,71.044,-8.422,1
6.187927,0.8,0.766,-0.403,132.568,70.251,-9.582,1
6.197162,0.787,0.759,-0.412,138.549,69.335,-9.948,1
6.204357,0.805,0.755,-0.415,141.601,68.786,-10.681,1
6.211839,0.777,0.764,-0.422,139.404,68.542,-10.803,1
6.220705,0.759,0.782,-0.435,131.835,68.908,-11.962,1
6.22976,0.725,0.798,-0.454,116.699,69.458,-13.488,1
6.2365,0.719,0.806,-0.482,100.769,70.068,-14.892,1
6.246036,0.729,0.824,-0.516,88.134,70.434,-16.174,1
6.253117,0.74,0.835,-0.541,77.331,69.824,-18.127,1
6.261516,0.776,0.849,-0.575,73.181,68.237,-20.019,1
6.26806,0.748,0.862,-0.594,76.049,66.467,-21.728,1
6.277127,0.765,0.839,-0.628,79.223,64.331,-23.071,1
6.284239,0.775,0.827,-0.647,81.726,61.523,-24.597,1
6.291838,0.794,0.793,-0.669,81.42,59.204,-26.55,1
6.300552,0.754,0.68,-0.68,65.917,58.044,-26.184,1
6.309806,0.756,0.69,-0.699,44.616,59.265,-26.55,1
6.316992,0.752,0.654,-0.712,2.624,58.898,-25.024,1
6.325471,0.79,0.777,-0.716,-2.685,61.523,-27.648,1
6.332757,0.709,0.882,-0.695,40.588,53.588,-33.508,1
6.341332,0.826,0.842,-0.745,99.731,50.231,-36.132,1
6.348151,0.776,0.796,-0.771,135.925,42.358,-40.405,1
6.355388,0.783,0.697,-0.742,141.723,43.701,-41.87,1
6.363718,0.831,0.701,-0.779,135.009,41.076,-44.067,1
6.372499,0.778,0.598,-0.696,124.877,42.114,-45.043,1
6.380658,0.896,0.655,-0.709,107.36,44.372,-44.921,1
6.387647,0.839,0.683,-0.688,111.145,41.137,-47.302,1
6.396964,0.832,0.646,-0.688,124.877,39.794,-47.912,1
6.404218,0.848,0.629,-0.701,131.286,37.597,-48.217,1
6.411412,0.83,0.635,-0.711,131.835,35.827,-48.828,1
6.421198,0.826,0.639,-0.719,128.234,34.912,-49.133,1
6.42789,0.828,0.647,-0.735,121.582,33.752,-49.987,1
6.436588,0.824,0.651,-0.744,116.882,32.348,-50.598,1
6.445302,0.832,0.652,-0.735,117.98,30.761,-51.33,1
6.451745,0.841,0.641,-0.719,123.657,28.625,-51.513,1
6.460579,0.85,0.639,-0.691,133.544,27.038,-51.513,1
6.467976,0.857,0.634,-0.665,144.531,25.573,-51.391,1
6.475487,0.863,0.629,-0.64,154.174,24.597,-50.842,1
6.485498,0.865,0.634,-0.616,159.545,24.475,-50.354,1
6.493177,0.859,0.629,-0.597,156.494,25.207,-50.354,1
6.502126,0.868,0.635,-0.583,143.127,26.55,-50.231,1
6.50936,0.848,0.646,-0.574,129.089,27.587,-50.598,1
6.516879,0.862,0.648,-0.56,116.149,28.137,-50.781,1
6.524458,0.853,0.637,-0.54,108.581,27.954,-50.964,1
6.533696,0.847,0.616,-0.527,103.881,28.259,-50.659,1
6.540658,0.842,0.6,-0.507,99.792,27.893,-51.269,1
6.549258,0.805,0.579,-0.49,96.618,28.137,-51.391,1
6.556693,0.787,0.577,-0.473,96.496,28.076,-51.269,1
6.565404,0.76,0.576,-0.449,100.097,27.587,-51.879,1
6.57341,0.768,0.562,-0.439,105.346,27.526,-52.246,1
6.580583,0.737,0.547,-0.43,105.895,27.221,-52.307,1
6.588763,0.726,0.525,-0.422,101.196,27.587,-52.856,1
6.595642,0.703,0.506,-0.417,91.918,28.381,-52.734,1
6.603532,0.694,0.504,-0.411,78.613,29.968,-52.978,1
6.61183,0.707,0.505,-0.398,69.946,30.822,-53.039,1
6.619024,0.71,0.497,-0.384,62.744,31.86,-53.405,1
6.627483,0.694,0.484,-0.375,58.227,32.592,-53.649,1
6.634467,0.704,0.468,-0.382,50.781,33.874,-53.771,1
6.6418,0.707,0.44,-0.378,40.527,34.24,-53.894,1
6.650632,0.699,0.444,-0.372,33.447,36.56,-53.527,1
6.65805,0.714,0.443,-0.384,26.794,36.193,-53.344,1
6.665508,0.73,0.443,-0.38,24.841,37.597,-52.978,1
6.674414,0.733,0.453,-0.397,23.498,37.048,-53.466,1
6.682515,0.728,0.46,-0.394,23.62,37.17,-53.344,1
6.689991,0.716,0.467,-0.404,24.597,37.353,-53.955,1
6.699048,0.708,0.474,-0.402,27.038,36.743,-54.626,1
6.705762,0.71,0.487,-0.41,31.494,37.475,-55.175,1
6.7151,0.707,0.486,-0.436,33.813,36.743,-55.786,1
6.721544,0.716,0.49,-0.443,35.583,37.109,-56.518,1
6.730927,0.719,0.482,-0.465,37.963,36.682,-56.823,1
6.738285,0.742,0.46,-0.472,36.56,36.682,-57.128,1
6.747588,0.747,0.439,-0.487,30.456,37.048,-56.762,1
6.75617,0.764,0.443,-0.491,24.841,36.682,-56.64,1
6.763977,0.756,0.441,-0.493,24.169,36.682,-56.64,1
6.772746,0.768,0.416,-0.512,21.545,36.193,-57.006,1
6.779898,0.776,0.393,-0.522,15.624,36.376,-57.312,1
6.787707,0.781,0.378,-0.535,8.239,36.01,-57.678,1
6.796227,0.764,0.359,-0.531,2.868,35.827,-58.044,1
6.803893,0.746,0.358,-0.532,6.164,34.606,-58.044,1
6.810619,0.754,0.346,-0.528,15.563,32.714,-58.349,1
6.819625,0.742,0.312,-0.531,28.747,30.944,-58.41,1
6.82727,0.759,0.28,-0.54,35.156,30.09,-58.41,1
6.834443,0.754,0.25,-0.541,35.644,29.663,-57.922,1
6.84218,0.738,0.231,-0.537,30.334,30.029,-57.434,1
6.850402,0.741,0.223,-0.541,22.399,30.273,-57.067,1
6.857976,0.737,0.22,-0.539,14.465,30.761,-57.067,1
6.86602,0.741,0.216,-0.533,10.62,30.517,-56.823,1
6.874462,0.753,0.223,-0.536,9.887,30.517,-56.762,1
6.882997,0.753,0.229,-0.532,12.39,29.846,-57.067,1
6.888801,0.751,0.235,-0.528,16.235,29.296,-56.823,1
6.897102,0.743,0.238,-0.526,20.935,28.442,-56.823,1
6.90627,0.742,0.239,-0.526,25.085,28.259,-56.884,1
6.914746,0.749,0.232,-0.532,26.855,28.076,-57.006,1
6.92173,0.747,0.215,-0.526,24.78,28.259,-56.945,1
6.92895,0.764,0.199,-0.526,20.324,28.686,-57.067,1
6.938091,0.783,0.197,-0.519,17.7,28.686,-56.762,1
6.946356,0.75,0.187,-0.51,20.324,27.77,-56.518,1
6.954443,0.729,0.202,-0.477,40.832,26.428,-55.114,1
6.96127,0.704,0.178,-0.495,73.73,23.071,-53.71,1
6.970365,0.826,0.182,-0.529,99.304,21.972,-53.161,1
6.979036,0.789,0.141,-0.529,98.327,21.362,-52.307,1
6.98591,0.774,0.12,-0.558,83.19,22.949,-50.72,1
6.994881,0.668,0.076,-0.572,59.143,23.498,-48.889,1
7.001435,0.749,0.116,-0.579,25.024,27.709,-47.546,1
7.011879,0.785,0.18,-0.586,5.676,26.367,-47.729,1
7.020209,0.769,0.195,-0.585,4.272,27.587,-48.095,1
7.029086,0.719,0.22,-0.572,11.779,24.902,-48.278,1
7.037398,0.747,0.191,-0.581,23.986,24.169,-48.217,1
7.04461,0.776,0.158,-0.566,31.799,23.071,-48.339,1
7.05368,0.743,0.149,-0.57,37.536,20.019,-48.095,1
7.062582,0.759,0.118,-0.574,46.447,20.629,-46.936,1
7.070762,0.773,0.117,-0.569,50.109,18.188,-46.447,1
7.078001,0.795,0.1,-0.558,51.147,18.92,-46.203,1
7.08713,0.781,0.093,-0.553,46.936,17.944,-45.349,1
7.094241,0.813,0.068,-0.574,37.414,20.263,-44.616,1
7.103072,0.819,0.065,-0.609,15.869,19.836,-44.067,1
7.112537,0.854,0.08,-0.606,2.075,21.362,-43.334,1
7.119494,0.901,0.109,-0.618,2.197,20.385,-42.48,1
7.126789,0.924,0.12,-0.619,12.756,19.226,-41.87,1
7.13537,0.942,0.089,-0.642,22.094,17.456,-41.198,1
7.144307,0.998,0.054,-0.642,22.155,18.066,-39.794,1
7.151819,1.039,0.046,-0.674,15.319,18.371,-38.024,1
7.160098,1.033,0.07,-0.706,9.216,17.517,-36.193,1
7.166642,0.985,0.116,-0.722,5.737,17.578,-35.034,1
7.175639,0.951,0.168,-0.773,-1.525,17.578,-34.484,1
7.183837,0.875,0.234,-0.865,-14.343,16.418,-34.24,1
7.191365,0.707,0.347,-1.007,-27.282,14.77,-35.766,1
7.200373,0.637,0.415,-1.059,-20.202,1.708,-40.588,1
7.20771,0.634,0.389,-0.897,34.729,-3.234,-43.884,1
7.215201,0.771,0.264,-0.928,75.866,-8.422,-47.607,1
7.224637,0.81,0.073,-0.819,79.101,-8.666,-48.583,1
7.233047,0.873,0.029,-0.803,61.95,-7.507,-48.522,1
7.240343,0.892,0.038,-0.703,55.908,-8.117,-48.278,1
7.248115,0.904,0.04,-0.687,55.48,-7.995,-47.79,1
7.256553,0.869,0.04,-0.668,44.738,-9.338,-47.607,1
7.263088,0.818,0.053,-0.647,31.249,-8.056,-47.912,1
7.27359,0.782,0.069,-0.658,10.62,-6.774,-48.461,1
7.280771,0.773,0.097,-0.643,-11.108,-5.92,-49.011,1
7.288474,0.784,0.15,-0.623,-17.822,-6.774,-49.865,1
7.297321,0.777,0.182,-0.577,-9.948,-8.117,-51.33,1
7.305567,0.798,0.204,-0.541,3.417,-10.192,-52.49,1
7.313077,0.795,0.197,-0.485,19.897,-11.779,-53.894,1
7.321493,0.802,0.159,-0.446,21.423,-11.23,-54.992,1
7.328129,0.841,0.132,-0.403,8.422,-9.582,-56.091,1
7.336476,0.898,0.118,-0.352,-1.831,-6.774,-56.579,1
7.344201,0.95,0.134,-0.339,-5.798,-4.76,-56.945,1
7.351571,0.933,0.152,-0.35,-10.62,-2.868,-57.312,1
7.35951,0.9,0.18,-0.363,-16.662,-1.281,-58.105,1
7.368263,0.889,0.216,-0.371,-16.662,-1.159,-58.776,1
7.379561,0.865,0.252,-0.358,-5.371,-1.586,-60.119,1
7.386268,0.821,0.247,-0.337,7.629,-1.647,-61.889,1
7.394324,0.809,0.229,-0.327,10.62,-0.549,-64.208,1
7.402185,0.814,0.223,-0.322,10.375,1.037,-65.734,1
7.409839,0.809,0.228,-0.321,13.793,2.502,-67.443,1
7.418557,0.794,0.226,-0.328,16.418,3.601,-69.274,1
7.426577,0.791,0.218,-0.365,12.878,5.981,-71.35,1
7.433131,0.796,0.217,-0.418,4.76,7.507,-73.12,1
7.440788,0.778,0.229,-0.451,-1.77,8.422,-75.439,1
7.449567,0.753,0.216,-0.482,-5.92,9.277,-77.453,1
7.457163,0.742,0.194,-0.514,-11.047,9.826,-79.589,1
7.466791,0.757,0.158,-0.541,-12.207,9.826,-81.97,1
7.473371,0.787,0.111,-0.556,-6.469,9.033,-83.923,1
7.481473,0.804,0.047,-0.565,-1.708,8.3,-84.96,1
7.489383,0.807,0.021,-0.575,-5.859,9.399,-85.693,1
7.497446,0.812,0.009,-0.592,-11.291,8.789,-86.303,1
7.505366,0.803,-0.007,-0.583,-13.671,9.826,-86.791,1
7.514759,0.804,-0.028,-0.598,-15.258,9.887,-87.341,1
7.522643,0.795,-0.048,-0.617,-19.775,9.948,-88.012,1
7.530248,0.754,-0.05,-0.626,-20.812,9.277,-88.562,1
7.539926,0.752,-0.068,-0.624,-12.023,7.08,-89.355,1
7.547314,0.743,-0.148,-0.592,-2.319,5.249,-90.026,1
7.555372,0.739,-0.191,-0.578,4.76,4.943,-89.904,1
7.56373,0.724,-0.222,-0.548,12.268,3.662,-89.599,1
7.572092,0.713,-0.269,-0.544,16.967,3.784,-88.867,1
7.581501,0.711,-0.317,-0.531,11.657,4.15,-87.402,1
7.590087,0.687,-0.32,-0.514,3.723,5.676,-86.486,1
7.59751,0.657,-0.31,-0.523,-1.586,6.103,-85.266,1
7.606614,0.633,-0.284,-0.524,2.685,4.699,-84.716,1
7.614108,0.619,-0.295,-0.496,10.742,3.417,-84.96,1
7.623104,0.617,-0.347,-0.472,10.437,3.601,-84.594,1
7.631444,0.655,-0.409,-0.432,-4.516,4.76,-84.289,1
7.639902,0.712,-0.436,-0.42,-4.516,6.896,-83.557,1
7.64787,0.759,-0.514,-0.434,-0.427,6.53,-83.068,1
7.657221,0.802,-0.574,-0.441,-4.15,9.704,-81.054,1
7.66603,0.846,-0.597,-0.497,-12.573,10.131,-79.467,1
7.673339,0.869,-0.603,-0.526,-19.348,11.84,-77.697,1
7.682353,0.87,-0.574,-0.595,-23.315,11.291,-76.293,1
7.689991,0.918,-0.574,-0.584,-8.728,9.277,-75.012,1
7.698352,0.926,-0.615,-0.617,-0.854,8.178,-74.157,1
7.709202,0.922,-0.655,-0.615,-4.15,7.812,-72.875,1
7.717416,0.869,-0.632,-0.604,-4.272,7.995,-71.044,1
7.724039,0.851,-0.582,-0.603,0.0,7.873,-70.434,1
7.731772,0.851,-0.553,-0.611,2.685,6.347,-69.763,1
7.742621,0.825,-0.502,-0.614,-4.882,7.507,-69.458,1
7.749386,0.796,-0.398,-0.671,-18.493,8.666,-70.922,1
7.758679,0.824,-0.342,-0.709,-26.794,8.666,-72.937,1
7.766892,0.883,-0.323,-0.777,-34.973,9.704,-75.866,1
7.774674,1.002,-0.299,-0.892,-39.978,10.009,-79.589,1
7.783502,1.134,-0.292,-1.023,-38.146,8.544,-83.007,1
7.791249,1.285,-0.308,-1.202,-44.738,7.202,-86.547,1
7.799751,1.357,-0.258,-1.322,-48.828,2.563,-89.599,1
7.807413,1.408,-0.165,-1.436,-36.376,-3.417,-92.163,1
7.816471,1.404,-0.129,-1.524,-30.7,-11.901,-95.581,1
7.824567,1.336,-0.039,-1.553,-43.64,-17.822,-98.937,1
7.831512,1.262,0.047,-1.519,-55.48,-26.0,-103.088,1
7.839424,1.165,0.082,-1.469,-65.795,-33.142,-106.872,1
7.846854,1.029,0.156,-1.384,-71.166,-41.259,-110.473,1
7.856387,0.844,0.189,-1.254,-68.786,-48.889,-115.051,1
7.863865,0.602,0.218,-1.112,-62.377,-57.25,-120.361,1
7.872521,0.404,0.145,-0.937,-57.128,-65.124,-125.366,1
7.879839,0.215,0.088,-0.805,-61.218,-66.589,-128.906,1
7.887809,0.048,0.113,-0.714,-60.729,-72.875,-132.69,1
7.896837,-0.056,0.016,-0.471,-42.602,-76.538,-136.047,1
7.905752,-0.095,-0.08,-0.341,-42.175,-77.27,-137.634,1
7.912727,-0.196,-0.136,-0.065,-30.517,-78.002,-138.549,1
7.920828,-0.233,-0.267,0.162,-5.981,-77.026,-137.878,1
7.930046,-0.266,-0.508,0.454,4.699,-71.35,-135.253,1
7.938034,-0.312,-0.678,0.701,8.056,-62.866,-131.042,1
7.94579,-0.406,-0.881,0.965,20.141,-53.527,-124.389,1
7.95441,-0.466,-1.07,1.207,17.7,-38.818,-116.21,1
7.961497,-0.643,-1.155,1.369,3.723,-23.071,-107.91,1
7.96904,-0.757,-1.198,1.529,12.573,-7.69,-98.388,1
7.97736,-0.854,-1.308,1.638,31.555,6.835,-89.416,1
7.98445,-0.958,-1.444,1.708,40.1,22.033,-79.956,1
7.993355,-1.022,-1.59,1.774,48.706,38.879,-70.007,1
8.003003,-1.083,-1.791,1.814,67.504,57.312,-56.701,1
8.010143,-1.161,-2.109,1.802,73.669,79.162,-40.954,1
8.019329,-1.216,-2.336,1.761,62.683,98.388,-25.146,1
8.028135,-1.33,-2.523,1.708,58.41,124.694,-0.671,1
8.037359,-1.517,-2.714,1.611,53.161,146.667,23.559,1
8.045984,-1.777,-2.798,1.503,50.048,165.344,46.203,1
8.052633,-2.041,-2.831,1.369,60.791,184.692,74.34,1
8.059711,-2.344,-2.854,1.199,75.012,196.96,95.886,1
8.068252,-2.583,-2.818,1.058,108.886,211.181,128.356,1
8.076236,-3.035,-2.87,0.867,134.338,221.862,158.752,1
8.083616,-3.525,-3.063,0.724,105.407,236.267,191.162,1
8.091732,-4.013,-3.167,0.613,27.099,260.986,225.769,1
8.09953,-4.601,-2.999,0.521,-10.375,280.883,259.887,1
8.107473,-5.098,-3.003,0.419,-17.578,301.513,301.025,1
8.116241,-5.845,-2.902,0.274,-2.258,319.519,339.233,1
8.123981,-6.416,-2.85,0.152,-11.413,339.355,386.901,1
8.131372,-7.138,-2.745,0.033,-27.954,359.436,429.321,1
8.140103,-8.193,-2.543,-0.103,-46.142,380.187,472.473,1
8.149744,-9.32,-2.356,-0.209,-59.204,406.616,523.925,1
8.157228,-10.931,-2.175,-0.359,-66.65,434.143,577.331,1
8.164581,-12.661,-2.065,-0.513,-71.411,464.416,633.239,1
8.173618,-14.475,-2.025,-0.711,-59.326,492.004,685.302,1
8.180743,-15.999,-2.041,-0.914,-44.006,517.456,741.821,1
8.189741,-15.999,-2.058,-1.174,-24.841,543.029,804.992,1
8.198421,-15.999,-2.068,-1.641,36.01,564.27,900.207,1
8.207302,-15.999,-2.017,-2.136,103.698,570.983,984.13,1
8.215909,-15.999,-1.887,-2.712,216.491,547.546,1093.75,1
8.223199,-15.999,-1.713,-3.306,361.083,496.887,1203.674,1
8.231414,-15.999,-1.378,-3.843,552.429,376.77,1345.153,1
8.238908,-15.999,-0.777,-4.046,698.547,223.51,1471.618,1
8.24669,-15.999,0.218,-3.846,822.265,23.071,1586.181,1
8.255599,-15.999,1.752,-3.264,915.039,-215.82,1673.644,1
8.263128,-15.999,3.332,-2.138,986.083,-524.475,1722.351,1
8.270802,-15.999,4.873,-0.905,1005.371,-786.376,1710.205,1
8.279669,-15.999,6.411,1.169,998.413,-1056.823,1655.029,1
8.288387,-15.999,7.086,3.468,1189.819,-1378.784,1523.498,1
8.296561,-15.999,6.431,6.041,1348.205,-1679.504,1356.75,1
8.304053,-15.999,7.138,8.829,1752.319,-1935.363,1049.011,1
8.311299,-15.999,7.899,9.851,1999.999,-1999.938,606.079,1
8.319899,-15.999,6.081,8.54,1999.999,-1999.084,-57.556,1
8.327466,-15.999,5.469,8.18,1953.185,-1982.91,-569.397,1
8.336658,-15.999,3.694,7.99,1356.689,-1674.011,-896.179,1
8.34388,-15.999,2.003,6.471,620.788,-1402.893,-1054.992,1
8.350861,-15.999,2.706,6.795,269.165,-1230.468,-1076.904,1
8.359511,-15.999,2.756,6.091,427.062,-1115.905,-1096.435,1
8.366707,-15.999,1.991,5.349,710.449,-1018.859,-1157.165,1
8.37557,-15.999,0.446,4.919,795.654,-839.233,-1218.261,1
8.382005,-15.999,-1.57,4.416,647.216,-662.78,-1242.431,1
8.39066,-15.999,-2.506,4.237,422.912,-476.501,-1215.82,1
8.398783,-15.999,-2.625,3.845,383.85,-392.7,-1169.189,1
8.407034,-15.999,-2.898,3.701,536.621,-301.757,-1107.055,1
8.415751,-15.999,-3.61,2.906,681.03,-183.776,-1026.672,1
8.423332,-15.999,-4.448,2.406,580.2,-74.829,-943.786,1
8.431625,-15.83,-4.401,2.105,476.379,33.63,-833.74,1
8.438636,-13.788,-4.336,1.707,450.683,98.022,-740.356,1
8.447449,-11.864,-4.242,1.279,385.62,155.883,-650.817,1
8.456822,-10.581,-3.836,1.007,308.593,205.2,-556.457,1
8.463498,-9.394,-3.361,0.642,266.54,234.802,-474.731,1
8.472511,-8.472,-3.04,0.465,245.666,249.572,-412.597,1
8.4814,-7.601,-2.81,0.327,227.416,261.23,-356.079,1
8.490614,-6.724,-2.572,0.221,202.331,271.972,-296.752,1
8.498198,-5.864,-2.389,0.099,181.335,278.442,-244.323,1
8.50717,-4.997,-2.25,0.01,165.771,280.883,-196.777,1
8.515099,-4.291,-2.111,-0.056,147.888,280.029,-153.076,1
8.523902,-3.85,-1.946,-0.045,130.249,278.198,-114.135,1
8.531237,-3.679,-1.825,-0.042,108.703,276.916,-85.632,1
8.540467,-3.448,-1.755,-0.012,62.927,279.602,-58.166,1
8.549884,-3.145,-1.678,-0.023,21.667,280.761,-38.146,1
8.557427,-2.715,-1.521,-0.042,2.136,278.808,-17.822,1
8.564995,-2.395,-1.408,-0.098,9.46,273.437,-1.586,1
8.573565,-2.123,-1.282,-0.152,27.587,263.61,16.479,1
8.580483,-1.888,-1.155,-0.199,38.635,254.577,31.066,1
8.588905,-1.645,-0.985,-0.23,46.508,242.431,46.813,1
8.597745,-1.478,-0.826,-0.226,57.312,231.567,58.898,1
8.605558,-1.345,-0.664,-0.206,73.73,219.177,69.946,1
8.614023,-1.24,-0.483,-0.155,93.688,206.726,78.979,1
8.621107,-1.185,-0.353,-0.109,117.126,192.199,87.463,1
8.628152,-1.183,-0.251,-0.064,127.868,181.762,92.895,1
8.636536,-1.2,-0.204,-0.01,121.52,173.583,96.618,1
8.643586,-1.177,-0.174,0.051,100.524,167.968,99.365,1
8.651993,-1.127,-0.116,0.118,75.012,164.489,101.379,1
8.659099,-1.032,-0.076,0.13,57.739,161.621,102.233,1
8.667574,-0.937,-0.038,0.144,46.874,158.264,102.844,1
8.67576,-0.799,-0.041,0.14,47.241,153.198,103.393,1
8.683453,-0.53,-0.068,0.169,64.819,146.362,104.248,1
8.692105,-0.316,-0.118,0.166,91.613,139.587,106.445,1
8.698562,-0.065,-0.162,0.158,118.041,130.615,110.412,1
8.708683,0.067,-0.145,0.158,136.047,123.718,113.83,1
8.716211,0.161,-0.122,0.142,148.986,115.722,117.614,1
8.72385,0.241,-0.103,0.137,151.489,109.619,120.544,1
8.731074,0.326,-0.071,0.116,147.033,103.027,123.962,1
8.738658,0.434,-0.034,0.116,138.916,97.595,126.647,1
8.74584,0.559,0.033,0.12,133.85,93.505,128.784,1
8.755213,0.642,0.131,0.129,131.591,87.341,130.187,1
8.762198,0.716,0.236,0.158,141.418,79.833,130.859,1
8.771485,0.76,0.281,0.179,154.357,72.692,130.554,1
8.778263,0.903,0.402,0.246,178.527,64.819,128.662,1
8.787788,0.995,0.486,0.285,207.702,57.312,126.77,1
8.796181,1.115,0.58,0.338,231.445,50.903,124.572,1
8.802591,1.197,0.625,0.356,238.708,45.288,121.154,1
8.809747,1.299,0.682,0.365,227.111,43.64,117.919,1
8.818207,1.375,0.764,0.361,206.848,43.212,113.83,1
8.826442,1.45,0.888,0.333,190.368,42.236,108.398,1
8.833119,1.505,0.967,0.334,186.767,39.306,101.745,1
8.84078,1.522,1.033,0.344,194.824,36.376,95.458,1
8.848096,1.517,1.089,0.345,202.941,33.691,88.989,1
8.856408,1.466,1.159,0.366,211.12,31.433,81.97,1
8.864612,1.381,1.229,0.384,221.618,30.395,74.523,1
8.871543,1.321,1.284,0.388,232.482,29.479,67.138,1
8.87822,1.3,1.316,0.371,241.027,29.296,60.241,1
8.887316,1.318,1.321,0.349,244.934,28.625,53.894,1
8.894715,1.34,1.332,0.337,245.422,28.93,48.095,1
8.902822,1.336,1.316,0.314,238.952,30.578,42.175,1
8.911681,1.292,1.279,0.277,228.027,31.921,37.475,1
8.918909,1.272,1.238,0.25,216.674,33.691,32.958,1
8.926447,1.242,1.179,0.226,212.402,35.156,30.456,1
8.935319,1.221,1.102,0.19,207.763,36.621,28.015,1
8.943585,1.152,1.023,0.155,198.669,39.245,26.306,1
8.949909,1.1,0.968,0.109,189.575,40.954,25.39,1
8.957366,1.032,0.921,0.072,182.067,43.457,24.353,1
8.965691,0.998,0.863,0.012,176.33,44.311,23.498,1
8.973881,0.991,0.808,-0.022,173.706,44.982,23.559,1
8.981312,1.003,0.792,-0.069,175.231,45.837,23.62,1
8.989035,0.974,0.781,-0.112,179.748,44.799,23.498,1
8.998475,0.92,0.757,-0.135,183.776,45.043,23.071,1
9.006316,0.883,0.722,-0.158,180.847,45.043,22.094,1
9.015634,0.84,0.665,-0.183,173.339,45.898,21.24,1
9.023403,0.825,0.621,-0.193,163.33,46.142,20.507,1
9.030825,0.821,0.583,-0.193,160.034,46.325,19.775,1
9.038522,0.844,0.557,-0.189,163.818,46.02,19.409,1
9.046252,0.864,0.533,-0.202,169.799,45.166,19.226,1
9.053855,0.883,0.505,-0.202,173.889,44.677,19.47,1
9.061477,0.873,0.497,-0.206,173.583,45.166,19.348,1
9.0705,0.863,0.476,-0.216,167.541,45.959,18.92,1
9.078056,0.86,0.443,-0.229,154.357,47.912,19.104,1
9.086807,0.856,0.42,-0.252,139.282,49.56,18.92,1
9.094994,0.887,0.39,-0.269,125.671,51.33,18.554,1
9.101636,0.929,0.335,-0.3,117.614,51.696,18.676,1
9.111173,0.901,0.319,-0.281,104.675,53.405,20.324,1
9.118666,0.914,0.317,-0.313,93.505,52.551,22.216,1
9.12696,0.872,0.339,-0.297,95.092,51.269,23.254,1
9.134095,0.874,0.328,-0.3,98.815,49.499,25.207,1
9.143026,0.841,0.353,-0.308,94.482,48.828,27.221,1
9.149448,0.907,0.35,-0.306,89.172,46.569,27.526,1
9.157015,0.879,0.379,-0.276,88.562,45.959,28.503,1
9.166239,0.861,0.414,-0.294,91.491,43.701,29.479,1
9.173169,0.843,0.446,-0.273,99.182,41.259,30.273,1
9.180858,0.841,0.462,-0.31,107.238,38.635,30.883,1
9.190007,0.838,0.481,-0.322,115.112,35.949,31.311,1
9.196355,0.894,0.49,-0.354,119.506,33.996,31.86,1
9.205046,0.938,0.495,-0.376,119.75,32.226,31.86,1
9.212853,0.982,0.493,-0.385,114.318,31.372,31.738,1
9.221466,1.01,0.485,-0.395,105.468,31.066,31.555,1
9.229645,1.02,0.477,-0.393,97.656,31.494,31.127,1
9.23746,1.02,0.479,-0.392,89.66,32.287,31.066,1
9.245458,1.011,0.491,-0.397,80.383,33.264,31.066,1
9.251856,0.982,0.506,-0.401,68.481,34.484,30.334,1
9.25974,0.946,0.533,-0.402,60.668,35.583,29.418,1
9.268421,0.922,0.557,-0.413,55.603,36.56,28.564,1
9.277793,0.887,0.594,-0.434,51.94,37.17,27.16,1
9.285662,0.85,0.621,-0.458,48.828,37.536,25.817,1
9.293688,0.821,0.64,-0.474,45.959,37.597,24.23,1
9.300503,0.789,0.657,-0.5,43.823,37.597,22.521,1
9.30817,0.77,0.668,-0.517,42.602,36.926,20.507,1
9.316895,0.751,0.673,-0.521,42.846,36.743,18.737,1
9.324607,0.748,0.663,-0.528,43.945,36.193,16.723,1
9.333376,0.74,0.645,-0.521,45.41,35.522,14.953,1
9.339709,0.738,0.625,-0.502,42.846,35.888,13.977,1
9.349164,0.721,0.603,-0.495,37.048,36.926,12.512,1
9.356808,0.702,0.563,-0.491,24.414,38.818,11.169,1
9.364201,0.696,0.535,-0.493,7.629,41.503,10.192,1
9.371888,0.696,0.525,-0.501,-9.277,43.518,9.338,1
9.379284,0.708,0.514,-0.5,-22.094,45.837,7.751,1
9.389245,0.719,0.5,-0.507,-28.93,47.119,6.835,1
9.396889,0.741,0.476,-0.505,-29.907,47.546,5.432,1
9.404372,0.761,0.442,-0.494,-24.047,47.607,4.272,1
9.411695,0.772,0.409,-0.489,-16.967,47.302,2.99,1
9.421456,0.763,0.367,-0.473,-11.352,46.936,1.953,1
9.42904,0.791,0.307,-0.475,-0.976,48.278,1.22,1
9.436318,0.755,0.264,-0.445,-8.422,49.255,0.366,1
9.443855,0.714,0.24,-0.448,-20.324,52.062,0.122,1
9.452278,0.657,0.23,-0.445,-33.752,52.062,-0.732,1
9.459211,0.617,0.22,-0.39,-42.419,54.321,-1.342,1
9.467009,0.588,0.225,-0.411,-42.419,54.382,-1.892,1
9.477293,0.566,0.202,-0.387,-35.583,53.161,-2.502,1
9.483823,0.587,0.147,-0.38,-28.564,53.161,-1.831,1
9.491602,0.601,0.105,-0.376,-26.855,52.307,-1.037,1
9.499808,0.598,0.074,-0.374,-28.93,52.795,0.244,1
9.508121,0.6,0.053,-0.384,-33.752,52.917,1.525,1
9.514872,0.607,0.042,-0.371,-39.367,52.917,2.868,1
9.523109,0.63,0.031,-0.364,-41.564,53.283,4.211,1
9.531503,0.658,0.025,-0.355,-41.259,53.405,5.92,1
9.540114,0.671,0.024,-0.343,-38.818,54.016,7.69,1
9.54769,0.676,0.029,-0.337,-32.653,54.016,9.338,1
9.554368,0.667,0.035,-0.329,-23.742,53.833,10.986,1
9.562649,0.672,0.04,-0.332,-11.535,54.443,13.061,1
9.569218,0.673,0.045,-0.334,-4.394,54.321,14.648,1
9.57763,0.658,0.047,-0.333,0.915,55.053,16.54,1
9.58499,0.62,0.06,-0.341,2.319,56.152,18.188,1
9.593289,0.582,0.08,-0.336,-0.915,57.617,19.958,1
9.600396,0.543,0.093,-0.328,-5.004,59.753,20.996,1
9.607741,0.508,0.11,-0.321,-11.169,61.706,21.667,1
9.615408,0.479,0.12,-0.309,-18.371,64.208,22.033,1
9.624402,0.462,0.125,-0.296,-25.268,66.833,22.583,1
9.631529,0.444,0.129,-0.291,-31.311,69.824,22.949,1
9.639806,0.441,0.131,-0.283,-37.048,72.326,22.827,1
9.647243,0.464,0.125,-0.257,-40.039,75.439,23.498,1
9.653767,0.503,0.115,-0.25,-39.489,78.247,24.047,1
9.663069,0.531,0.1,-0.239,-36.376,80.871,24.841,1
9.66948,0.551,0.096,-0.233,-30.456,83.19,26.245,1
9.677646,0.559,0.095,-0.223,-20.935,85.632,27.648,1
9.685682,0.559,0.089,-0.213,-9.643,88.012,29.479,1
9.692914,0.546,0.082,-0.215,-0.915,90.27,31.005,1
9.699963,0.52,0.079,-0.22,3.845,92.712,32.958,1
9.708525,0.491,0.071,-0.227,4.394,96.008,34.973,1
9.716299,0.467,0.068,-0.234,0.854,99.243,36.865,1
9.723421,0.449,0.07,-0.238,-6.652,103.393,38.879,1
9.732208,0.439,0.07,-0.252,-16.723,107.604,40.344,1
9.741101,0.419,0.084,-0.249,-24.963,111.083,42.297,1
9.748289,0.415,0.093,-0.262,-28.259,116.271,44.372,1
9.757186,0.412,0.104,-0.277,-26.611,119.445,46.325,1
9.764309,0.402,0.123,-0.284,-23.132,122.253,48.278,1
9.773417,0.369,0.131,-0.308,-18.737,125.61,50.231,1
9.780749,0.353,0.139,-0.308,-15.075,128.295,52.49,1
9.788115,0.327,0.155,-0.333,-12.023,131.286,54.443,1
9.797277,0.3,0.169,-0.343,-10.62,133.422,56.274,1
9.807569,0.272,0.179,-0.36,-8.544,136.413,58.105,1
9.814564,0.226,0.191,-0.378,-7.751,138.916,59.814,1
9.823587,0.174,0.199,-0.397,-7.202,141.357,61.279,1
9.830406,0.143,0.21,-0.415,-4.272,143.493,62.988,1
9.837572,0.115,0.232,-0.441,0.671,144.897,64.758,1
9.846213,0.077,0.249,-0.46,6.774,145.446,66.04,1
9.852771,0.048,0.257,-0.473,13.977,146.545,67.565,1
9.860839,0.04,0.257,-0.487,22.155,146.85,69.274,1
9.868155,0.033,0.257,-0.498,30.334,147.888,71.899,1
9.875501,0.021,0.274,-0.531,34.606,148.864,74.523,1
9.884181,-0.009,0.294,-0.56,34.912,149.353,76.599,1
9.892596,-0.062,0.324,-0.588,35.339,150.024,78.613,1
9.899127,-0.102,0.343,-0.602,38.696,149.597,80.505,1
9.907034,-0.133,0.37,-0.621,48.278,149.536,83.312,1
9.913632,-0.162,0.393,-0.645,57.8,148.071,85.021,1
9.921287,-0.198,0.409,-0.659,72.326,145.568,86.853,1
9.928968,-0.223,0.4,-0.657,89.416,142.944,90.209,1
9.936848,-0.232,0.402,-0.669,103.759,141.296,93.749,1
9.945562,-0.266,0.398,-0.71,107.727,139.282,98.083,1
9.953364,-0.307,0.41,-0.721,101.562,138.427,101.623,1
9.960187,-0.346,0.439,-0.742,92.773,137.573,105.346,1
9.969527,-0.393,0.483,-0.753,84.167,137.451,108.337,1
9.976122,-0.49,0.526,-0.777,73.364,137.023,111.083,1
9.984646,-0.544,0.523,-0.792,61.096,136.23,113.098,1
9.9921,-0.563,0.531,-0.783,53.1,135.559,114.99,1
