timestamp_s,ax,ay,az,gx,gy,gz,label
0.005488,-0.854,0.584,-0.173,7.019,-0.305,6.286,1
0.013671,-0.854,0.584,-0.173,6.286,-0.793,5.859,1
0.02073,-0.856,0.587,-0.169,7.263,-1.098,5.432,1
0.028965,-0.85,0.587,-0.164,9.277,-1.22,5.065,1
0.037644,-0.852,0.583,-0.17,12.634,-2.136,4.821,1
0.045856,-0.854,0.583,-0.168,15.014,-2.685,4.089,1
0.054015,-0.857,0.577,-0.173,16.54,-3.356,3.906,1
0.061605,-0.853,0.571,-0.166,17.639,-3.784,3.356,1
0.069918,-0.846,0.567,-0.167,17.639,-4.272,3.234,1
0.076483,-0.848,0.564,-0.17,17.089,-4.516,2.807,1
0.084707,-0.855,0.564,-0.172,15.686,-4.516,2.563,1
0.092827,-0.864,0.57,-0.172,14.221,-4.882,2.014,1
0.100007,-0.863,0.565,-0.174,13.305,-5.187,1.647,1
0.109391,-0.855,0.563,-0.17,13.183,-5.554,1.098,1
0.116374,-0.851,0.562,-0.169,13.427,-5.859,1.037,1
0.125048,-0.849,0.563,-0.174,13.488,-6.347,0.671,1
0.133955,-0.848,0.56,-0.174,15.319,-6.958,0.488,1
0.140899,-0.836,0.565,-0.169,19.592,-7.69,-0.061,1
0.150402,-0.833,0.564,-0.17,25.695,-8.728,-0.122,1
0.157399,-0.831,0.561,-0.177,30.029,-9.704,-0.427,1
0.16582,-0.829,0.554,-0.175,32.836,-10.498,-0.61,1
0.174998,-0.83,0.552,-0.175,33.813,-11.047,-0.976,1
0.183911,-0.833,0.549,-0.172,33.386,-11.535,-1.647,1
0.192548,-0.829,0.546,-0.174,30.822,-11.901,-1.953,1
0.202016,-0.833,0.539,-0.174,27.404,-11.779,-2.38,1
0.207581,-0.837,0.533,-0.174,22.888,-11.901,-2.685,1
0.216332,-0.839,0.53,-0.171,18.798,-11.413,-2.99,1
0.224368,-0.851,0.536,-0.17,14.282,-11.413,-2.99,1
0.233793,-0.848,0.537,-0.168,12.023,-11.474,-3.234,1
0.24002,-0.845,0.547,-0.169,12.695,-11.718,-3.112,1
0.248658,-0.841,0.56,-0.174,16.906,-12.634,-3.234,1
0.256421,-0.848,0.571,-0.178,24.353,-13.854,-3.295,1
0.265703,-0.843,0.587,-0.191,33.508,-15.197,-3.479,1
0.273196,-0.847,0.6,-0.205,43.884,-17.211,-3.662,1
0.281895,-0.841,0.606,-0.213,51.208,-18.676,-4.028,1
0.290205,-0.83,0.613,-0.217,58.166,-20.629,-4.272,1
0.298835,-0.834,0.621,-0.222,62.072,-21.972,-4.577,1
0.306308,-0.827,0.627,-0.236,62.622,-23.071,-4.943,1
0.316832,-0.811,0.643,-0.244,61.889,-23.742,-4.943,1
0.323886,-0.807,0.674,-0.262,62.744,-25.329,-5.371,1
0.333002,-0.819,0.707,-0.283,64.758,-26.672,-5.798,1
0.341638,-0.828,0.732,-0.302,64.941,-28.503,-6.713,1
0.350848,-0.82,0.773,-0.309,63.964,-30.09,-7.812,1
0.357561,-0.812,0.819,-0.315,64.086,-31.921,-8.972,1
0.366283,-0.806,0.851,-0.325,64.819,-33.264,-10.559,1
0.374961,-0.81,0.903,-0.336,65.246,-34.24,-11.84,1
0.384456,-0.818,0.94,-0.343,65.49,-35.522,-14.282,1
0.393478,-0.827,0.99,-0.355,65.734,-36.743,-16.845,1
0.400354,-0.843,1.073,-0.38,65.734,-37.78,-20.69,1
0.408329,-0.855,1.123,-0.409,61.706,-38.574,-24.475,1
0.417687,-0.852,1.162,-0.425,53.833,-38.879,-28.93,1
0.424938,-0.833,1.216,-0.434,44.006,-39.428,-33.996,1
0.435295,-0.825,1.258,-0.425,39.55,-39.367,-39.123,1
0.442511,-0.953,1.286,-0.465,27.343,-37.78,-45.227,1
0.453092,-0.958,1.331,-0.492,12.878,-38.452,-50.048,1
0.460254,-0.878,1.381,-0.501,7.385,-38.391,-56.64,1
0.46992,-0.882,1.399,-0.543,6.042,-40.222,-61.767,1
0.477541,-0.902,1.426,-0.568,5.615,-42.602,-66.955,1
0.484606,-0.893,1.448,-0.587,10.07,-45.715,-71.533,1
0.491947,-0.913,1.457,-0.612,16.479,-48.645,-75.683,1
0.502083,-0.933,1.464,-0.633,21.728,-51.757,-79.467,1
0.510151,-0.949,1.467,-0.637,26.977,-55.419,-83.618,1
0.518052,-0.962,1.462,-0.648,31.555,-58.044,-87.524,1
0.526684,-0.974,1.457,-0.646,34.301,-61.279,-91.186,1
0.533696,-0.976,1.452,-0.65,35.339,-63.293,-94.421,1
0.541697,-0.986,1.441,-0.655,34.057,-65.429,-97.839,1
0.550147,-1.0,1.445,-0.66,30.029,-67.504,-101.684,1
0.560052,-1.02,1.454,-0.668,25.756,-69.824,-105.163,1
0.568706,-1.032,1.45,-0.67,20.019,-72.448,-109.069,1
0.575987,-1.042,1.451,-0.674,14.16,-74.768,-112.976,1
0.585974,-1.076,1.452,-0.668,9.277,-77.575,-117.004,1
0.592602,-1.104,1.448,-0.665,5.92,-80.2,-120.544,1
0.600979,-1.122,1.445,-0.67,0.427,-82.275,-123.596,1
0.610139,-1.143,1.451,-0.662,-5.31,-85.266,-126.647,1
0.617431,-1.161,1.455,-0.649,-6.286,-87.158,-129.211,1
0.624563,-1.18,1.452,-0.648,-5.493,-89.538,-131.408,1
0.632976,-1.195,1.452,-0.639,-4.577,-91.552,-133.544,1
0.641755,-1.195,1.442,-0.637,-4.638,-93.627,-135.925,1
0.649112,-1.195,1.43,-0.64,-7.019,-95.275,-137.756,1
0.657463,-1.19,1.428,-0.646,-9.887,-97.045,-139.587,1
0.666118,-1.207,1.429,-0.651,-12.39,-98.754,-140.991,1
0.674693,-1.238,1.422,-0.663,-18.676,-101.013,-142.822,1
0.68346,-1.261,1.431,-0.665,-29.724,-102.661,-143.92,1
0.690243,-1.272,1.442,-0.658,-44.616,-103.82,-145.202,1
0.699722,-1.273,1.456,-0.652,-59.326,-104.858,-146.24,1
0.708035,-1.272,1.491,-0.635,-73.913,-105.468,-147.644,1
0.716453,-1.273,1.525,-0.633,-83.557,-106.872,-148.925,1
0.724759,-1.28,1.574,-0.637,-83.74,-108.764,-151.062,1
0.734481,-1.277,1.595,-0.661,-79.589,-111.022,-153.076,1
0.743017,-1.273,1.585,-0.678,-74.89,-114.013,-155.761,1
0.752192,-1.275,1.556,-0.709,-76.66,-116.271,-158.508,1
0.760554,-1.289,1.503,-0.734,-94.116,-117.858,-160.644,1
0.767351,-1.269,1.451,-0.729,-125.61,-118.347,-162.17,1
0.774308,-1.225,1.403,-0.705,-152.954,-119.201,-162.414,1
0.78479,-1.182,1.366,-0.675,-173.645,-119.995,-161.743,1
0.793959,-1.143,1.338,-0.642,-186.035,-120.971,-160.217,1
0.800531,-1.113,1.312,-0.616,-196.533,-123.229,-157.897,1
0.809213,-1.062,1.279,-0.604,-202.697,-124.755,-156.127,1
0.818146,-0.825,1.161,-0.615,-212.219,-126.281,-154.418,1
0.827063,-0.91,1.097,-0.543,-247.863,-125.061,-149.536,1
0.835565,-1.09,1.127,-0.604,-274.841,-127.258,-144.104,1
0.843332,-1.037,1.086,-0.569,-290.283,-127.929,-138.732,1
0.852662,-0.971,1.082,-0.575,-294.738,-130.859,-134.399,1
0.859679,-0.954,1.069,-0.56,-289.611,-132.141,-129.943,1
0.868536,-0.923,1.006,-0.701,-280.456,-127.197,-128.173,1
0.875859,-0.93,0.961,-0.703,-293.334,-138.977,-126.403,1
0.886476,-0.81,0.906,-0.544,-281.494,-133.789,-120.971,1
0.894889,-0.823,0.81,-0.495,-255.187,-143.92,-117.614,1
0.904195,-0.917,0.685,-0.479,-237.548,-139.221,-114.685,1
0.910748,-0.969,0.523,-0.483,-245.361,-141.174,-112.487,1
0.921595,-0.872,0.413,-0.436,-261.962,-133.789,-107.727,1
0.929998,-0.724,0.353,-0.395,-276.611,-134.887,-102.111,1
0.938954,-0.616,0.339,-0.307,-269.714,-132.629,-93.261,1
0.946213,-0.66,0.36,-0.259,-237.121,-136.169,-83.374,1
0.955046,-0.602,0.368,-0.207,-181.457,-138.122,-74.34,1
0.96343,-0.492,0.368,-0.184,-124.084,-141.235,-67.626,1
0.971833,-0.378,0.348,-0.217,-60.668,-143.798,-60.729,1
0.980313,-0.389,0.349,-0.223,-14.465,-145.507,-56.091,1
0.988501,-0.397,0.302,-0.209,24.414,-146.362,-52.429,1
0.996971,-0.318,0.264,-0.168,41.564,-141.662,-48.278,1
1.00505,-0.096,0.265,-0.194,37.17,-132.263,-44.128,1
1.013549,-0.034,0.307,-0.257,17.7,-125.061,-42.968,1
1.021289,-0.018,0.458,-0.198,-16.418,-116.638,-43.09,1
1.029604,0.161,0.541,-0.265,-39.184,-112.365,-44.555,1
1.037406,0.325,0.592,-0.226,-60.302,-107.238,-44.982,1
1.044718,0.409,0.634,-0.337,-83.374,-103.942,-44.555,1
1.053286,0.393,0.662,-0.393,-114.379,-103.637,-43.212,1
1.062092,0.396,0.708,-0.471,-148.681,-101.745,-40.71,1
1.068726,0.391,0.784,-0.532,-167.053,-102.966,-38.818,1
1.077415,0.263,0.845,-0.605,-177.673,-104.125,-37.963,1
1.084624,0.206,0.898,-0.646,-188.293,-107.36,-37.78,1
1.092847,0.17,0.928,-0.672,-191.467,-109.497,-38.513,1
1.100985,0.053,0.952,-0.713,-197.57,-113.586,-39.916,1
1.108003,-0.017,0.952,-0.735,-207.458,-117.614,-41.259,1
1.116,-0.077,0.946,-0.766,-217.041,-122.009,-42.663,1
1.12299,-0.136,0.929,-0.777,-228.576,-128.112,-44.677,1
1.13145,-0.219,0.859,-0.806,-245.117,-133.85,-45.288,1
1.138181,-0.26,0.785,-0.799,-262.756,-138.305,-45.837,1
1.146655,-0.344,0.732,-0.799,-280.822,-144.165,-45.227,1
1.154426,-0.456,0.685,-0.778,-283.752,-151.977,-43.945,1
1.162486,-0.504,0.624,-0.729,-262.817,-162.048,-42.358,1
1.16944,-0.637,0.542,-0.698,-236.45,-171.874,-41.259,1
1.177942,-0.695,0.451,-0.645,-211.486,-180.541,-40.405,1
1.186083,-0.801,0.289,-0.586,-195.983,-188.415,-39.062,1
1.193877,-0.835,0.143,-0.545,-195.617,-195.922,-35.644,1
1.201742,-0.894,0.016,-0.522,-206.42,-202.026,-31.066,1
1.208822,-1.086,-0.043,-0.447,-218.017,-208.74,-25.695,1
1.216837,-1.096,-0.164,-0.408,-219.543,-214.416,-18.188,1
1.224776,-1.137,-0.223,-0.319,-210.754,-222.656,-9.643,1
1.233063,-1.185,-0.312,-0.268,-184.02,-231.567,0.976,1
1.241674,-1.162,-0.434,-0.237,-149.658,-242.675,10.925,1
1.248302,-1.239,-0.57,-0.163,-128.784,-251.342,19.592,1
1.256651,-1.254,-0.672,-0.08,-115.722,-257.019,28.625,1
1.264211,-1.407,-0.75,-0.005,-111.145,-261.352,37.658,1
1.271548,-1.473,-0.828,0.065,-117.492,-263.977,48.034,1
1.278601,-1.593,-0.914,0.102,-133.728,-265.441,59.082,1
1.286544,-1.717,-0.961,0.175,-155.456,-266.296,71.35,1
1.294122,-1.845,-0.991,0.224,-171.325,-265.686,82.702,1
1.302924,-1.969,-1.01,0.269,-184.875,-266.113,99.792,1
1.310916,-2.093,-1.017,0.298,-188.293,-265.93,115.478,1
1.31876,-2.241,-1.017,0.321,-187.622,-266.479,131.896,1
1.325506,-2.431,-1.016,0.355,-180.603,-267.089,148.315,1
1.335275,-2.604,-1.049,0.372,-169.921,-269.775,167.785,1
1.342618,-2.809,-1.037,0.434,-159.851,-269.165,185.546,1
1.35112,-2.999,-1.044,0.429,-144.836,-271.728,202.88,1
1.35808,-3.322,-1.054,0.484,-123.291,-272.644,223.571,1
1.366067,-3.457,-1.088,0.486,-113.098,-275.146,243.041,1
1.373939,-3.85,-1.115,0.523,-98.327,-276.55,265.808,1
1.383765,-4.07,-1.14,0.562,-111.45,-275.695,286.499,1
1.39176,-4.444,-1.074,0.644,-137.695,-270.507,312.866,1
1.400272,-4.925,-1.027,0.799,-154.846,-265.747,337.829,1
1.408148,-5.278,-0.858,0.939,-146.24,-253.967,367.797,1
1.414983,-5.898,-0.786,0.999,-121.643,-250.366,393.31,1
1.4239,-6.656,-0.74,1.12,-91.613,-239.379,418.823,1
1.432783,-7.08,-0.751,1.187,-94.238,-228.088,449.096,1
1.439597,-7.583,-0.603,1.262,-101.501,-208.984,474.792,1
1.44674,-8.415,-0.781,1.341,-136.718,-195.312,503.784,1
1.454692,-8.486,-1.015,1.618,-266.967,-140.991,548.645,1
1.462965,-8.745,-0.955,1.709,-391.784,-91.43,588.256,1
1.470791,-9.326,-0.791,2.096,-453.979,-23.62,629.577,1
1.479244,-9.997,-0.704,2.233,-470.764,42.846,670.41,1
1.488406,-10.538,-0.726,2.458,-485.9,134.765,718.566,1
1.494944,-11.329,-0.767,2.295,-562.988,239.929,763.0,1
1.502719,-12.521,-0.577,2.133,-651.611,351.074,793.029,1
1.511999,-13.977,-0.192,1.545,-720.397,463.378,811.34,1
1.519154,-15.803,0.263,1.025,-733.52,567.077,814.392,1
1.527889,-15.994,0.563,0.512,-683.715,679.016,805.541,1
1.535575,-15.999,0.97,0.111,-619.506,757.141,787.658,1
1.543517,-15.999,1.509,-0.17,-528.198,824.768,762.573,1
1.551208,-15.999,1.921,-0.531,-435.729,874.511,734.802,1
1.55949,-15.999,2.318,-0.91,-394.592,916.015,707.336,1
1.56825,-15.999,2.646,-1.104,-425.231,966.674,672.851,1
1.574917,-15.999,4.703,-1.746,-337.951,988.647,637.573,1
1.583268,-15.999,3.684,-3.329,-243.652,1006.835,575.134,1
1.591398,-15.999,4.119,-1.809,-345.764,1017.822,516.54,1
1.600075,-15.999,4.167,-2.849,-338.989,1014.892,454.833,1
1.608503,-15.999,4.468,-3.263,-168.09,992.492,408.752,1
1.615433,-15.999,3.653,-3.936,-195.983,984.924,378.234,1
1.624452,-15.999,3.894,-3.691,-195.434,959.228,338.134,1
1.63122,-15.999,3.927,-4.818,-254.089,953.979,289.917,1
1.639971,-15.999,3.143,-4.933,-511.718,937.683,236.022,1
1.648397,-15.999,2.991,-4.422,-851.318,924.499,127.563,1
1.656232,-15.903,2.695,-3.961,-928.466,920.654,18.432,1
1.663836,-13.875,2.123,-4.23,-866.149,849.182,-102.783,1
1.672714,-12.556,1.491,-3.678,-774.963,797.973,-181.335,1
1.679502,-10.99,1.135,-3.53,-643.005,733.093,-241.882,1
1.687132,-9.908,0.673,-3.625,-447.143,658.203,-288.269,1
1.695501,-9.192,0.296,-3.636,-310.607,593.872,-310.058,1
1.705006,-8.543,0.053,-3.628,-203.491,540.649,-318.054,1
1.712811,-7.633,-0.197,-3.592,-149.047,481.079,-320.556,1
1.721461,-6.91,-0.427,-3.415,-136.169,441.589,-319.213,1
1.728882,-5.998,-0.755,-3.195,-151.123,397.949,-315.002,1
1.73779,-5.513,-0.928,-3.002,-174.438,361.572,-308.532,1
1.74757,-4.798,-1.203,-2.814,-196.716,325.195,-300.72,1
1.756726,-4.311,-1.358,-2.631,-195.556,292.907,-290.466,1
1.762853,-3.786,-1.527,-2.587,-170.654,262.268,-279.296,1
1.772328,-3.451,-1.617,-2.512,-134.338,233.947,-266.784,1
1.780277,-3.097,-1.694,-2.5,-99.365,202.453,-251.403,1
1.789222,-2.641,-1.8,-2.43,-81.726,176.208,-233.947,1
1.795924,-2.264,-1.848,-2.351,-118.896,153.198,-216.796,1
1.804017,-2.074,-1.758,-2.313,-143.676,139.77,-202.575,1
1.811807,-1.818,-1.68,-2.061,-158.874,117.736,-188.903,1
1.821703,-1.779,-1.585,-1.845,-141.967,105.102,-173.767,1
1.829801,-1.502,-1.547,-1.799,-115.6,83.923,-156.494,1
1.838436,-1.307,-1.501,-1.645,-96.74,71.044,-138.366,1
1.846709,-1.09,-1.423,-1.613,-97.534,59.387,-124.45,1
1.855076,-0.957,-1.295,-1.547,-105.163,48.339,-109.13,1
1.863743,-0.882,-1.129,-1.524,-104.187,34.667,-95.52,1
1.871733,-0.645,-0.967,-1.436,-93.505,20.568,-84.289,1
1.881371,-0.608,-0.811,-1.301,-75.683,8.911,-74.035,1
1.889635,-0.502,-0.707,-1.188,-73.852,0.671,-66.467,1
1.897615,-0.459,-0.634,-1.085,-85.937,-6.103,-58.715,1
1.905987,-0.34,-0.557,-0.96,-104.614,-11.352,-51.208,1
1.914444,-0.308,-0.487,-0.85,-109.008,-15.93,-44.067,1
1.922917,-0.162,-0.431,-0.761,-100.158,-21.057,-35.827,1
1.931025,-0.048,-0.386,-0.677,-87.28,-25.878,-27.099,1
1.939896,0.007,-0.349,-0.633,-80.566,-28.808,-20.019,1
1.947951,0.062,-0.299,-0.577,-80.139,-31.433,-12.451,1
1.956654,0.13,-0.241,-0.536,-81.054,-33.142,-6.103,1
1.965069,0.167,-0.184,-0.476,-81.054,-35.034,0.793,1
1.972572,0.228,-0.114,-0.423,-82.153,-36.254,6.774,1
1.981384,0.264,-0.048,-0.354,-77.697,-38.33,11.779,1
1.991133,0.302,-0.008,-0.305,-69.763,-39.306,15.624,1
1.997901,0.325,0.046,-0.263,-61.096,-39.855,19.042,1
2.004834,0.316,0.09,-0.249,-59.387,-40.405,21.85,1
2.014229,0.29,0.141,-0.232,-63.232,-39.489,23.559,1
2.021752,0.249,0.192,-0.217,-68.969,-38.208,25.512,1
2.030657,0.27,0.214,-0.206,-68.847,-37.597,27.221,1
2.037854,0.339,0.23,-0.201,-62.011,-36.987,29.296,1
2.046035,0.426,0.229,-0.187,-52.673,-37.841,31.494,1
2.054566,0.481,0.24,-0.158,-43.09,-38.696,33.874,1
2.062315,0.571,0.253,-0.129,-39.245,-39.489,37.475,1
2.06941,0.648,0.289,-0.088,-36.743,-39.611,41.015,1
2.077715,0.628,0.364,-0.073,-35.522,-39.306,43.64,1
2.08634,0.557,0.461,-0.06,-37.231,-38.94,44.86,1
2.095086,0.515,0.506,-0.047,-38.269,-37.414,44.982,1
2.103657,0.508,0.487,-0.035,-41.931,-36.743,44.86,1
2.110443,0.504,0.535,-0.028,-44.616,-33.264,45.043,1
2.11831,0.498,0.571,-0.036,-44.738,-33.081,45.104,1
2.126613,0.505,0.582,-0.06,-39.001,-31.555,45.654,1
2.134539,0.527,0.56,-0.074,-32.348,-32.592,46.081,1
2.142913,0.558,0.513,-0.057,-21.362,-33.02,47.241,1
2.152474,0.579,0.448,-0.06,-7.69,-33.813,49.194,1
2.16039,0.587,0.391,-0.045,3.295,-34.362,52.612,1
2.169488,0.58,0.35,-0.045,7.324,-34.484,55.725,1
2.177255,0.572,0.313,-0.034,10.375,-34.667,59.753,1
2.185795,0.562,0.291,-0.029,13.549,-34.667,63.171,1
2.194108,0.517,0.267,-0.028,18.127,-35.034,67.565,1
2.20208,0.486,0.251,-0.031,22.338,-35.095,71.166,1
2.20945,0.467,0.219,-0.038,25.146,-35.034,74.89,1
2.217596,0.452,0.198,-0.05,25.634,-34.484,78.979,1
2.226264,0.382,0.177,-0.041,27.648,-33.63,81.909,1
2.233256,0.412,0.133,-0.07,30.029,-33.264,87.219,1
2.241371,0.429,0.101,-0.036,26.672,-32.043,91.491,1
2.249593,0.365,0.094,-0.031,19.653,-30.822,96.069,1
2.25655,0.304,0.11,-0.004,12.084,-28.93,100.83,1
2.264887,0.264,0.135,-0.02,3.906,-27.16,105.102,1
2.274417,0.173,0.157,-0.008,-0.488,-25.573,110.412,1
2.281822,0.175,0.153,0.0,-2.441,-24.963,115.539,1
2.292208,0.115,0.179,-0.017,-1.159,-24.291,119.75,1
2.299952,0.08,0.21,-0.039,1.831,-24.353,124.389,1
2.309042,0.086,0.26,-0.073,6.53,-24.414,129.15,1
2.317944,0.027,0.318,-0.115,12.084,-26.245,132.446,1
2.325028,-0.053,0.374,-0.123,20.751,-27.954,134.704,1
2.334147,-0.096,0.395,-0.153,30.09,-30.456,136.047,1
2.341021,-0.113,0.377,-0.167,35.827,-32.531,137.756,1
2.349882,-0.128,0.341,-0.192,34.118,-34.545,140.38,1
2.358012,-0.152,0.314,-0.205,27.404,-35.888,143.432,1
2.366011,-0.194,0.314,-0.217,18.249,-36.987,147.644,1
2.373755,-0.218,0.323,-0.235,13.671,-38.085,151.855,1
2.382241,-0.27,0.376,-0.256,15.197,-40.283,157.043,1
2.390848,-0.33,0.429,-0.273,24.353,-43.151,161.437,1
2.397926,-0.403,0.486,-0.287,39.367,-47.363,165.344,1
2.407095,-0.42,0.512,-0.298,53.466,-51.757,168.395,1
2.413699,-0.431,0.535,-0.297,63.781,-56.213,170.837,1
2.423124,-0.458,0.538,-0.293,68.786,-60.852,172.912,1
2.429775,-0.511,0.564,-0.276,71.166,-65.307,174.316,1
2.437192,-0.559,0.592,-0.267,73.364,-69.702,174.499,1
2.445516,-0.597,0.584,-0.248,73.181,-73.791,174.743,1
2.454351,-0.641,0.558,-0.233,68.908,-78.186,175.292,1
2.462045,-0.668,0.581,-0.223,70.434,-82.214,177.49,1
2.470261,-0.727,0.625,-0.218,82.458,-88.806,180.48,1
2.479337,-0.789,0.659,-0.2,94.055,-94.787,183.654,1
2.487106,-0.838,0.726,-0.203,100.646,-101.013,187.194,1
2.496101,-0.949,0.764,-0.191,95.52,-106.14,189.636,1
2.505579,-0.982,0.688,-0.135,56.213,-109.069,193.115,1
2.514371,-0.952,0.873,-0.138,33.325,-106.811,192.016,1
2.520766,-1.014,1.025,0.0,23.132,-110.229,190.124,1
2.529373,-1.004,1.104,0.013,18.615,-108.642,188.72,1
2.535675,-0.958,1.207,0.051,10.681,-110.534,184.997,1
2.543438,-0.967,1.307,0.098,12.207,-109.008,180.603,1
2.55107,-0.974,1.369,0.096,20.385,-111.999,175.781,1
2.559192,-1.017,1.416,0.134,38.757,-114.685,171.386,1
2.569098,-1.059,1.415,0.145,60.791,-119.628,166.992,1
2.575977,-1.098,1.423,0.189,88.684,-125.122,163.024,1
2.584773,-1.165,1.396,0.229,116.027,-130.859,160.095,1
2.594515,-1.138,1.385,0.269,130.004,-135.498,156.921,1
2.601833,-1.174,1.364,0.25,137.207,-139.16,154.235,1
2.609325,-1.199,1.293,0.286,119.018,-139.77,151.306,1
2.618746,-1.206,1.264,0.217,80.078,-138.854,149.475,1
2.625943,-1.21,1.268,0.314,36.071,-136.047,148.01,1
2.636014,-1.185,1.341,0.352,12.939,-133.178,146.118,1
2.643149,-1.173,1.379,0.405,4.699,-132.934,142.944,1
2.650622,-1.125,1.431,0.46,6.591,-132.629,139.77,1
2.658657,-1.136,1.38,0.519,13.0,-131.042,136.962,1
2.666375,-1.108,1.395,0.507,17.883,-130.554,133.972,1
2.674397,-1.082,1.41,0.509,24.108,-130.676,130.493,1
2.681595,-1.112,1.37,0.538,40.1,-131.896,126.892,1
2.689029,-1.129,1.371,0.618,67.077,-131.103,123.535,1
2.698139,-1.143,1.345,0.569,90.393,-132.812,119.445,1
2.705641,-1.163,1.322,0.604,110.29,-132.812,115.051,1
2.713202,-1.199,1.282,0.579,117.248,-132.995,111.145,1
2.721113,-1.161,1.235,0.592,115.661,-131.713,107.666,1
2.73104,-1.148,1.196,0.582,102.172,-128.295,104.064,1
2.738514,-1.178,1.229,0.597,87.28,-126.586,100.83,1
2.746292,-1.179,1.284,0.614,75.561,-123.291,96.618,1
2.755007,-1.159,1.339,0.65,64.331,-120.361,91.125,1
2.763786,-1.092,1.364,0.67,52.856,-116.577,86.059,1
2.770886,-1.057,1.392,0.711,44.616,-111.999,79.65,1
2.779955,-1.0,1.396,0.715,42.419,-107.971,74.035,1
2.788623,-0.978,1.399,0.709,44.067,-103.393,67.871,1
2.795413,-0.972,1.391,0.692,50.231,-100.646,62.377,1
2.804385,-0.963,1.366,0.664,61.584,-98.754,56.579,1
2.812503,-0.965,1.334,0.636,78.186,-96.74,50.415,1
2.819855,-0.932,1.286,0.587,92.102,-95.397,45.41,1
2.826996,-0.913,1.206,0.558,106.445,-93.383,40.222,1
2.835919,-0.89,1.132,0.507,111.389,-91.857,37.231,1
2.841578,-0.871,1.086,0.49,114.99,-89.782,34.545,1
2.849932,-0.897,1.051,0.451,115.539,-87.158,31.921,1
2.857963,-0.888,0.998,0.407,109.741,-84.838,30.212,1
2.865886,-0.84,0.941,0.372,102.905,-81.909,28.625,1
2.87469,-0.836,0.913,0.363,95.275,-79.223,26.611,1
2.883758,-0.833,0.887,0.319,88.806,-76.599,25.268,1
2.890527,-0.85,0.875,0.322,88.806,-74.707,23.254,1
2.897734,-0.867,0.833,0.282,93.322,-73.608,21.972,1
2.906864,-0.902,0.821,0.315,99.609,-74.035,20.019,1
2.913304,-0.91,0.819,0.293,110.29,-71.899,18.554,1
2.921153,-0.913,0.784,0.269,117.492,-72.082,16.54,1
2.929907,-0.925,0.776,0.257,120.361,-70.434,14.343,1
2.938916,-0.937,0.74,0.235,114.44,-68.542,11.657,1
2.945947,-0.92,0.704,0.227,100.952,-65.246,10.009,1
2.953907,-0.895,0.684,0.228,83.557,-61.157,8.605,1
2.962384,-0.904,0.666,0.231,71.044,-57.067,7.873,1
2.971552,-0.846,0.616,0.201,50.537,-51.818,6.591,1
2.97861,-0.816,0.599,0.184,31.738,-47.546,5.981,1
2.987186,-0.801,0.596,0.198,14.831,-43.518,5.31,1
2.994024,-0.843,0.589,0.167,2.441,-39.733,4.516,1
3.003046,-0.897,0.591,0.163,-6.042,-36.254,3.295,1
3.010393,-0.9,0.583,0.147,-9.521,-34.545,1.831,1
3.01906,-0.878,0.558,0.148,-10.62,-32.47,0.976,1
3.027918,-0.876,0.545,0.136,-8.605,-30.639,-0.366,1
3.034941,-0.897,0.542,0.128,-3.845,-29.052,-1.403,1
3.044022,-0.901,0.533,0.11,6.286,-27.709,-2.624,1
3.050385,-0.915,0.526,0.103,15.136,-26.916,-3.601,1
3.060029,-0.921,0.505,0.099,20.751,-25.329,-4.882,1
3.068609,-0.926,0.462,0.087,18.676,-23.803,-6.225,1
3.075395,-0.923,0.423,0.092,7.873,-20.202,-7.385,1
3.083482,-0.915,0.396,0.081,-7.202,-17.15,-8.422,1
3.093921,-0.912,0.378,0.083,-26.428,-13.793,-8.728,1
3.102991,-0.949,0.359,0.055,-52.062,-9.338,-9.338,1
3.110016,-0.981,0.357,0.046,-79.162,-5.92,-9.338,1
3.117744,-0.978,0.354,0.032,-104.309,-3.051,-9.704,1
3.127025,-0.965,0.365,0.027,-122.863,-1.464,-9.948,1
3.135698,-0.957,0.365,0.019,-138.977,-0.122,-10.009,1
3.143436,-0.927,0.371,0.033,-148.498,0.244,-9.704,1
3.152183,-0.893,0.369,0.024,-151.794,0.061,-9.46,1
3.159296,-0.848,0.384,0.022,-147.888,-1.098,-8.422,1
3.168499,-0.847,0.386,0.023,-140.014,-2.868,-7.324,1
3.177273,-0.848,0.384,0.022,-127.685,-5.31,-5.493,1
3.186018,-0.842,0.384,0.007,-117.37,-7.019,-2.807,1
3.194406,-0.891,0.402,-0.011,-107.971,-10.986,0.305,1
3.203219,-0.938,0.409,-0.01,-102.722,-13.244,2.502,1
3.209822,-0.902,0.427,-0.012,-98.876,-15.319,5.92,1
3.219179,-0.862,0.449,-0.02,-96.679,-16.784,8.605,1
3.22613,-0.883,0.505,-0.036,-92.346,-18.859,10.864,1
3.236844,-0.915,0.552,-0.048,-85.876,-21.484,12.268,1
3.244241,-0.936,0.591,-0.065,-81.481,-24.475,13.427,1
3.251735,-0.937,0.62,-0.069,-83.557,-26.733,13.977,1
3.260821,-0.913,0.644,-0.069,-89.233,-27.954,14.831,1
3.268514,-0.889,0.687,-0.066,-95.031,-29.724,15.319,1
3.276576,-0.91,0.727,-0.075,-94.909,-31.311,15.502,1
3.286338,-0.93,0.751,-0.08,-91.735,-32.958,15.014,1
3.294405,-0.938,0.763,-0.079,-86.73,-34.912,14.831,1
3.303203,-0.931,0.762,-0.073,-83.312,-36.743,14.892,1
3.310291,-0.935,0.762,-0.069,-79.345,-38.085,15.014,1
3.318094,-0.937,0.776,-0.058,-72.082,-39.55,15.563,1
3.326137,-0.913,0.775,-0.032,-59.936,-41.015,15.991,1
3.334102,-0.885,0.767,-0.018,-42.114,-42.297,16.296,1
3.342747,-0.887,0.746,-0.01,-23.437,-43.579,16.906,1
3.351488,-0.895,0.729,-0.007,-9.094,-44.616,17.7,1
3.359664,-0.888,0.703,0.004,5.187,-45.593,18.554,1
3.366682,-0.878,0.684,0.016,15.197,-45.715,19.775,1
3.373882,-0.856,0.661,0.02,22.644,-45.654,20.629,1
3.382862,-0.83,0.636,0.031,26.062,-45.288,21.301,1
3.391315,-0.839,0.604,0.052,25.146,-43.701,21.667,1
3.398927,-0.858,0.569,0.055,14.77,-40.649,21.972,1
3.407668,-0.854,0.528,0.074,-5.493,-36.193,22.521,1
3.415797,-0.811,0.515,0.083,-24.902,-31.86,23.132,1
3.422888,-0.744,0.49,0.11,-39.489,-27.038,23.864,1
3.431052,-0.673,0.459,0.099,-46.264,-23.559,25.024,1
3.438777,-0.658,0.427,0.113,-44.067,-20.935,26.733,1
3.446258,-0.676,0.432,0.117,-31.799,-19.287,27.893,1
3.454842,-0.663,0.389,0.115,-14.892,-17.944,29.907,1
3.462234,-0.649,0.353,0.124,3.906,-17.272,32.775,1
3.469935,-0.635,0.3,0.118,25.268,-15.319,38.085,1
3.47708,-0.589,0.256,0.089,34.118,-14.221,44.433,1
3.486184,-0.578,0.305,0.069,29.968,-11.901,51.025,1
3.493833,-0.574,0.306,0.021,13.977,-8.3,57.006,1
3.501272,-0.671,0.36,-0.052,-14.099,-5.065,62.866,1
3.509049,-0.85,0.477,-0.14,-54.443,-2.502,68.054,1
3.518798,-0.953,0.619,-0.181,-79.833,-1.708,70.8,1
3.526963,-0.934,0.771,-0.215,-87.28,-1.647,71.228,1
3.535191,-0.926,0.942,-0.268,-75.988,-4.699,69.763,1
3.542757,-0.91,1.109,-0.322,-49.865,-9.094,66.65,1
3.550845,-0.895,1.223,-0.355,-20.202,-15.136,62.316,1
3.560197,-0.877,1.288,-0.358,15.197,-20.629,56.396,1
3.567393,-0.845,1.29,-0.338,37.17,-24.78,50.109,1
3.575313,-0.831,1.317,-0.359,43.701,-26.123,44.982,1
3.583485,-0.799,1.326,-0.364,40.1,-25.939,39.733,1
3.592855,-0.797,1.342,-0.385,27.282,-25.634,33.264,1
3.602747,-0.804,1.376,-0.407,12.023,-24.047,25.939,1
3.61002,-0.828,1.418,-0.413,1.953,-24.841,18.066,1
3.617342,-0.826,1.429,-0.408,0.488,-25.268,11.291,1
3.62562,-0.801,1.394,-0.392,3.845,-26.55,3.234,1
3.634268,-0.799,1.37,-0.382,8.3,-28.259,-3.234,1
3.642859,-0.799,1.314,-0.353,13.366,-28.564,-9.033,1
3.650155,-0.79,1.272,-0.319,22.644,-30.212,-15.686,1
3.659293,-0.813,1.221,-0.288,33.02,-30.883,-20.935,1
3.667436,-0.819,1.153,-0.268,42.968,-31.921,-26.733,1
3.676503,-0.854,1.082,-0.248,50.231,-31.555,-31.738,1
3.686586,-0.872,0.99,-0.224,52.734,-31.066,-35.705,1
3.694041,-0.886,0.884,-0.187,48.95,-29.113,-39.306,1
3.701925,-0.887,0.817,-0.176,44.25,-27.648,-40.71,1
3.711318,-0.878,0.753,-0.163,40.649,-26.306,-41.687,1
3.720532,-0.862,0.699,-0.146,42.114,-25.085,-41.748,1
3.728256,-0.834,0.648,-0.129,50.781,-24.047,-41.381,1
3.735414,-0.824,0.614,-0.127,65.185,-23.864,-40.649,1
3.743907,-0.82,0.589,-0.127,80.139,-24.169,-39.489,1
3.752833,-0.811,0.566,-0.122,100.28,-24.658,-39.001,1
3.760265,-0.811,0.536,-0.117,119.689,-24.902,-37.963,1
3.769208,-0.804,0.503,-0.11,134.521,-25.146,-36.865,1
3.778096,-0.777,0.461,-0.106,145.324,-24.963,-35.766,1
3.786421,-0.743,0.43,-0.096,152.648,-23.62,-34.057,1
3.795182,-0.721,0.4,-0.088,153.686,-21.606,-32.104,1
3.80332,-0.698,0.378,-0.09,148.376,-19.042,-29.724,1
3.810326,-0.68,0.368,-0.1,132.629,-15.38,-27.465,1
3.820081,-0.687,0.365,-0.11,113.525,-12.145,-25.39,1
3.827084,-0.69,0.362,-0.109,88.195,-8.117,-23.315,1
3.836472,-0.694,0.362,-0.113,65.917,-4.821,-21.728,1
3.843385,-0.709,0.363,-0.115,40.893,-1.525,-19.836,1
3.851124,-0.71,0.359,-0.112,18.432,1.098,-18.188,1
3.859577,-0.707,0.347,-0.104,-6.835,4.272,-16.296,1
3.867057,-0.708,0.361,-0.103,-27.526,6.713,-14.282,1
3.875603,-0.714,0.353,-0.091,-45.837,8.972,-12.512,1
3.883932,-0.726,0.347,-0.082,-63.354,11.23,-9.887,1
3.891016,-0.723,0.354,-0.07,-75.5,13.0,-7.202,1
3.899588,-0.726,0.375,-0.058,-82.458,14.587,-4.76,1
3.909253,-0.721,0.403,-0.049,-82.824,16.235,-1.831,1
3.916674,-0.729,0.443,-0.062,-79.284,16.845,0.793,1
3.925755,-0.726,0.476,-0.069,-75.012,17.333,2.441,1
3.934359,-0.72,0.506,-0.072,-67.077,17.883,4.089,1
3.941528,-0.737,0.541,-0.084,-58.41,17.883,5.31,1
3.951159,-0.79,0.57,-0.093,-49.499,17.822,5.554,1
3.958656,-0.825,0.583,-0.089,-45.288,18.249,5.676,1
3.96729,-0.807,0.587,-0.069,-44.86,18.798,5.859,1
3.975119,-0.805,0.602,-0.054,-46.63,20.019,6.225,1
3.983348,-0.799,0.61,-0.02,-47.485,21.667,6.713,1
3.991675,-0.798,0.631,0.01,-48.034,23.559,7.141,1
3.999971,-0.803,0.66,0.034,-46.997,26.245,7.385,1
4.007528,-0.791,0.688,0.034,-43.762,28.869,7.629,1
4.0152,-0.791,0.728,0.037,-37.963,30.029,7.385,1
4.024127,-0.82,0.772,0.044,-26.733,31.127,6.652,1
4.031964,-0.854,0.807,0.047,-10.62,31.677,5.798,1
4.038986,-0.85,0.827,0.044,1.77,32.104,5.187,1
4.046059,-0.829,0.859,0.041,10.742,33.081,4.821,1
4.05501,-0.834,0.898,0.046,17.028,33.569,3.845,1
4.061462,-0.866,0.944,0.068,22.216,34.729,2.197,1
4.070317,-0.867,0.971,0.078,24.597,35.949,0.427,1
4.077714,-0.841,0.959,0.105,19.958,38.452,-2.014,1
4.085987,-0.802,0.992,0.148,3.479,43.701,-3.051,1
4.093268,-0.804,0.997,0.117,-8.239,45.776,-5.798,1
4.101443,-0.868,1.0,0.163,-12.939,48.645,-7.629,1
4.109201,-0.816,1.006,0.15,-13.61,52.185,-9.033,1
4.118358,-0.801,1.039,0.166,-9.46,53.161,-11.291,1
4.127725,-0.812,1.09,0.17,8.666,54.626,-13.549,1
4.134995,-0.828,1.136,0.187,34.912,53.894,-15.93,1
4.144324,-0.81,1.145,0.208,70.861,53.833,-18.432,1
4.152041,-0.77,1.151,0.208,99.182,54.626,-20.202,1
4.159904,-0.755,1.165,0.188,124.816,56.091,-22.094,1
4.168193,-0.773,1.199,0.169,143.859,58.227,-24.475,1
4.175304,-0.796,1.206,0.128,153.137,59.387,-27.099,1
4.183126,-0.825,1.198,0.102,154.052,61.645,-29.846,1
4.191235,-0.837,1.177,0.065,146.972,63.842,-32.775,1
4.198913,-0.848,1.155,0.034,130.737,66.894,-36.193,1
4.207905,-0.875,1.108,0.0,105.529,70.129,-39.489,1
4.215034,-0.889,1.041,-0.054,62.988,74.279,-42.846,1
4.223373,-0.875,0.994,-0.077,7.507,78.857,-45.715,1
4.232302,-0.9,0.975,-0.111,-60.852,84.167,-50.17,1
4.239942,-0.903,0.972,-0.121,-111.755,87.463,-54.565,1
4.250228,-0.866,0.97,-0.128,-149.597,88.928,-59.326,1
4.256936,-0.883,0.965,-0.145,-161.254,87.402,-63.232,1
4.265322,-0.952,0.972,-0.164,-150.146,82.824,-65.856,1
4.274466,-0.981,0.962,-0.173,-126.159,77.636,-67.077,1
4.281547,-0.984,0.928,-0.175,-94.238,72.204,-67.321,1
4.290941,-0.975,0.897,-0.185,-49.621,65.49,-66.284,1
4.299462,-0.997,0.911,-0.208,1.647,57.922,-63.415,1
4.307001,-0.999,0.963,-0.229,59.082,50.109,-60.302,1
4.315721,-1.0,1.014,-0.248,108.764,43.518,-58.41,1
4.32297,-0.998,1.046,-0.268,148.071,37.597,-57.006,1
4.332725,-0.988,1.079,-0.25,169.311,33.691,-56.152,1
4.33952,-0.96,1.124,-0.234,162.536,32.714,-56.335,1
4.348191,-0.94,1.194,-0.209,138.427,34.301,-57.739,1
4.356478,-0.914,1.296,-0.197,105.224,36.682,-60.791,1
4.364389,-0.894,1.359,-0.182,57.678,39.672,-65.795,1
4.373686,-0.849,1.462,-0.129,12.39,43.884,-72.57,1
4.381789,-0.804,1.58,-0.108,-20.202,48.522,-79.589,1
4.389115,-0.841,1.667,-0.112,-39.855,48.828,-87.768,1
4.396116,-0.877,1.688,-0.087,-54.016,51.696,-97.29,1
4.403509,-0.894,1.692,-0.116,-69.458,52.856,-104.492,1
4.412009,-0.984,1.732,-0.135,-79.345,53.71,-111.877,1
4.419804,-1.056,1.756,-0.147,-81.237,53.588,-119.262,1
4.427274,-1.059,1.765,-0.152,-81.176,52.246,-124.389,1
4.434404,-1.133,1.74,-0.189,-88.562,53.283,-131.469,1
4.443802,-1.194,1.75,-0.247,-93.627,52.001,-136.596,1
4.450692,-1.246,1.749,-0.274,-92.407,49.987,-142.639,1
4.459583,-1.253,1.741,-0.426,-88.623,46.874,-146.972,1
4.46782,-1.317,1.785,-0.448,-77.819,41.503,-152.038,1
4.476043,-1.296,1.782,-0.548,-61.95,39.306,-155.395,1
4.484627,-1.29,1.809,-0.654,-47.058,33.508,-160.278,1
4.493735,-1.368,1.81,-0.755,-37.109,27.587,-163.879,1
4.500882,-1.349,1.754,-0.728,-41.137,21.85,-169.067,1
4.510132,-1.209,1.662,-0.895,-62.622,24.902,-173.522,1
4.518039,-1.247,1.625,-0.958,-105.529,16.54,-180.358,1
4.526904,-1.192,1.577,-0.873,-140.93,19.592,-185.974,1
4.53605,-1.201,1.568,-0.956,-173.095,11.84,-191.833,1
4.543638,-1.279,1.553,-0.925,-189.147,7.629,-195.556,1
4.552052,-1.261,1.483,-0.994,-205.627,-1.586,-199.035,1
4.559601,-1.359,1.417,-0.989,-219.665,-9.643,-201.171,1
4.568928,-1.336,1.372,-0.978,-234.069,-20.996,-202.026,1
4.576104,-1.337,1.352,-0.926,-227.722,-32.714,-201.477,1
4.586674,-1.302,1.327,-0.898,-208.435,-44.189,-199.829,1
4.593889,-1.3,1.299,-0.84,-172.729,-58.288,-197.998,1
4.604715,-1.259,1.252,-0.849,-129.516,-70.007,-195.434,1
4.611533,-1.257,1.176,-0.854,-100.28,-79.833,-193.847,1
4.622349,-1.248,1.112,-0.868,-91.796,-86.364,-192.443,1
4.629635,-1.185,1.02,-0.855,-113.342,-91.552,-191.04,1
4.638891,-1.13,0.984,-0.824,-144.409,-93.017,-189.147,1
4.646467,-1.067,0.968,-0.767,-179.748,-95.764,-186.34,1
4.653863,-1.01,0.974,-0.713,-200.927,-98.388,-183.349,1
4.663325,-0.991,0.969,-0.682,-210.144,-103.21,-179.199,1
4.672452,-0.987,0.963,-0.65,-204.101,-108.276,-175.109,1
4.679453,-0.962,0.958,-0.656,-185.729,-114.99,-170.41,1
4.690029,-0.952,0.937,-0.677,-166.992,-122.192,-166.442,1
4.697035,-0.937,0.94,-0.702,-151.55,-128.845,-162.475,1
4.707808,-0.91,0.954,-0.731,-140.625,-135.864,-159.24,1
4.715392,-0.881,0.982,-0.78,-139.526,-140.502,-156.677,1
4.723283,-0.93,1.027,-0.897,-152.893,-147.277,-154.052,1
4.733535,-0.989,0.999,-0.817,-159.301,-153.442,-152.404,1
4.741524,-0.917,1.027,-0.808,-157.714,-160.522,-150.573,1
4.750683,-0.983,1.059,-0.675,-144.226,-167.175,-149.414,1
4.758214,-0.942,1.018,-0.66,-132.69,-173.278,-148.498,1
4.76693,-0.874,0.971,-0.579,-120.727,-178.222,-147.338,1
4.776165,-0.834,0.908,-0.558,-115.173,-180.969,-146.484,1
4.783872,-0.87,0.844,-0.509,-120.483,-185.058,-145.019,1
4.794171,-0.84,0.766,-0.457,-125.732,-187.499,-142.639,1
4.804395,-0.793,0.726,-0.327,-123.535,-190.856,-139.221,1
4.810279,-0.76,0.677,-0.269,-114.074,-193.359,-135.437,1
4.819393,-0.638,0.617,-0.208,-104.309,-195.312,-132.812,1
4.827941,-0.7,0.559,-0.127,-89.782,-197.509,-129.272,1
4.836234,-0.658,0.491,-0.029,-75.561,-198.242,-126.953,1
4.844473,-0.629,0.413,-0.007,-60.852,-198.547,-123.901,1
4.85204,-0.591,0.331,0.061,-51.513,-198.73,-120.544,1
4.860416,-0.512,0.29,0.079,-42.968,-198.242,-119.079,1
4.869158,-0.583,0.223,0.095,-38.085,-197.875,-116.271,1
4.878,-0.593,0.192,0.101,-41.931,-197.326,-113.586,1
4.8874,-0.546,0.125,0.123,-52.001,-195.922,-109.069,1
4.894934,-0.462,0.055,0.131,-68.298,-194.03,-102.6,1
4.904325,-0.361,0.008,0.136,-88.439,-192.077,-96.313,1
4.910314,-0.317,0.017,0.167,-111.694,-189.697,-88.623,1
4.91943,-0.301,0.02,0.177,-125.427,-187.744,-81.909,1
4.92564,-0.312,0.042,0.19,-133.605,-186.645,-74.523,1
4.933552,-0.307,0.068,0.199,-134.704,-187.988,-69.458,1
4.941762,-0.299,0.061,0.242,-131.835,-187.316,-65.49,1
4.948553,-0.313,0.046,0.216,-128.173,-186.889,-60.485,1
4.957829,-0.339,0.042,0.224,-126.647,-187.377,-56.518,1
4.966318,-0.337,0.02,0.206,-126.281,-186.401,-52.49,1
4.974071,-0.364,0.008,0.188,-128.906,-187.194,-47.973,1
4.982667,-0.4,0.001,0.177,-131.652,-187.133,-44.006,1
4.991281,-0.422,0.001,0.171,-133.544,-189.086,-39.367,1
4.998294,-0.439,0.0,0.182,-132.324,-190.429,-35.705,1
5.006947,-0.458,0.001,0.206,-126.953,-193.054,-31.005,1
5.015541,-0.485,-0.009,0.226,-121.154,-195.19,-27.038,1
5.024473,-0.524,-0.034,0.245,-117.126,-197.692,-21.972,1
5.03358,-0.545,-0.049,0.253,-119.995,-198.547,-16.052,1
5.04257,-0.59,-0.052,0.27,-121.215,-200.073,-10.07,1
5.050914,-0.632,-0.051,0.285,-114.624,-202.331,-4.516,1
5.05987,-0.677,-0.065,0.308,-104.37,-204.528,0.732,1
5.067393,-0.683,-0.102,0.331,-95.153,-206.787,4.394,1
5.075667,-0.706,-0.147,0.357,-88.134,-209.411,9.338,1
5.08374,-0.751,-0.196,0.392,-87.585,-210.937,13.366,1
5.092047,-0.808,-0.236,0.437,-88.745,-211.791,18.066,1
5.101833,-0.838,-0.287,0.473,-92.895,-212.28,24.475,1
5.110175,-0.908,-0.344,0.525,-101.806,-211.791,31.86,1
5.117751,-1.006,-0.372,0.581,-112.731,-210.51,40.954,1
5.125447,-1.074,-0.402,0.651,-123.291,-208.374,51.147,1
5.134651,-1.176,-0.438,0.691,-131.652,-206.359,60.913,1
5.141815,-1.052,-0.443,0.747,-135.803,-203.979,70.251,1
5.1501,-1.141,-0.476,0.861,-133.911,-203.186,80.505,1
5.158014,-1.205,-0.501,0.927,-126.892,-198.669,93.139,1
5.167558,-1.312,-0.516,1.0,-122.741,-196.35,103.454,1
5.175194,-1.383,-0.575,1.053,-123.596,-190.673,115.905,1
5.184191,-1.472,-0.567,1.132,-123.291,-187.011,126.525,1
5.191424,-1.509,-0.585,1.233,-109.985,-181.762,139.343,1
5.198816,-1.588,-0.606,1.308,-92.163,-176.208,151.489,1
5.206473,-1.604,-0.659,1.382,-81.542,-171.508,162.475,1
5.214027,-1.634,-0.713,1.476,-77.27,-164.001,173.522,1
5.223138,-1.803,-0.743,1.556,-88.378,-155.273,184.875,1
5.230406,-1.96,-0.761,1.671,-101.562,-144.47,197.692,1
5.239961,-2.145,-0.8,1.77,-120.666,-128.723,213.439,1
5.249414,-2.308,-0.796,1.879,-134.826,-112.792,230.529,1
5.256805,-2.55,-0.785,1.957,-135.498,-93.994,248.657,1
5.265711,-2.648,-0.842,2.0,-138.854,-77.941,265.319,1
5.273248,-2.712,-0.911,2.016,-164.611,-53.466,285.705,1
5.283753,-2.838,-0.902,2.05,-194.458,-27.77,306.274,1
5.290955,-3.177,-0.895,2.085,-218.994,2.197,327.575,1
5.300363,-3.309,-0.898,2.118,-241.76,32.714,349.243,1
5.307942,-3.505,-0.898,2.204,-254.394,63.659,368.041,1
5.315616,-3.813,-0.896,2.241,-274.475,101.074,389.526,1
5.324662,-4.162,-0.878,2.354,-294.494,137.512,407.775,1
5.333619,-4.568,-0.869,2.429,-324.951,186.218,428.283,1
5.340108,-4.835,-0.818,2.526,-345.397,229.858,443.969,1
5.349063,-5.555,-0.731,2.574,-362.121,279.052,458.312,1
5.356581,-6.138,-0.64,2.54,-380.92,336.547,473.022,1
5.365182,-6.843,-0.415,2.451,-382.08,387.084,482.116,1
5.374254,-7.577,-0.175,2.35,-371.765,442.626,488.891,1
5.383733,-8.413,0.079,2.204,-354.858,497.497,492.004,1
5.391697,-9.304,0.338,2.046,-335.082,547.546,490.6,1
5.398911,-10.24,0.639,1.882,-323.242,597.717,485.412,1
5.408056,-11.145,0.91,1.726,-317.749,638.61,475.891,1
5.416993,-12.17,1.207,1.456,-312.683,683.959,459.96,1
5.422866,-13.11,1.487,1.123,-298.522,717.407,442.993,1
5.430716,-13.953,1.73,0.872,-284.362,746.887,423.461,1
5.439464,-14.859,1.927,0.604,-285.827,775.329,401.916,1
5.447639,-15.515,2.052,0.271,-313.903,802.123,376.159,1
5.454587,-15.992,2.119,-0.174,-368.835,827.941,342.712,1
5.46437,-15.999,2.187,-0.532,-458.74,855.651,289.123,1
5.471563,-15.999,2.228,-0.834,-536.987,880.126,221.557,1
5.478721,-15.999,2.317,-1.213,-566.223,893.371,157.714,1
5.488084,-15.999,2.453,-1.759,-551.696,886.535,90.698,1
5.494782,-15.752,2.596,-2.463,-481.506,861.511,23.925,1
5.503024,-14.73,2.488,-2.88,-368.164,818.969,-39.978,1
5.511758,-13.552,2.165,-3.428,-315.856,785.4,-81.115,1
5.519023,-12.099,1.806,-3.877,-328.063,737.243,-123.535,1
5.527931,-11.164,1.477,-4.009,-365.905,701.599,-155.273,1
5.5362,-10.014,1.169,-4.099,-401.855,657.897,-186.584,1
5.542306,-8.904,0.77,-3.865,-399.291,614.624,-214.721,1
5.550866,-7.865,0.441,-3.78,-366.699,568.054,-235.595,1
5.558947,-7.036,0.13,-3.706,-308.654,510.314,-251.464,1
5.567728,-6.191,-0.137,-3.648,-247.924,457.702,-259.46,1
5.576317,-5.371,-0.456,-3.657,-216.43,414.367,-260.986,1
5.584873,-4.84,-0.658,-3.597,-196.838,369.262,-257.69,1
5.593033,-4.25,-0.817,-3.49,-186.584,328.186,-252.563,1
5.601374,-3.81,-0.929,-3.355,-185.241,294.372,-246.887,1
5.610148,-3.341,-0.951,-3.135,-177.917,256.469,-239.257,1
5.616563,-3.0,-0.91,-2.898,-161.865,225.524,-232.36,1
5.624823,-2.721,-0.848,-2.657,-141.967,197.021,-224.609,1
5.633011,-2.488,-0.775,-2.387,-122.009,168.395,-215.209,1
5.64199,-2.35,-0.688,-2.168,-107.116,147.46,-207.214,1
5.649766,-2.183,-0.595,-1.921,-83.862,124.694,-198.242,1
5.657886,-2.039,-0.572,-1.717,-65.551,109.069,-190.429,1
5.66648,-1.875,-0.55,-1.517,-51.452,94.055,-180.603,1
5.675193,-1.706,-0.523,-1.328,-42.541,83.312,-171.997,1
5.683411,-1.551,-0.517,-1.216,-37.963,73.486,-161.682,1
5.691083,-1.406,-0.495,-1.109,-38.94,65.734,-153.137,1
5.699707,-1.254,-0.45,-1.002,-43.151,58.715,-142.578,1
5.70786,-1.104,-0.415,-0.913,-46.691,52.551,-134.399,1
5.717045,-0.974,-0.366,-0.855,-47.424,45.654,-124.755,1
5.724748,-0.831,-0.294,-0.8,-47.18,38.94,-116.21,1
5.732496,-0.726,-0.239,-0.736,-47.058,33.691,-109.13,1
5.74171,-0.622,-0.202,-0.693,-47.973,27.832,-101.501,1
5.748749,-0.575,-0.156,-0.639,-47.912,23.437,-95.397,1
5.756867,-0.458,-0.128,-0.584,-45.41,18.676,-89.66,1
5.765873,-0.384,-0.101,-0.526,-38.818,14.404,-83.251,1
5.773578,-0.335,-0.078,-0.467,-31.616,10.62,-77.514,1
5.781778,-0.286,-0.051,-0.411,-21.118,7.263,-71.289,1
5.789881,-0.224,-0.026,-0.376,-12.268,4.394,-65.917,1
5.796924,-0.147,-0.002,-0.331,-5.126,2.136,-61.279,1
5.804665,-0.109,0.016,-0.3,-0.488,0.061,-56.03,1
5.812704,-0.079,0.029,-0.283,0.305,-1.403,-51.696,1
5.82207,-0.048,0.035,-0.253,0.549,-2.441,-47.546,1
5.828426,-0.045,0.057,-0.238,1.22,-3.601,-42.907,1
5.83626,0.023,0.051,-0.219,2.319,-4.577,-38.879,1
5.844475,0.05,0.051,-0.229,0.793,-5.249,-34.667,1
5.852796,0.038,0.062,-0.221,-2.136,-5.676,-30.212,1
5.860929,0.039,0.068,-0.221,-6.774,-6.103,-25.329,1
5.870033,0.056,0.078,-0.212,-15.502,-5.92,-19.775,1
5.876735,0.084,0.092,-0.203,-22.888,-5.737,-14.77,1
5.884715,0.095,0.116,-0.185,-28.259,-5.798,-8.85,1
5.892989,0.131,0.162,-0.179,-28.991,-6.225,-4.028,1
5.899657,0.115,0.199,-0.165,-24.902,-6.835,0.61,1
5.908138,0.13,0.231,-0.173,-18.676,-7.324,4.638,1
5.916215,0.125,0.258,-0.174,-13.61,-8.605,8.178,1
5.923302,0.107,0.268,-0.19,-11.23,-8.728,11.657,1
5.930533,0.103,0.28,-0.196,-11.901,-9.643,15.075,1
5.938678,0.097,0.291,-0.201,-12.939,-9.643,18.249,1
5.946123,0.096,0.304,-0.215,-14.831,-10.559,21.667,1
5.954836,0.065,0.31,-0.235,-18.188,-11.108,24.597,1
5.960795,0.049,0.317,-0.242,-22.277,-11.596,27.709,1
5.969821,0.058,0.314,-0.25,-26.733,-12.207,30.334,1
5.976387,0.064,0.332,-0.251,-34.057,-11.84,34.179,1
5.984506,0.062,0.347,-0.253,-37.353,-12.817,36.987,1
5.993276,0.068,0.356,-0.237,-37.719,-12.756,40.588,1
5.999402,0.082,0.376,-0.25,-38.574,-13.305,43.823,1
6.008117,0.062,0.394,-0.248,-38.696,-13.916,46.142,1
6.015935,0.056,0.42,-0.25,-37.475,-14.404,48.767,1
6.023006,0.052,0.437,-0.245,-33.081,-16.113,51.269,1
6.031635,0.056,0.447,-0.231,-25.695,-17.333,53.527,1
6.039796,0.046,0.46,-0.232,-16.784,-19.409,56.274,1
6.046264,0.043,0.482,-0.239,-11.657,-20.812,58.715,1
6.054402,0.032,0.507,-0.252,-9.46,-22.399,60.974,1
6.062568,0.013,0.53,-0.25,-9.033,-23.62,63.171,1
6.070651,-0.002,0.547,-0.257,-11.657,-24.597,65.979,1
6.078807,-0.02,0.56,-0.265,-19.165,-25.268,68.298,1
6.086992,-0.048,0.573,-0.26,-31.616,-24.841,70.434,1
6.094386,-0.045,0.588,-0.268,-45.837,-24.658,73.059,1
6.100963,-0.065,0.618,-0.258,-58.227,-24.597,75.439,1
6.109182,-0.1,0.641,-0.25,-64.575,-24.414,78.063,1
6.116824,-0.125,0.67,-0.24,-60.729,-25.146,80.139,1
6.125156,-0.138,0.694,-0.234,-50.781,-26.428,82.214,1
6.132102,-0.164,0.71,-0.235,-39.245,-27.832,84.167,1
6.139567,-0.111,0.721,-0.238,-28.381,-29.174,85.754,1
6.148098,-0.133,0.732,-0.268,-19.897,-30.456,87.524,1
6.155652,-0.153,0.727,-0.271,-27.16,-32.043,89.233,1
6.163877,-0.193,0.748,-0.282,-42.358,-31.311,90.942,1
6.171735,-0.222,0.78,-0.272,-59.143,-31.982,92.346,1
6.179457,-0.255,0.815,-0.25,-72.143,-31.372,94.421,1
6.186327,-0.268,0.838,-0.253,-78.674,-32.287,96.313,1
6.195095,-0.301,0.851,-0.211,-76.904,-32.653,97.656,1
6.20172,-0.309,0.861,-0.213,-70.861,-33.569,99.426,1
6.210352,-0.314,0.881,-0.203,-60.302,-35.339,101.318,1
6.21693,-0.317,0.9,-0.218,-47.79,-36.682,103.088,1
6.224981,-0.327,0.931,-0.239,-38.208,-38.879,104.248,1
6.233319,-0.343,0.955,-0.244,-31.249,-40.405,105.529,1
6.240756,-0.363,0.996,-0.272,-26.855,-42.053,106.14,1
6.248952,-0.37,1.009,-0.282,-26.184,-43.457,106.628,1
6.256706,-0.41,1.031,-0.284,-28.686,-44.433,107.177,1
6.264798,-0.426,1.047,-0.29,-32.653,-45.532,107.543,1
6.272528,-0.446,1.048,-0.274,-38.146,-45.41,107.788,1
6.280446,-0.45,1.057,-0.275,-43.518,-45.898,107.788,1
6.288676,-0.461,1.075,-0.262,-44.616,-46.691,108.581,1
6.296347,-0.478,1.107,-0.257,-37.658,-48.034,109.13,1
6.304028,-0.482,1.152,-0.261,-25.573,-50.598,108.886,1
6.31174,-0.485,1.188,-0.267,-11.169,-53.466,108.154,1
6.319807,-0.469,1.219,-0.268,4.15,-57.556,106.872,1
6.327077,-0.458,1.229,-0.27,12.329,-60.485,105.285,1
6.333884,-0.447,1.23,-0.28,14.343,-63.415,104.125,1
6.3413,-0.464,1.228,-0.276,11.84,-65.612,102.6,1
6.35003,-0.483,1.218,-0.272,6.53,-67.016,101.684,1
6.356916,-0.489,1.21,-0.247,-3.784,-68.298,100.524,1
6.365223,-0.474,1.215,-0.224,-11.169,-68.725,99.853,1
6.373188,-0.469,1.22,-0.205,-14.465,-69.213,99.243,1
6.379649,-0.492,1.227,-0.193,-14.038,-69.396,98.632,1
6.387937,-0.479,1.241,-0.176,-10.07,-70.19,98.327,1
6.395709,-0.478,1.229,-0.173,-6.652,-70.739,97.961,1
6.403912,-0.441,1.26,-0.185,-5.004,-70.922,96.862,1
6.41147,-0.483,1.16,-0.177,-17.761,-71.716,98.571,1
6.419088,-0.417,1.235,-0.221,-18.188,-70.251,95.153,1
6.427459,-0.535,1.317,-0.157,-13.305,-73.303,90.942,1
6.434339,-0.49,1.314,-0.163,-16.845,-70.19,89.294,1
6.442421,-0.42,1.32,-0.167,-23.681,-72.814,87.28,1
6.450845,-0.551,1.269,-0.108,-26.062,-70.739,87.646,1
6.45724,-0.377,1.298,-0.118,-30.456,-70.373,87.829,1
6.465126,-0.384,1.331,-0.082,-17.578,-72.265,87.768,1
6.473831,-0.438,1.345,-0.075,4.089,-72.57,88.256,1
6.480674,-0.428,1.341,-0.102,24.597,-76.171,88.317,1
6.48937,-0.45,1.312,-0.063,41.87,-78.491,88.5,1
6.497241,-0.421,1.292,-0.067,53.527,-79.589,88.012,1
6.503507,-0.445,1.247,-0.047,58.166,-81.298,87.28,1
6.511492,-0.431,1.228,-0.019,53.466,-80.078,86.303,1
6.51831,-0.41,1.197,-0.006,47.851,-80.627,85.083,1
6.525462,-0.427,1.148,0.041,43.701,-79.406,84.472,1
6.533582,-0.408,1.118,0.05,37.963,-78.247,83.557,1
6.542073,-0.409,1.083,0.084,34.24,-77.453,83.129,1
6.548447,-0.403,1.05,0.104,31.249,-75.5,83.557,1
6.556106,-0.373,1.063,0.114,30.822,-74.401,83.251,1
6.563184,-0.361,1.067,0.12,37.658,-74.951,82.946,1
6.571332,-0.374,1.048,0.139,45.227,-74.584,83.007,1
6.579633,-0.37,1.051,0.119,52.062,-75.134,82.946,1
6.587612,-0.393,1.061,0.134,59.082,-76.843,82.885,1
6.593921,-0.406,1.064,0.152,64.208,-77.087,83.679,1
6.601808,-0.396,1.099,0.158,71.35,-78.613,83.984,1
6.609777,-0.416,1.137,0.179,83.557,-80.627,83.801,1
6.617037,-0.422,1.14,0.18,95.397,-82.397,82.336,1
6.624534,-0.404,1.13,0.208,98.754,-83.618,81.481,1
6.630987,-0.395,1.101,0.21,98.632,-84.35,80.139,1
6.63927,-0.416,1.088,0.239,95.52,-84.106,78.674,1
6.647149,-0.403,1.065,0.257,93.749,-84.289,77.392,1
6.653325,-0.402,1.041,0.281,96.496,-84.045,76.171,1
6.661123,-0.398,1.022,0.278,104.309,-83.74,74.523,1
6.669129,-0.397,0.994,0.271,107.543,-83.862,73.181,1
6.677063,-0.414,0.963,0.266,102.661,-82.702,71.96,1
6.68373,-0.418,0.941,0.276,89.355,-81.909,70.922,1
6.691223,-0.424,0.891,0.306,68.603,-78.735,70.983,1
6.698949,-0.412,0.882,0.305,47.729,-75.378,71.105,1
6.70724,-0.387,0.909,0.327,39.001,-73.303,70.678,1
6.713422,-0.425,0.919,0.339,35.583,-71.044,70.678,1
6.720489,-0.452,0.931,0.332,33.569,-69.458,70.739,1
6.728933,-0.461,0.963,0.331,37.963,-68.725,71.472,1
6.735452,-0.48,0.985,0.324,50.964,-68.847,71.594,1
6.743424,-0.494,1.006,0.326,73.73,-69.763,71.716,1
6.751832,-0.511,1.001,0.296,98.999,-71.716,71.228,1
6.758972,-0.527,0.983,0.285,110.107,-72.204,69.885,1
6.767103,-0.537,0.972,0.268,106.567,-71.228,68.603,1
6.773926,-0.512,0.981,0.265,95.947,-69.946,66.589,1
6.781946,-0.509,0.981,0.267,87.219,-67.81,65.124,1
6.788717,-0.509,0.984,0.256,76.416,-65.856,63.11,1
6.796753,-0.519,0.971,0.246,63.72,-63.415,61.706,1
6.803149,-0.523,0.969,0.253,47.18,-61.34,60.668,1
6.811365,-0.498,0.999,0.25,38.146,-57.983,59.57,1
6.818062,-0.518,1.037,0.241,36.132,-57.189,57.922,1
6.825581,-0.558,1.052,0.228,37.902,-56.091,56.457,1
6.833533,-0.537,1.073,0.221,46.081,-56.457,54.321,1
6.841473,-0.522,1.074,0.208,58.471,-56.884,52.917,1
6.849392,-0.555,1.069,0.188,73.303,-58.471,51.574,1
6.856032,-0.602,1.06,0.179,80.993,-60.607,50.354,1
6.863697,-0.604,1.059,0.199,80.383,-61.828,49.133,1
6.87059,-0.596,1.077,0.227,78.369,-62.011,48.4,1
6.878204,-0.589,1.073,0.231,74.157,-61.767,47.424,1
6.885382,-0.596,1.086,0.25,63.11,-62.194,46.997,1
6.893668,-0.6,1.015,0.289,46.264,-59.57,48.767,1
6.900549,-0.509,1.09,0.277,39.245,-57.8,47.18,1
6.908768,-0.532,1.124,0.315,42.053,-58.837,45.715,1
6.915057,-0.529,1.139,0.318,49.621,-56.03,44.799,1
6.922968,-0.52,1.167,0.298,54.565,-56.701,43.273,1
6.929946,-0.564,1.193,0.321,65.246,-55.908,41.076,1
6.93767,-0.565,1.198,0.306,76.416,-55.114,38.818,1
6.945627,-0.566,1.202,0.292,82.946,-54.809,36.132,1
6.95318,-0.592,1.213,0.283,87.951,-53.894,33.386,1
6.961747,-0.614,1.195,0.256,88.806,-53.283,30.212,1
6.967634,-0.639,1.18,0.239,84.594,-52.49,26.916,1
6.974853,-0.652,1.163,0.225,78.002,-51.391,23.742,1
6.982665,-0.659,1.138,0.207,71.228,-51.025,20.996,1
6.99075,-0.678,1.118,0.201,63.293,-49.499,18.066,1
6.999092,-0.707,1.087,0.183,50.537,-47.912,15.686,1
7.00544,-0.75,1.07,0.17,33.813,-46.325,13.305,1
7.014623,-0.739,1.052,0.175,16.784,-43.823,11.23,1
7.022682,-0.711,1.039,0.187,4.821,-41.564,9.399,1
7.028858,-0.711,1.041,0.187,1.281,-39.855,8.178,1
7.036565,-0.686,1.032,0.189,4.333,-38.574,6.652,1
7.043558,-0.671,1.028,0.182,13.061,-37.719,5.859,1
7.051347,-0.663,1.033,0.182,26.062,-37.902,5.004,1
7.059225,-0.637,1.021,0.174,39.55,-37.841,3.784,1
7.068061,-0.624,1.001,0.172,50.476,-37.658,2.136,1
7.074828,-0.627,0.975,0.166,56.274,-36.987,0.671,1
7.081775,-0.627,0.942,0.156,56.579,-36.132,-0.671,1
7.089794,-0.613,0.915,0.152,52.49,-34.973,-2.38,1
7.097021,-0.598,0.877,0.151,45.898,-33.569,-3.54,1
7.105156,-0.628,0.854,0.144,36.437,-32.226,-4.394,1
7.112955,-0.645,0.837,0.142,24.597,-30.822,-5.126,1
7.120598,-0.62,0.818,0.145,14.099,-29.418,-5.554,1
7.127929,-0.604,0.808,0.15,6.042,-28.137,-6.591,1
7.135961,-0.589,0.788,0.156,0.549,-27.343,-6.713,1
7.143477,-0.582,0.766,0.158,-3.845,-26.062,-7.324,1
7.151761,-0.576,0.745,0.16,-5.981,-25.207,-7.324,1
7.158784,-0.577,0.722,0.166,-7.934,-24.047,-7.507,1
7.166821,-0.585,0.693,0.159,-9.826,-22.766,-7.202,1
7.174438,-0.609,0.664,0.163,-15.563,-21.362,-7.019,1
7.182779,-0.636,0.649,0.157,-27.16,-18.249,-7.202,1
7.189475,-0.626,0.631,0.143,-36.437,-16.418,-6.469,1
7.197295,-0.624,0.619,0.143,-39.916,-15.441,-5.432,1
7.205246,-0.636,0.613,0.127,-37.17,-14.343,-4.028,1
7.21402,-0.679,0.604,0.117,-29.846,-15.014,-2.807,1
7.220399,-0.689,0.596,0.108,-17.7,-15.502,-1.342,1
7.22838,-0.675,0.576,0.104,-4.333,-16.601,0.488,1
7.235963,-0.688,0.567,0.108,10.437,-17.639,2.563,1
7.243828,-0.711,0.548,0.096,24.597,-18.981,4.943,1
7.252256,-0.732,0.532,0.09,34.606,-20.202,7.08,1
7.25946,-0.725,0.515,0.085,40.161,-21.057,9.399,1
7.265986,-0.714,0.509,0.086,42.175,-21.179,11.962,1
7.273503,-0.713,0.502,0.083,42.48,-21.484,14.343,1
7.28101,-0.745,0.514,0.076,38.879,-22.094,16.174,1
7.28919,-0.75,0.523,0.076,29.541,-21.911,18.005,1
7.295835,-0.743,0.546,0.088,15.991,-21.24,19.165,1
7.303699,-0.722,0.572,0.105,2.197,-20.263,20.141,1
7.310504,-0.684,0.601,0.127,-8.728,-19.104,20.446,1
7.318569,-0.653,0.637,0.145,-18.676,-17.883,20.812,1
7.325798,-0.625,0.668,0.162,-23.437,-16.662,20.812,1
7.333408,-0.615,0.704,0.183,-23.925,-15.747,20.507,1
7.342868,-0.615,0.72,0.19,-20.874,-14.892,20.08,1
7.349053,-0.608,0.74,0.21,-15.686,-13.793,19.714,1
7.357232,-0.618,0.749,0.213,-9.704,-12.634,19.531,1
7.36524,-0.634,0.754,0.215,-7.324,-11.718,19.348,1
7.372827,-0.666,0.773,0.232,-4.455,-9.399,19.104,1
7.37915,-0.667,0.784,0.238,-4.699,-6.774,18.127,1
7.387254,-0.646,0.793,0.248,-11.413,-4.089,17.456,1
7.39406,-0.64,0.803,0.258,-17.395,-0.244,16.54,1
7.401877,-0.625,0.804,0.241,-27.221,2.929,15.869,1
7.409647,-0.651,0.84,0.253,-32.897,6.53,15.014,1
7.417379,-0.66,0.879,0.208,-34.423,9.643,14.282,1
7.424481,-0.7,0.925,0.195,-29.418,10.253,13.305,1
7.432374,-0.72,0.951,0.18,-18.371,11.108,12.145,1
7.440251,-0.734,0.971,0.152,-8.85,11.047,10.803,1
7.447693,-0.773,0.986,0.14,-3.906,11.535,9.216,1
7.454592,-0.788,0.985,0.133,-6.713,12.451,7.019,1
7.462091,-0.774,0.987,0.138,-18.31,14.343,4.76,1
7.469593,-0.755,0.987,0.143,-34.79,17.211,3.051,1
7.477601,-0.734,1.012,0.137,-51.94,20.507,1.037,1
7.486099,-0.717,1.052,0.125,-64.331,23.498,-1.159,1
7.492372,-0.713,1.097,0.107,-67.138,25.207,-3.356,1
7.500328,-0.695,1.126,0.088,-59.997,26.062,-5.493,1
7.507571,-0.689,1.156,0.074,-47.485,26.123,-7.568,1
7.515416,-0.681,1.178,0.05,-31.555,26.184,-9.582,1
7.523677,-0.689,1.197,0.019,-14.282,25.695,-11.535,1
7.530381,-0.691,1.208,-0.005,-0.427,25.451,-13.977,1
7.53888,-0.684,1.2,-0.03,4.76,25.878,-16.479,1
7.546495,-0.675,1.193,-0.058,1.037,27.343,-18.249,1
7.554404,-0.685,1.205,-0.077,-5.126,28.564,-20.202,1
7.561781,-0.716,1.23,-0.097,-8.85,28.686,-22.644,1
7.569376,-0.729,1.245,-0.102,-9.521,28.015,-24.719,1
7.576461,-0.711,1.27,-0.093,-4.699,27.038,-26.977,1
7.585999,-0.685,1.303,-0.115,1.403,26.245,-28.991,1
7.594097,-0.708,1.339,-0.137,9.826,24.597,-31.372,1
7.599795,-0.711,1.366,-0.138,17.822,22.949,-33.996,1
7.607598,-0.678,1.376,-0.153,23.498,22.094,-36.743,1
7.615982,-0.671,1.39,-0.158,27.282,21.85,-39.489,1
7.623849,-0.669,1.398,-0.172,28.381,21.972,-42.114,1
7.630473,-0.667,1.418,-0.201,26.184,22.399,-44.738,1
7.638173,-0.683,1.438,-0.242,20.812,22.399,-47.912,1
7.64632,-0.692,1.451,-0.247,13.305,23.193,-51.025,1
7.654382,-0.703,1.475,-0.292,3.784,23.62,-54.626,1
7.661202,-0.739,1.486,-0.322,-13.122,25.146,-59.265,1
7.6694,-0.723,1.488,-0.386,-34.851,25.817,-63.476,1
7.677693,-0.725,1.514,-0.413,-55.175,26.916,-67.871,1
7.685889,-0.697,1.544,-0.492,-71.838,27.587,-72.387,1
7.693164,-0.724,1.57,-0.555,-81.42,25.878,-77.636,1
7.700953,-0.764,1.562,-0.576,-89.599,25.024,-82.641,1
7.709499,-0.801,1.569,-0.603,-98.449,23.742,-87.036,1
7.717735,-0.845,1.581,-0.636,-103.698,21.667,-92.285,1
7.724237,-0.857,1.57,-0.685,-112.304,19.042,-96.74,1
7.732164,-0.883,1.571,-0.708,-119.079,17.395,-100.769,1
7.739419,-0.896,1.601,-0.765,-128.54,14.099,-105.041,1
7.748713,-0.92,1.6,-0.796,-137.512,9.338,-109.008,1
7.755676,-0.962,1.592,-0.805,-143.676,4.577,-114.379,1
7.763607,-0.993,1.612,-0.824,-149.414,-0.305,-118.774,1
7.771341,-0.97,1.613,-0.842,-152.954,-5.676,-122.314,1
7.780331,-0.987,1.632,-0.871,-148.01,-12.695,-126.159,1
7.789577,-1.043,1.648,-0.918,-134.399,-20.935,-129.516,1
7.797002,-1.062,1.639,-0.961,-122.436,-28.503,-132.019,1
7.803958,-1.068,1.623,-0.986,-115.051,-35.278,-134.765,1
7.813796,-1.074,1.601,-1.014,-116.882,-40.527,-137.451,1
7.821092,-1.079,1.589,-1.022,-128.967,-46.508,-141.235,1
7.829202,-1.1,1.548,-1.021,-149.719,-51.33,-144.226,1
7.837233,-1.096,1.522,-0.998,-182.067,-55.786,-147.644,1
7.844811,-1.096,1.512,-0.96,-203.247,-60.302,-149.658,1
7.852344,-1.093,1.519,-0.937,-213.073,-65.673,-151.428,1
7.860502,-1.113,1.512,-0.919,-210.632,-72.875,-152.221,1
7.868774,-1.126,1.483,-0.881,-201.721,-79.589,-152.709,1
7.875893,-1.143,1.471,-0.83,-182.983,-88.134,-151.794,1
7.8831,-1.139,1.441,-0.8,-162.231,-94.604,-150.512,1
7.8911,-1.152,1.397,-0.796,-148.376,-100.646,-148.986,1
7.899413,-1.158,1.349,-0.776,-145.019,-104.919,-147.338,1
7.907195,-1.152,1.31,-0.757,-152.648,-109.313,-144.531,1
7.91572,-1.095,1.287,-0.717,-163.024,-111.389,-141.845,1
7.923987,-1.015,1.253,-0.691,-171.691,-114.257,-138.488,1
7.931822,-0.959,1.251,-0.673,-171.447,-116.394,-135.498,1
7.940099,-0.908,1.25,-0.704,-163.33,-119.445,-132.385,1
7.948177,-0.861,1.241,-0.724,-147.827,-123.718,-129.821,1
7.95649,-0.828,1.223,-0.773,-133.85,-126.464,-127.868,1
7.964286,-0.832,1.203,-0.835,-121.52,-130.981,-126.647,1
7.970975,-0.833,1.161,-0.848,-117.614,-133.789,-125.366,1
7.979017,-0.783,1.121,-0.842,-126.037,-135.314,-123.352,1
7.987254,-0.788,1.093,-0.846,-143.066,-135.864,-120.727,1
7.994708,-0.749,1.1,-0.833,-158.569,-136.84,-117.492,1
8.001835,-0.722,1.115,-0.865,-170.593,-138.366,-113.891,1
8.010041,-0.646,1.143,-0.868,-178.161,-142.517,-110.473,1
8.019495,-0.603,1.149,-0.874,-177.917,-146.362,-107.788,1
8.025991,-0.563,1.141,-0.876,-173.95,-153.625,-104.736,1
8.034327,-0.547,1.125,-0.883,-172.363,-159.057,-102.294,1
8.043152,-0.541,1.108,-0.863,-174.438,-166.625,-99.548,1
8.051081,-0.557,1.077,-0.824,-181.091,-172.058,-97.412,1
8.058231,-0.577,1.035,-0.795,-195.007,-177.429,-95.214,1
8.066475,-0.618,0.997,-0.718,-213.623,-182.678,-91.918,1
8.074472,-0.612,0.984,-0.637,-219.421,-187.072,-88.562,1
8.083257,-0.631,0.973,-0.554,-212.219,-191.894,-85.144,1
8.091594,-0.642,0.962,-0.48,-188.537,-197.204,-81.726,1
8.099947,-0.634,0.907,-0.426,-159.973,-201.965,-79.895,1
8.108245,-0.636,0.856,-0.379,-139.526,-205.017,-78.552,1
8.115158,-0.664,0.776,-0.334,-122.253,-207.763,-78.43,1
8.12333,-0.673,0.709,-0.291,-111.938,-209.594,-79.162,1
8.131466,-0.683,0.645,-0.239,-104.553,-210.449,-79.956,1
8.139202,-0.705,0.559,-0.201,-101.684,-211.242,-80.871,1
8.147952,-0.726,0.484,-0.149,-102.966,-211.12,-81.359,1
8.155179,-0.735,0.412,-0.113,-106.75,-210.266,-81.115,1
8.163065,-0.721,0.351,-0.079,-111.816,-209.838,-79.956,1
8.17294,-0.722,0.263,-0.062,-122.802,-208.801,-78.002,1
8.181207,-0.76,0.198,-0.028,-145.935,-207.275,-74.096,1
8.187286,-0.707,0.139,0.005,-164.367,-205.139,-69.091,1
8.195623,-0.586,0.117,0.02,-176.208,-203.674,-63.537,1
8.203579,-0.54,0.109,0.035,-183.532,-204.04,-57.8,1
8.210276,-0.56,0.097,0.065,-182.373,-203.857,-52.368,1
8.218542,-0.62,0.05,0.065,-178.161,-205.444,-45.959,1
8.226786,-0.633,0.07,0.117,-167.602,-205.261,-39.733,1
8.233705,-0.552,0.065,0.119,-146.484,-207.031,-34.301,1
8.241592,-0.51,0.048,0.136,-112.06,-209.411,-30.517,1
8.249851,-0.562,0.057,0.149,-70.8,-214.172,-26.367,1
8.258168,-0.586,0.039,0.158,-39.001,-216.125,-24.78,1
8.266587,-0.587,0.019,0.162,-15.747,-218.627,-24.475,1
8.273689,-0.616,-0.012,0.166,-11.474,-218.872,-24.78,1
8.281815,-0.687,-0.045,0.181,-22.827,-218.078,-24.902,1
8.289568,-0.723,-0.112,0.202,-51.025,-215.759,-24.047,1
8.298882,-0.771,-0.159,0.218,-81.604,-213.5,-22.094,1
8.30733,-0.777,-0.191,0.247,-110.229,-211.425,-18.432,1
8.315627,-0.768,-0.215,0.285,-133.789,-210.51,-12.451,1
8.321987,-0.768,-0.23,0.337,-138.183,-210.571,-6.53,1
8.330843,-0.781,-0.242,0.38,-125.915,-211.73,-0.244,1
8.338539,-0.73,-0.279,0.453,-93.017,-214.294,6.835,1
8.346261,-0.645,-0.34,0.496,-60.913,-216.979,12.817,1
8.354494,-0.656,-0.407,0.56,-32.775,-219.116,18.554,1
8.362274,-0.645,-0.511,0.606,-19.714,-219.421,25.329,1
8.37038,-0.701,-0.596,0.675,-31.372,-217.834,32.348,1
8.377948,-0.72,-0.65,0.733,-57.617,-213.867,40.161,1
8.385977,-0.756,-0.667,0.811,-82.763,-209.899,48.4,1
8.393621,-0.818,-0.664,0.889,-99.365,-204.528,59.082,1
8.402345,-0.877,-0.662,0.973,-98.327,-202.026,68.359,1
8.409117,-0.91,-0.677,1.079,-82.824,-199.157,78.002,1
8.417894,-0.992,-0.744,1.156,-67.871,-197.265,86.975,1
8.426178,-1.098,-0.88,1.304,-66.65,-192.993,98.632,1
8.434826,-1.225,-0.998,1.424,-78.491,-186.523,110.534,1
8.442442,-1.328,-1.093,1.534,-93.017,-178.894,124.755,1
8.450669,-1.5,-1.155,1.626,-104.492,-171.02,143.432,1
8.457552,-1.705,-1.232,1.713,-116.027,-163.513,160.522,1
8.465521,-1.914,-1.313,1.794,-132.69,-154.724,178.649,1
8.473781,-2.095,-1.388,1.94,-142.395,-145.263,198.059,1
8.48075,-2.232,-1.512,2.098,-139.099,-133.789,218.2,1
8.489103,-2.351,-1.653,2.223,-129.638,-118.896,243.591,1
8.497289,-2.558,-1.777,2.334,-116.882,-104.431,267.456,1
8.504129,-2.883,-1.875,2.497,-91.125,-90.576,293.151,1
8.512157,-3.135,-1.95,2.605,-61.767,-74.707,319.824,1
8.519205,-3.521,-2.05,2.699,-46.142,-57.373,348.205,1
8.527211,-4.017,-2.108,2.781,-53.039,-36.437,377.136,1
8.535761,-4.648,-2.098,2.905,-69.641,-14.16,406.738,1
8.542561,-5.189,-2.122,3.049,-83.679,11.413,436.828,1
8.550062,-5.742,-2.108,3.222,-103.149,40.344,468.566,1
8.558353,-6.333,-2.054,3.406,-133.239,82.214,504.943,1
8.565615,-6.978,-1.974,3.641,-155.822,123.901,534.79,1
8.573663,-7.584,-1.907,3.809,-181.396,172.485,562.927,1
8.581954,-8.427,-1.931,4.043,-209.777,228.027,591.003,1
8.590523,-9.263,-1.756,3.938,-245.788,305.664,622.558,1
8.597792,-10.446,-1.248,3.737,-259.704,370.727,643.371,1
8.606397,-11.618,-0.921,3.287,-275.024,437.927,661.315,1
8.613501,-13.029,-0.455,2.832,-296.02,499.328,673.461,1
8.620485,-14.472,0.062,2.434,-301.208,562.438,677.368,1
8.628386,-15.743,0.392,1.982,-304.382,620.422,675.842,1
8.635829,-15.994,0.777,1.621,-306.091,679.26,668.029,1
8.644956,-15.999,1.365,1.284,-309.021,739.807,652.587,1
8.651911,-15.999,1.899,1.05,-304.626,803.588,635.986,1
8.659997,-15.999,2.289,0.462,-322.631,856.75,614.257,1
8.667004,-15.999,2.415,-0.052,-352.172,908.508,587.28,1
8.675074,-15.999,2.766,-0.494,-337.646,953.002,556.518,1
8.683347,-15.999,3.168,-0.905,-294.311,1000.671,521.728,1
8.69073,-15.999,3.47,-1.797,-272.827,1027.587,489.379,1
8.698307,-15.999,3.915,-2.359,-271.789,1043.151,449.096,1
8.706154,-15.999,4.187,-3.178,-271.972,1055.725,409.057,1
8.714545,-15.999,4.26,-4.193,-276.245,1047.912,361.083,1
8.722409,-15.999,4.125,-5.483,-309.753,1034.912,309.509,1
8.72967,-15.999,4.059,-6.512,-425.781,1006.957,241.088,1
8.737952,-15.999,3.721,-7.962,-615.722,983.032,142.578,1
8.745945,-15.999,3.027,-8.494,-817.565,920.837,39.306,1
8.755154,-15.303,2.345,-7.954,-890.319,871.765,-66.223,1
8.761197,-12.401,1.097,-7.79,-830.749,790.1,-152.465,1
8.7706,-10.587,0.437,-6.918,-667.053,687.072,-223.144,1
8.779242,-9.024,-0.15,-6.536,-465.087,605.773,-255.065,1
8.786521,-7.61,-0.74,-6.035,-309.631,512.39,-267.761,1
8.79529,-6.301,-1.114,-5.32,-244.506,459.838,-265.625,1
8.802624,-5.409,-1.407,-5.003,-216.796,406.127,-257.385,1
8.810637,-4.711,-1.66,-4.727,-218.811,365.539,-248.229,1
8.818168,-3.97,-1.902,-4.427,-221.679,320.068,-236.572,1
8.826497,-3.392,-2.094,-4.15,-218.444,282.959,-225.036,1
8.834859,-2.958,-2.076,-3.817,-210.449,248.962,-212.646,1
8.843111,-2.521,-2.004,-3.482,-198.12,212.585,-197.814,1
8.851643,-2.251,-1.95,-3.176,-184.753,183.654,-184.509,1
8.860436,-1.971,-1.846,-2.81,-171.142,159.24,-171.081,1
8.86713,-1.787,-1.715,-2.555,-143.493,133.178,-155.09,1
8.874739,-1.642,-1.536,-2.334,-104.919,111.755,-142.211,1
8.881969,-1.521,-1.361,-2.135,-63.049,92.895,-129.638,1
8.89151,-1.338,-1.262,-1.98,-37.17,77.27,-117.309,1
8.899497,-1.152,-1.136,-1.817,-28.381,62.499,-103.149,1
8.907399,-1.059,-1.027,-1.687,-34.973,52.795,-91.552,1
8.915888,-0.971,-0.875,-1.55,-48.706,43.64,-80.932,1
8.922865,-0.919,-0.748,-1.417,-64.941,33.935,-69.641,1
8.931433,-0.861,-0.63,-1.288,-77.697,26.0,-60.913,1
8.938993,-0.775,-0.563,-1.083,-88.012,18.188,-52.551,1
8.947003,-0.773,-0.438,-0.974,-93.017,12.634,-42.541,1
8.953948,-0.683,-0.31,-0.93,-91.735,3.601,-35.156,1
8.962223,-0.622,-0.233,-0.807,-88.012,-2.38,-28.137,1
8.970442,-0.557,-0.188,-0.703,-87.036,-9.338,-20.751,1
8.97844,-0.545,-0.121,-0.604,-85.144,-13.0,-14.892,1
8.987518,-0.514,-0.059,-0.553,-81.665,-16.357,-9.338,1
8.995437,-0.515,-0.008,-0.486,-74.401,-20.935,-3.479,1
9.003906,-0.493,0.043,-0.409,-64.453,-23.132,1.464,1
9.010611,-0.478,0.11,-0.352,-53.894,-26.672,6.286,1
9.019357,-0.427,0.159,-0.293,-45.043,-27.709,10.253,1
9.025936,-0.384,0.217,-0.265,-38.94,-30.151,13.916,1
9.034573,-0.342,0.258,-0.227,-32.043,-31.433,17.395,1
9.042088,-0.341,0.334,-0.166,-24.169,-32.836,20.019,1
9.05044,-0.329,0.35,-0.154,-15.808,-33.569,22.399,1
9.057105,-0.313,0.36,-0.119,-13.183,-33.935,24.78,1
9.065329,-0.304,0.373,-0.081,-18.249,-32.958,27.16,1
9.07392,-0.278,0.389,-0.102,-25.329,-32.104,29.541,1
9.080925,-0.257,0.438,-0.068,-34.179,-31.249,31.982,1
9.089175,-0.291,0.472,-0.079,-41.503,-29.724,34.301,1
9.096776,-0.304,0.549,-0.013,-49.255,-27.648,36.56,1
9.105485,-0.326,0.596,-0.018,-51.818,-25.939,38.208,1
9.111955,-0.317,0.623,-0.078,-52.124,-24.841,39.733,1
9.119675,-0.331,0.629,-0.041,-49.987,-23.925,40.893,1
9.127646,-0.315,0.63,-0.051,-47.79,-22.399,42.175,1
9.136028,-0.289,0.64,-0.055,-43.884,-22.033,43.273,1
9.143675,-0.29,0.656,-0.05,-37.597,-20.812,44.372,1
9.150575,-0.28,0.66,-0.086,-29.479,-21.362,45.471,1
9.158638,-0.285,0.659,-0.109,-20.202,-22.033,46.325,1
9.167105,-0.287,0.657,-0.133,-11.169,-22.766,47.851,1
9.174813,-0.273,0.658,-0.15,-3.723,-23.925,49.377,1
9.183049,-0.288,0.632,-0.157,-2.441,-24.414,51.208,1
9.191479,-0.319,0.644,-0.185,-9.399,-25.024,52.856,1
9.199775,-0.314,0.651,-0.167,-21.057,-23.742,55.175,1
9.206738,-0.291,0.677,-0.171,-29.113,-23.498,56.823,1
9.215413,-0.27,0.706,-0.174,-31.249,-23.498,58.471,1
9.223751,-0.259,0.71,-0.174,-28.381,-23.925,59.814,1
9.23151,-0.284,0.737,-0.183,-21.118,-24.963,61.279,1
9.240225,-0.261,0.736,-0.217,-14.16,-25.878,62.499,1
9.248187,-0.252,0.753,-0.233,-6.652,-27.587,64.086,1
9.254619,-0.239,0.77,-0.268,1.464,-29.663,65.307,1
9.262448,-0.241,0.764,-0.209,13.732,-31.616,66.589,1
9.270661,-0.256,0.777,-0.239,22.521,-34.24,67.749,1
9.279216,-0.271,0.796,-0.247,25.573,-35.827,68.603,1
9.287603,-0.282,0.803,-0.28,18.615,-37.231,69.58,1
9.295844,-0.287,0.814,-0.263,5.187,-38.208,70.739,1
9.302315,-0.283,0.836,-0.27,-8.056,-37.963,71.533,1
9.310437,-0.272,0.856,-0.261,-18.676,-38.757,72.753,1
9.319673,-0.255,0.875,-0.265,-22.46,-39.672,73.73,1
9.328132,-0.267,0.897,-0.261,-17.517,-41.076,74.89,1
9.336043,-0.298,0.916,-0.262,-8.117,-43.395,75.744,1
9.343381,-0.32,0.943,-0.251,6.164,-46.081,76.477,1
9.350204,-0.33,0.952,-0.256,17.822,-48.583,77.209,1
9.358767,-0.342,0.954,-0.294,25.817,-51.452,77.636,1
9.366597,-0.353,0.969,-0.274,28.991,-52.856,77.88,1
9.373291,-0.353,0.991,-0.276,26.123,-54.687,77.636,1
9.381464,-0.356,0.991,-0.257,23.071,-55.664,77.758,1
9.389701,-0.354,0.98,-0.238,17.15,-56.701,77.575,1
9.396673,-0.363,0.961,-0.212,10.742,-57.006,77.575,1
9.405536,-0.362,0.945,-0.183,6.042,-57.8,78.308,1
9.412616,-0.379,0.947,-0.135,10.192,-58.41,79.772,1
9.420266,-0.396,0.93,-0.146,18.432,-59.814,81.604,1
9.428187,-0.484,0.841,-0.132,13.671,-61.218,84.472,1
9.436195,-0.477,0.944,-0.068,-6.835,-55.236,88.073,1
9.443748,-0.448,1.047,-0.243,3.906,-62.316,85.632,1
9.451866,-0.563,1.047,-0.079,23.986,-61.279,85.327,1
9.459879,-0.524,1.022,-0.208,33.63,-61.096,85.571,1
9.468178,-0.499,1.061,-0.178,50.964,-67.687,83.251,1
9.476257,-0.509,1.038,-0.153,74.34,-67.626,82.275,1
9.484223,-0.525,1.034,-0.201,92.163,-72.021,80.017,1
9.49066,-0.531,0.99,-0.159,100.402,-74.707,78.613,1
9.49859,-0.516,0.958,-0.148,100.952,-75.378,77.88,1
9.507336,-0.526,0.959,-0.15,94.116,-77.453,77.392,1
9.514402,-0.605,0.831,-0.135,71.655,-78.308,77.941,1
9.522289,-0.603,0.95,-0.159,44.189,-73.364,77.026,1
9.531296,-0.651,1.022,-0.17,28.991,-78.918,74.829,1
9.537788,-0.695,1.005,-0.11,22.033,-76.171,74.34,1
9.545601,-0.641,1.041,-0.171,13.488,-77.087,72.265,1
9.553054,-0.663,1.048,-0.15,13.183,-79.65,69.519,1
9.561733,-0.679,1.013,-0.143,14.953,-79.528,67.687,1
9.568357,-0.669,1.018,-0.144,15.075,-80.993,66.101,1
9.576357,-0.671,1.036,-0.117,20.69,-81.97,65.185,1
9.584373,-0.66,1.066,-0.101,35.034,-84.594,64.697,1
9.592436,-0.675,1.101,-0.09,58.105,-87.219,64.453,1
9.599473,-0.69,1.087,-0.101,74.584,-91.186,64.086,1
9.60701,-0.674,1.078,-0.086,82.946,-93.261,63.415,1
9.614905,-0.655,1.078,-0.106,86.73,-96.13,62.255,1
9.623522,-0.657,1.072,-0.107,83.374,-97.595,60.668,1
9.630101,-0.659,1.05,-0.121,71.35,-98.083,59.326,1
9.63893,-0.642,1.042,-0.13,55.664,-98.571,57.861,1
9.645583,-0.634,1.025,-0.123,43.701,-98.999,56.457,1
9.653976,-0.632,1.017,-0.121,39.062,-100.036,55.175,1
9.660534,-0.628,0.988,-0.124,41.32,-101.806,53.955,1
9.668469,-0.606,0.958,-0.111,47.851,-104.125,52.856,1
9.67621,-0.588,0.922,-0.094,57.189,-106.445,52.062,1
9.683391,-0.6,0.895,-0.073,73.425,-109.008,51.757,1
9.692685,-0.604,0.858,-0.058,88.562,-112.609,51.208,1
9.699218,-0.608,0.844,-0.016,108.215,-116.821,52.001,1
9.707425,-0.615,0.838,0.017,126.525,-120.788,52.429,1
9.716095,-0.634,0.798,0.049,140.258,-124.328,52.612,1
9.723487,-0.646,0.763,0.071,143.615,-126.342,52.551,1
9.730189,-0.692,0.664,0.074,123.962,-126.953,52.49,1
9.738292,-0.718,0.672,0.126,75.683,-121.643,53.771,1
9.74604,-0.715,0.73,0.079,33.569,-120.239,53.222,1
9.754205,-0.767,0.729,0.174,14.526,-118.53,53.405,1
9.762602,-0.717,0.706,0.175,-3.723,-113.83,55.114,1
9.770651,-0.668,0.716,0.166,-13.427,-113.769,55.48,1
9.777192,-0.687,0.71,0.193,-10.864,-111.877,56.335,1
9.785725,-0.696,0.691,0.2,-5.92,-110.9,56.945,1
9.792175,-0.66,0.685,0.201,-4.028,-108.459,57.556,1
9.800563,-0.704,0.683,0.228,2.624,-107.604,57.861,1
9.80769,-0.787,0.64,0.224,6.469,-105.224,58.532,1
9.81557,-0.766,0.619,0.227,-0.305,-103.149,58.959,1
9.823954,-0.803,0.617,0.238,-7.08,-99.304,59.509,1
9.832501,-0.794,0.584,0.208,-18.981,-95.458,59.631,1
9.838944,-0.812,0.604,0.259,-33.569,-92.102,59.631,1
9.847498,-0.857,0.573,0.243,-48.95,-88.073,60.607,1
9.855707,-0.921,0.58,0.224,-58.044,-84.228,63.293,1
9.863576,-0.951,0.609,0.238,-54.016,-82.397,65.979,1
9.871831,-0.958,0.645,0.25,-42.175,-81.054,68.847,1
9.879325,-0.98,0.676,0.278,-24.23,-80.81,71.594,1
9.886366,-0.965,0.711,0.263,4.089,-80.444,74.646,1
9.893902,-0.929,0.692,0.238,24.719,-80.688,76.11,1
9.90241,-0.947,0.708,0.246,44.311,-80.139,77.392,1
9.909941,-0.927,0.706,0.231,61.401,-79.772,78.002,1
9.918617,-0.913,0.712,0.227,72.998,-79.528,77.575,1
9.92544,-0.907,0.707,0.25,75.073,-78.002,76.782,1
9.932258,-0.885,0.705,0.247,67.81,-75.378,75.439,1
9.941044,-0.859,0.695,0.257,54.931,-72.082,73.913,1
9.947739,-0.843,0.705,0.254,38.879,-68.298,71.899,1
9.956187,-0.85,0.698,0.248,17.578,-64.514,70.373,1
9.96273,-0.882,0.702,0.245,-5.615,-60.18,69.213,1
9.971318,-0.894,0.729,0.23,-26.0,-56.457,68.237,1
9.979053,-0.915,0.764,0.24,-40.893,-53.649,67.443,1
9.986809,-0.911,0.8,0.235,-48.095,-50.476,67.077,1
9.995067,-0.879,0.834,0.222,-47.485,-48.828,65.795,1
