timestamp_s,ax,ay,az,gx,gy,gz,label
0.005319,-0.858,0.541,-0.129,-2.136,-4.089,21.972,1
0.01167,-0.881,0.557,-0.126,-4.028,-2.99,21.911,1
0.01957,-0.909,0.571,-0.129,-4.211,-2.258,21.85,1
0.02897,-0.932,0.601,-0.127,-1.098,-1.586,21.301,1
0.036887,-0.908,0.613,-0.126,5.004,-1.586,20.446,1
0.043674,-0.877,0.608,-0.129,9.46,-1.403,19.653,1
0.05216,-0.854,0.6,-0.13,11.474,-0.915,18.676,1
0.059163,-0.852,0.603,-0.136,11.657,-0.61,17.517,1
0.067484,-0.855,0.603,-0.138,10.803,-0.244,16.54,1
0.075287,-0.865,0.603,-0.136,9.582,0.244,15.869,1
0.082786,-0.87,0.606,-0.135,8.056,1.098,14.526,1
0.09036,-0.873,0.606,-0.13,6.652,1.586,13.793,1
0.098032,-0.876,0.61,-0.133,5.371,2.136,12.695,1
0.105993,-0.875,0.607,-0.134,4.028,2.746,11.779,1
0.113733,-0.863,0.599,-0.134,2.258,3.54,10.803,1
0.122328,-0.855,0.59,-0.133,0.549,4.089,10.131,1
0.131371,-0.853,0.585,-0.136,-1.342,4.821,9.46,1
0.138302,-0.85,0.586,-0.136,-2.868,5.371,8.789,1
0.147214,-0.851,0.578,-0.138,-4.028,5.798,8.178,1
0.154483,-0.849,0.576,-0.137,-5.859,6.164,7.568,1
0.163326,-0.844,0.573,-0.138,-7.934,6.53,7.324,1
0.170593,-0.843,0.571,-0.138,-9.582,7.141,6.774,1
0.17998,-0.838,0.568,-0.141,-10.742,7.507,6.347,1
0.187582,-0.84,0.562,-0.143,-12.023,7.507,6.164,1
0.196544,-0.838,0.556,-0.139,-12.756,7.995,6.042,1
0.203632,-0.839,0.559,-0.138,-12.878,7.812,5.676,1
0.21089,-0.843,0.562,-0.142,-12.268,7.751,5.554,1
0.219934,-0.856,0.563,-0.143,-11.413,7.995,5.187,1
0.229227,-0.854,0.568,-0.145,-9.338,7.507,4.821,1
0.235889,-0.846,0.566,-0.142,-7.385,7.263,4.638,1
0.2438,-0.84,0.569,-0.151,-6.225,7.385,4.333,1
0.252814,-0.847,0.575,-0.159,-6.286,7.019,3.601,1
0.261982,-0.848,0.588,-0.154,-5.676,6.896,2.929,1
0.27057,-0.837,0.591,-0.16,-3.234,6.225,2.197,1
0.278583,-0.829,0.592,-0.158,0.305,5.554,1.525,1
0.28718,-0.825,0.594,-0.164,3.784,4.76,0.732,1
0.294433,-0.819,0.588,-0.163,6.103,4.15,0.122,1
0.302877,-0.812,0.58,-0.163,8.911,3.601,-0.305,1
0.312904,-0.815,0.578,-0.159,10.864,3.112,-0.671,1
0.31975,-0.819,0.575,-0.161,11.291,2.685,-0.976,1
0.328735,-0.825,0.571,-0.157,10.62,2.563,-1.281,1
0.336028,-0.823,0.569,-0.165,8.789,2.563,-1.403,1
0.343871,-0.816,0.57,-0.164,5.737,2.807,-1.586,1
0.353234,-0.814,0.581,-0.165,3.295,2.99,-1.708,1
0.361581,-0.816,0.6,-0.169,1.22,3.173,-1.77,1
0.369457,-0.815,0.626,-0.168,0.122,3.845,-2.075,1
0.378021,-0.818,0.646,-0.176,-3.417,4.516,-2.563,1
0.387218,-0.815,0.671,-0.186,-10.681,5.676,-3.662,1
0.394193,-0.819,0.701,-0.185,-21.057,7.141,-4.638,1
0.403978,-0.828,0.741,-0.19,-28.137,8.544,-6.103,1
0.412483,-0.829,0.772,-0.19,-27.648,8.911,-7.446,1
0.420809,-0.806,0.796,-0.192,-22.399,8.666,-8.666,1
0.428534,-0.781,0.801,-0.191,-13.793,8.3,-10.375,1
0.43792,-0.769,0.809,-0.199,-6.103,7.934,-11.657,1
0.444822,-0.765,0.812,-0.203,-0.671,7.69,-13.61,1
0.45289,-0.77,0.812,-0.202,1.525,7.507,-15.502,1
0.463378,-0.78,0.811,-0.202,2.624,7.568,-17.028,1
0.470403,-0.781,0.792,-0.203,1.159,8.422,-19.226,1
0.479544,-0.778,0.776,-0.197,-0.854,8.972,-20.812,1
0.48687,-0.789,0.755,-0.195,-3.906,9.948,-22.094,1
0.496691,-0.795,0.741,-0.191,-8.178,10.498,-23.193,1
0.503857,-0.785,0.73,-0.191,-12.39,11.596,-24.23,1
0.512707,-0.778,0.713,-0.189,-16.479,12.145,-24.902,1
0.520744,-0.774,0.699,-0.191,-21.911,12.512,-25.695,1
0.529133,-0.768,0.688,-0.195,-28.503,13.366,-26.733,1
0.536408,-0.749,0.682,-0.196,-33.874,13.793,-27.465,1
0.546411,-0.744,0.67,-0.197,-38.818,13.854,-27.832,1
0.554264,-0.749,0.665,-0.197,-44.189,14.038,-28.625,1
0.561221,-0.735,0.661,-0.196,-50.292,14.099,-29.113,1
0.570595,-0.718,0.66,-0.197,-57.067,14.343,-29.296,1
0.578995,-0.714,0.66,-0.194,-67.81,15.258,-29.602,1
0.587684,-0.721,0.682,-0.191,-75.744,15.93,-29.113,1
0.596048,-0.729,0.726,-0.191,-81.054,16.296,-28.503,1
0.604545,-0.733,0.781,-0.204,-82.153,16.601,-27.526,1
0.611678,-0.735,0.845,-0.225,-81.237,16.357,-26.977,1
0.620179,-0.729,0.923,-0.253,-80.261,15.441,-26.794,1
0.62811,-0.717,1.005,-0.274,-82.275,15.075,-26.611,1
0.63542,-0.677,1.12,-0.3,-89.294,14.953,-27.404,1
0.643949,-0.671,1.221,-0.319,-106.811,16.052,-29.602,1
0.651733,-0.681,1.346,-0.326,-123.779,17.456,-32.531,1
0.662272,-0.693,1.478,-0.328,-138.366,19.104,-36.193,1
0.670204,-0.692,1.659,-0.341,-150.329,20.446,-42.907,1
0.679393,-0.668,1.816,-0.365,-151.55,20.507,-50.415,1
0.685585,-0.665,1.945,-0.389,-145.446,19.531,-57.861,1
0.69448,-0.666,2.062,-0.406,-131.774,18.005,-65.307,1
0.701963,-0.658,2.162,-0.426,-114.135,15.93,-73.73,1
0.715678,-0.656,2.21,-0.434,-98.144,14.16,-83.251,1
0.723267,-0.699,2.269,-0.465,-105.163,15.014,-96.862,1
0.730396,-0.744,2.309,-0.465,-122.802,16.723,-104.553,1
0.73838,-0.791,2.353,-0.472,-149.475,18.859,-114.074,1
0.746182,-0.843,2.399,-0.473,-171.081,20.08,-122.68,1
0.753305,-0.895,2.457,-0.484,-185.302,20.08,-131.286,1
0.762619,-0.95,2.505,-0.497,-188.903,18.066,-139.648,1
0.770163,-1.001,2.542,-0.503,-181.64,15.014,-148.01,1
0.777656,-1.033,2.545,-0.512,-165.588,10.192,-157.165,1
0.786997,-1.078,2.527,-0.52,-152.832,6.469,-164.672,1
0.795234,-1.138,2.503,-0.529,-145.935,2.014,-173.4,1
0.804764,-1.182,2.488,-0.529,-150.573,-0.244,-179.626,1
0.811951,-1.219,2.485,-0.53,-161.682,-1.708,-185.668,1
0.819973,-1.27,2.498,-0.535,-175.659,-4.516,-192.81,1
0.828787,-1.311,2.517,-0.52,-179.077,-9.277,-199.89,1
0.836006,-1.358,2.521,-0.519,-173.828,-14.038,-205.932,1
0.845139,-1.413,2.515,-0.522,-166.931,-19.226,-211.364,1
0.852149,-1.448,2.499,-0.52,-160.095,-24.78,-216.979,1
0.860907,-1.492,2.475,-0.509,-152.282,-31.494,-223.144,1
0.871143,-1.558,2.458,-0.492,-143.798,-37.902,-229.431,1
0.878396,-1.619,2.439,-0.476,-132.751,-45.715,-237.243,1
0.887943,-1.672,2.408,-0.464,-123.352,-51.208,-242.797,1
0.89504,-1.722,2.379,-0.452,-112.976,-56.762,-248.229,1
0.904052,-1.765,2.352,-0.448,-100.769,-63.476,-254.333,1
0.913013,-1.796,2.315,-0.44,-88.5,-69.519,-259.704,1
0.921119,-1.829,2.258,-0.436,-72.204,-76.354,-265.502,1
0.928777,-1.86,2.194,-0.428,-57.128,-82.763,-270.935,1
0.938082,-1.886,2.144,-0.415,-44.311,-87.829,-275.573,1
0.945756,-1.914,2.099,-0.407,-24.963,-93.444,-281.127,1
0.953594,-1.93,2.026,-0.395,-4.15,-98.571,-286.132,1
0.962048,-1.944,1.958,-0.395,12.573,-101.745,-290.1,1
0.971687,-1.94,1.872,-0.407,27.221,-104.675,-294.494,1
0.977822,-1.937,1.81,-0.406,35.034,-106.628,-297.79,1
0.986987,-1.935,1.739,-0.395,41.503,-108.398,-300.903,1
0.995999,-1.952,1.658,-0.379,51.635,-109.985,-304.382,1
1.004009,-1.901,1.589,-0.362,59.204,-110.595,-306.64,1
1.013123,-1.641,1.343,-0.394,42.907,-111.206,-308.959,1
1.020568,-1.945,1.386,-0.352,23.864,-108.398,-308.654,1
1.028759,-2.204,1.356,-0.342,24.353,-109.13,-309.204,1
1.036825,-2.132,1.244,-0.343,20.324,-111.938,-309.814,1
1.04474,-2.086,1.169,-0.309,27.343,-111.083,-310.363,1
1.052707,-2.023,1.083,-0.315,37.414,-113.159,-310.607,1
1.061912,-1.971,0.925,-0.264,51.086,-112.915,-310.363,1
1.070135,-1.88,0.805,-0.24,56.518,-113.708,-307.678,1
1.077099,-1.927,0.685,-0.075,61.035,-110.717,-300.048,1
1.086128,-1.97,0.972,-0.47,91.003,-87.707,-302.673,1
1.093144,-1.592,0.61,-0.363,67.81,-100.097,-310.913,1
1.102046,-1.479,0.24,-0.217,44.738,-74.829,-305.297,1
1.108635,-1.702,0.33,-0.185,-10.253,-71.777,-301.086,1
1.117044,-1.843,0.389,-0.151,-27.282,-57.434,-299.072,1
1.125278,-1.776,0.323,-0.156,-46.813,-63.537,-301.635,1
1.134168,-1.635,0.216,-0.073,-48.095,-53.161,-297.302,1
1.142586,-1.5,0.155,-0.122,-51.879,-58.959,-291.687,1
1.149491,-1.418,0.162,0.008,-34.606,-54.077,-286.865,1
1.158684,-1.254,0.109,-0.061,-16.113,-54.992,-282.409,1
1.165034,-1.149,0.103,0.012,11.047,-51.757,-278.259,1
1.173135,-1.054,0.055,-0.038,28.503,-51.208,-275.512,1
1.18104,-0.966,0.022,0.015,39.855,-48.095,-272.521,1
1.189133,-0.885,0.006,-0.025,43.151,-44.189,-269.287,1
1.196186,-0.83,-0.014,-0.033,38.94,-41.381,-266.296,1
1.205289,-0.769,-0.043,-0.066,28.32,-37.536,-262.207,1
1.213981,-0.669,-0.062,-0.107,9.643,-37.292,-256.408,1
1.220759,-0.534,-0.068,-0.122,-2.685,-35.644,-250.793,1
1.229414,-0.395,-0.041,-0.169,-8.3,-38.33,-244.873,1
1.23587,-0.272,-0.004,-0.148,1.464,-41.198,-240.173,1
1.244176,-0.222,-0.003,-0.131,23.01,-44.189,-234.924,1
1.251218,-0.183,0.0,-0.094,48.828,-43.518,-231.14,1
1.259891,-0.046,-0.023,-0.095,73.425,-41.87,-228.21,1
1.266686,0.015,-0.083,-0.068,85.083,-38.208,-225.708,1
1.274716,-0.027,-0.163,-0.07,71.35,-30.761,-223.266,1
1.283051,-0.156,-0.229,-0.049,28.198,-22.033,-221.069,1
1.291467,-0.23,-0.269,-0.004,-30.822,-11.108,-218.811,1
1.300142,-0.252,-0.253,0.033,-94.665,-2.868,-216.308,1
1.308099,-0.299,-0.204,0.076,-130.554,2.746,-214.294,1
1.316523,-0.319,-0.172,0.096,-145.08,3.234,-212.585,1
1.323373,-0.346,-0.134,0.143,-133.117,2.624,-209.533,1
1.331754,-0.216,-0.094,0.149,-98.632,0.671,-205.749,1
1.339634,-0.185,-0.072,0.163,-43.945,-3.967,-202.941,1
1.346664,-0.276,-0.111,0.17,3.479,-5.493,-200.256,1
1.355763,-0.312,-0.167,0.167,43.64,-5.737,-197.998,1
1.3638,-0.343,-0.298,0.16,68.054,-1.281,-196.166,1
1.370774,-0.255,-0.448,0.132,62.316,5.249,-193.237,1
1.379291,-0.211,-0.595,0.107,33.325,14.77,-190.673,1
1.386741,-0.217,-0.727,0.094,-12.695,25.573,-187.866,1
1.395169,-0.322,-0.809,0.109,-65.063,36.56,-183.959,1
1.404344,-0.576,-0.809,0.143,-85.388,44.067,-179.687,1
1.412181,-0.658,-0.818,0.154,-70.861,46.386,-176.025,1
1.420816,-0.696,-0.927,0.162,-36.56,46.752,-169.799,1
1.428772,-0.7,-1.124,0.153,-13.854,47.607,-163.696,1
1.436662,-0.683,-1.361,0.163,-13.122,54.626,-154.296,1
1.445526,-0.688,-1.549,0.119,-27.221,60.119,-145.141,1
1.452677,-0.76,-1.686,0.148,-39.55,68.115,-133.789,1
1.461503,-0.816,-1.784,0.14,-39.184,73.73,-122.924,1
1.468673,-0.873,-1.894,0.15,-31.86,77.392,-111.206,1
1.477148,-0.898,-2.027,0.152,-20.263,82.885,-96.496,1
1.485659,-0.984,-2.178,0.16,-11.291,87.341,-82.885,1
1.493802,-1.085,-2.309,0.158,-4.333,94.665,-65.551,1
1.502256,-1.119,-2.466,0.145,-14.709,101.562,-49.987,1
1.511693,-1.211,-2.587,0.155,-36.865,110.046,-29.846,1
1.518932,-1.252,-2.679,0.154,-45.288,117.98,-12.451,1
1.527299,-1.337,-2.724,0.182,-48.156,124.633,9.46,1
1.534526,-1.395,-2.79,0.186,-41.198,130.798,29.235,1
1.543055,-1.448,-2.864,0.194,-28.076,136.84,53.833,1
1.551748,-1.612,-2.906,0.201,-15.014,144.714,80.505,1
1.560349,-1.742,-2.904,0.177,11.901,148.742,104.492,1
1.568657,-2.02,-2.893,0.145,46.264,151.855,129.943,1
1.576376,-2.213,-2.903,0.089,88.439,155.151,161.621,1
1.585119,-2.55,-2.916,-0.052,110.107,157.531,190.368,1
1.591173,-2.89,-2.91,-0.162,103.759,161.621,225.036,1
1.598197,-3.212,-2.893,-0.259,94.421,163.879,250.671,1
1.606815,-3.511,-2.871,-0.315,85.876,167.114,282.348,1
1.613739,-3.94,-2.82,-0.409,89.782,168.09,315.49,1
1.622072,-4.423,-2.803,-0.504,103.576,167.541,350.524,1
1.630289,-5.025,-2.883,-0.664,111.877,165.1,395.568,1
1.637514,-5.596,-2.962,-0.786,106.079,163.94,437.316,1
1.6456,-6.181,-3.067,-0.932,86.364,162.109,482.482,1
1.652916,-7.026,-3.129,-1.075,56.518,162.048,538.024,1
1.660741,-7.892,-3.131,-1.202,33.996,160.949,588.073,1
1.669628,-8.891,-3.082,-1.302,26.428,158.508,640.014,1
1.677494,-10.257,-2.923,-1.408,44.616,151.489,693.42,1
1.686503,-11.576,-2.701,-1.515,101.684,134.277,757.629,1
1.694799,-12.939,-2.447,-1.604,163.269,107.666,813.72,1
1.701291,-14.618,-2.132,-1.648,215.087,73.059,869.628,1
1.711677,-15.989,-1.775,-1.637,272.46,21.423,934.692,1
1.719731,-15.999,-1.305,-1.514,353.149,-45.043,996.398,1
1.727925,-15.999,-0.881,-1.427,429.87,-116.149,1044.677,1
1.735113,-15.999,-0.331,-1.246,508.483,-211.975,1091.491,1
1.745298,-15.999,0.282,-1.024,560.546,-302.429,1120.605,1
1.752905,-15.999,0.799,-0.74,604.675,-415.344,1138.977,1
1.761484,-15.999,1.401,-0.334,626.892,-528.991,1139.465,1
1.768363,-15.999,1.978,0.102,650.085,-628.356,1124.084,1
1.77669,-15.999,2.462,0.627,686.035,-752.075,1089.172,1
1.785158,-15.999,2.716,1.271,739.196,-862.792,1039.489,1
1.793519,-15.999,2.741,1.946,802.062,-975.219,974.304,1
1.801073,-15.999,2.671,2.871,841.186,-1099.975,883.361,1
1.808094,-15.999,3.276,3.413,934.02,-1175.231,777.099,1
1.817029,-15.999,3.829,3.918,1118.042,-1265.686,627.258,1
1.825155,-15.999,3.639,3.829,1341.918,-1336.669,398.01,1
1.83377,-15.999,2.881,3.658,1357.726,-1359.374,152.465,1
1.841435,-15.999,2.484,3.588,1214.538,-1320.312,-37.109,1
1.848919,-15.999,2.402,3.733,1037.048,-1249.084,-193.847,1
1.858332,-15.999,2.011,3.968,895.69,-1144.531,-336.975,1
1.866381,-15.999,1.592,3.916,852.477,-1047.302,-434.997,1
1.872919,-15.999,1.094,3.651,829.223,-947.753,-518.371,1
1.880918,-15.999,0.536,3.21,757.934,-824.707,-595.459,1
1.889271,-15.999,0.177,2.845,644.897,-724.792,-639.892,1
1.898251,-15.999,0.216,2.894,551.208,-634.277,-669.006,1
1.90532,-15.518,0.066,2.826,513.854,-537.048,-689.575,1
1.914272,-14.292,-0.252,2.701,499.755,-459.899,-698.486,1
1.921911,-13.002,-0.621,2.614,472.961,-384.826,-699.218,1
1.930735,-11.754,-1.02,2.362,409.179,-311.828,-690.368,1
1.938126,-10.886,-1.136,2.232,326.782,-248.413,-674.987,1
1.946698,-9.923,-1.132,2.217,309.448,-195.678,-655.09,1
1.952808,-8.819,-1.144,1.98,329.772,-147.644,-630.188,1
1.961307,-8.142,-1.327,1.967,328.979,-109.252,-603.271,1
1.970214,-7.633,-1.468,1.873,326.354,-62.744,-575.5,1
1.978479,-6.803,-1.626,1.746,299.316,-25.512,-548.278,1
1.985773,-6.092,-1.772,1.64,265.014,20.69,-512.878,1
1.993698,-5.471,-1.87,1.443,238.708,56.152,-477.661,1
2.002712,-4.959,-1.876,1.276,229.309,82.763,-446.655,1
2.010165,-4.526,-1.835,1.057,226.562,102.172,-416.686,1
2.019147,-4.158,-1.823,0.893,223.754,124.694,-382.202,1
2.02719,-3.755,-1.785,0.664,211.059,139.953,-353.942,1
2.034839,-3.502,-1.704,0.546,191.772,154.174,-321.472,1
2.04276,-3.352,-1.517,0.429,182.739,162.78,-294.677,1
2.051762,-3.215,-1.375,0.368,181.823,168.823,-264.831,1
2.059332,-3.038,-1.269,0.302,181.579,172.973,-240.112,1
2.067695,-2.828,-1.193,0.251,170.776,177.124,-213.256,1
2.075062,-2.603,-1.143,0.207,152.404,180.48,-191.772,1
2.083502,-2.393,-1.082,0.178,130.981,182.739,-172.241,1
2.092086,-2.143,-1.026,0.161,110.29,183.654,-151.672,1
2.099559,-1.934,-0.976,0.15,98.449,183.715,-136.291,1
2.107609,-1.747,-0.931,0.142,91.613,183.044,-122.253,1
2.115994,-1.573,-0.891,0.149,88.5,182.006,-106.994,1
2.123211,-1.416,-0.852,0.145,90.332,180.969,-94.97,1
2.131184,-1.269,-0.808,0.129,94.116,178.833,-82.946,1
2.14016,-1.145,-0.758,0.117,99.487,176.269,-70.19,1
2.146974,-1.041,-0.697,0.101,103.576,173.828,-59.875,1
2.1557,-0.956,-0.65,0.084,105.285,171.264,-50.109,1
2.164666,-0.845,-0.612,0.065,101.135,168.701,-40.649,1
2.171207,-0.757,-0.577,0.051,91.491,165.466,-30.7,1
2.17902,-0.678,-0.537,0.046,84.716,162.536,-23.193,1
2.187901,-0.607,-0.488,0.037,80.017,158.142,-15.136,1
2.195157,-0.561,-0.445,0.042,78.552,154.541,-8.911,1
2.204596,-0.501,-0.41,0.03,79.162,150.207,-3.601,1
2.210705,-0.457,-0.382,0.017,81.481,145.324,1.77,1
2.21866,-0.416,-0.353,0.015,84.167,141.052,6.286,1
2.226356,-0.359,-0.336,0.001,85.937,136.474,10.437,1
2.235204,-0.3,-0.313,0.001,88.989,132.69,14.16,1
2.243004,-0.217,-0.287,0.0,92.529,127.685,18.737,1
2.25084,-0.163,-0.26,-0.003,97.045,123.474,21.972,1
2.25928,-0.075,-0.235,0.0,103.759,119.323,25.878,1
2.269201,-0.031,-0.215,0.003,109.68,115.966,29.296,1
2.275718,0.024,-0.17,-0.001,117.98,111.755,32.897,1
2.284274,0.075,-0.138,0.001,128.967,107.727,35.949,1
2.293797,0.092,-0.11,-0.02,141.357,103.393,38.757,1
2.299833,0.117,-0.106,-0.019,146.301,98.999,41.137,1
2.307421,0.174,-0.098,-0.023,150.207,95.825,43.579,1
2.316489,0.266,-0.1,-0.025,152.526,92.224,46.142,1
2.323851,0.375,-0.096,0.001,155.517,89.66,48.95,1
2.333218,0.467,-0.099,0.018,160.583,87.097,52.001,1
2.341281,0.539,-0.096,0.044,166.137,85.754,54.992,1
2.349575,0.585,-0.084,0.046,171.386,85.388,58.898,1
2.356511,0.573,-0.091,0.053,168.823,85.388,63.293,1
2.365458,0.616,-0.068,0.049,161.132,86.608,67.26,1
2.372362,0.646,-0.04,0.039,154.907,87.341,70.739,1
2.379829,0.622,-0.01,0.039,150.146,87.585,73.547,1
2.387735,0.61,0.022,0.018,149.23,87.036,76.843,1
2.395855,0.614,0.039,0.004,151.55,85.937,78.674,1
2.40296,0.622,0.053,0.001,157.775,84.167,80.932,1
2.410475,0.635,0.047,-0.014,166.503,81.848,83.862,1
2.419305,0.64,0.043,-0.022,172.302,80.017,86.791,1
2.427947,0.677,0.039,-0.026,177.429,79.101,90.759,1
2.436903,0.68,0.045,-0.028,181.03,77.941,93.811,1
2.443116,0.664,0.057,-0.021,184.875,78.002,97.045,1
2.452523,0.646,0.056,-0.023,185.852,78.002,100.097,1
2.459194,0.615,0.068,-0.025,184.387,79.284,104.492,1
2.466713,0.594,0.093,-0.029,182.373,79.528,108.154,1
2.475522,0.581,0.123,-0.034,182.189,79.711,111.999,1
2.483681,0.567,0.144,-0.04,182.006,79.772,116.088,1
2.490709,0.546,0.164,-0.037,177.062,80.505,121.398,1
2.499954,0.535,0.183,-0.048,174.743,80.444,125.61,1
2.508654,0.489,0.211,-0.034,177.185,79.895,130.371,1
2.517273,0.439,0.222,-0.045,181.823,79.345,134.765,1
2.524022,0.388,0.235,-0.038,185.424,78.857,138.732,1
2.533039,0.335,0.244,-0.047,189.453,78.125,143.249,1
2.541851,0.309,0.25,-0.044,192.932,76.965,147.521,1
2.550173,0.314,0.269,-0.051,196.655,76.354,152.343,1
2.556921,0.309,0.298,-0.06,202.941,75.256,158.386,1
2.56589,0.287,0.34,-0.072,206.054,74.523,164.245,1
2.574788,0.253,0.388,-0.083,201.354,73.059,170.349,1
2.582131,0.198,0.426,-0.078,189.086,73.486,174.133,1
2.589892,0.152,0.463,-0.085,170.532,74.584,177.49,1
2.597698,0.09,0.5,-0.075,145.019,76.11,180.847,1
2.605792,0.038,0.557,-0.071,126.098,77.575,183.41,1
2.612851,-0.019,0.61,-0.062,114.196,77.27,185.18,1
2.621387,-0.073,0.626,-0.045,111.572,77.392,187.377,1
2.62937,-0.119,0.646,-0.04,115.722,76.416,189.575,1
2.638466,-0.134,0.697,-0.037,136.047,74.523,193.298,1
2.645913,-0.126,0.761,-0.062,161.437,70.251,196.411,1
2.654152,-0.152,0.801,-0.08,183.288,66.101,199.523,1
2.660641,-0.222,0.819,-0.096,184.02,63.598,203.369,1
2.670989,-0.273,0.861,-0.12,159.79,63.659,205.749,1
2.67841,-0.332,0.953,-0.116,122.497,65.307,207.275,1
2.686471,-0.411,1.058,-0.105,99.609,67.199,207.58,1
2.693912,-0.44,1.137,-0.095,88.378,67.321,207.458,1
2.702136,-0.478,1.217,-0.053,86.791,67.81,206.603,1
2.709194,-0.502,1.278,-0.009,96.191,66.589,205.444,1
2.716828,-0.538,1.291,0.026,107.055,65.429,204.345,1
2.724762,-0.507,1.257,0.066,109.252,64.27,203.857,1
2.733626,-0.572,1.316,0.105,115.478,66.162,203.063,1
2.742199,-0.586,1.307,0.139,113.098,66.406,202.087,1
2.750198,-0.618,1.377,0.14,103.942,70.8,201.416,1
2.758209,-0.674,1.455,0.112,92.773,71.411,199.951,1
2.766496,-0.696,1.504,0.097,78.796,74.401,198.12,1
2.774599,-0.746,1.575,0.05,48.339,77.392,195.434,1
2.782663,-0.867,1.72,0.075,45.654,80.688,192.687,1
2.789592,-0.755,1.736,0.051,49.743,80.566,187.988,1
2.797986,-0.776,1.723,0.036,54.443,82.031,183.898,1
2.806914,-0.761,1.72,0.035,57.312,81.848,180.358,1
2.814175,-0.71,1.76,0.03,63.72,82.092,176.574,1
2.822758,-0.748,1.771,0.027,64.697,82.336,172.302,1
2.83018,-0.73,1.769,0.024,56.335,84.289,167.785,1
2.838934,-0.72,1.742,0.035,48.095,84.96,163.269,1
2.846586,-0.684,1.681,0.049,39.978,87.707,159.179,1
2.853626,-0.681,1.608,0.007,30.09,89.599,154.907,1
2.862539,-0.62,1.628,-0.006,24.291,92.224,151.977,1
2.869068,-0.632,1.61,-0.07,28.076,91.247,148.864,1
2.877694,-0.652,1.596,-0.118,38.085,90.759,145.996,1
2.885212,-0.644,1.583,-0.18,46.874,88.378,143.554,1
2.894368,-0.636,1.541,-0.225,56.274,85.388,141.235,1
2.902801,-0.617,1.494,-0.279,68.664,81.237,138.854,1
2.91022,-0.607,1.457,-0.299,70.8,78.125,138.061,1
2.918827,-0.614,1.442,-0.327,67.687,76.049,137.023,1
2.926155,-0.609,1.442,-0.35,60.607,73.242,135.559,1
2.935758,-0.607,1.45,-0.37,61.645,69.946,133.85,1
2.942926,-0.584,1.44,-0.383,67.993,65.551,132.324,1
2.952111,-0.575,1.415,-0.387,72.021,62.072,131.835,1
2.959461,-0.56,1.395,-0.41,72.509,58.349,130.92,1
2.966866,-0.57,1.398,-0.418,68.115,54.321,129.699,1
2.976319,-0.576,1.409,-0.418,64.208,51.33,128.845,1
2.983776,-0.557,1.438,-0.437,59.02,47.79,127.014,1
2.992178,-0.592,1.478,-0.448,54.809,44.921,125.366,1
2.999736,-0.6,1.528,-0.456,50.048,41.503,122.802,1
3.008698,-0.599,1.577,-0.461,49.133,37.231,119.628,1
3.015346,-0.607,1.599,-0.466,49.072,33.691,116.088,1
3.024329,-0.546,1.621,-0.45,50.109,30.273,112.365,1
3.032206,-0.533,1.616,-0.449,50.17,26.367,108.581,1
3.040497,-0.5,1.624,-0.423,47.973,22.888,104.37,1
3.049679,-0.526,1.654,-0.436,44.494,20.263,100.158,1
3.056003,-0.491,1.679,-0.414,41.809,15.869,95.031,1
3.065939,-0.451,1.668,-0.411,40.771,13.305,90.332,1
3.072312,-0.509,1.674,-0.395,33.508,9.46,84.96,1
3.081224,-0.5,1.672,-0.35,19.409,8.789,80.505,1
3.09038,-0.432,1.669,-0.323,0.61,6.774,75.195,1
3.097746,-0.471,1.685,-0.278,-8.605,5.187,69.885,1
3.108364,-0.457,1.687,-0.243,-11.779,3.295,65.307,1
3.11676,-0.455,1.687,-0.214,-11.84,0.671,59.143,1
3.124859,-0.437,1.759,-0.183,-25.268,0.244,57.128,1
3.133995,-0.434,1.717,-0.184,-19.714,-3.54,49.56,1
3.141546,-0.437,1.694,-0.124,-1.525,-5.065,44.006,1
3.149393,-0.458,1.649,-0.14,3.234,-7.873,38.452,1
3.159799,-0.44,1.641,-0.105,4.272,-8.544,33.508,1
3.168015,-0.454,1.621,-0.109,13.244,-10.437,28.076,1
3.176435,-0.484,1.571,-0.093,16.174,-13.122,22.766,1
3.183038,-0.453,1.517,-0.067,15.197,-13.916,18.127,1
3.192817,-0.472,1.493,-0.04,15.808,-15.441,14.587,1
3.200163,-0.466,1.444,-0.003,15.441,-16.479,11.291,1
3.209122,-0.475,1.406,0.026,12.268,-17.272,7.263,1
3.217714,-0.487,1.364,0.057,9.46,-17.578,3.906,1
3.227541,-0.48,1.331,0.076,8.178,-17.761,0.915,1
3.234493,-0.473,1.29,0.1,9.338,-18.493,-1.403,1
3.243366,-0.471,1.245,0.123,11.291,-18.859,-3.845,1
3.251256,-0.469,1.195,0.141,13.488,-18.432,-6.347,1
3.260754,-0.473,1.151,0.148,10.192,-17.944,-8.056,1
3.267956,-0.472,1.112,0.16,4.272,-16.906,-9.826,1
3.274785,-0.485,1.08,0.164,1.586,-16.235,-11.108,1
3.283107,-0.499,0.983,0.178,-2.746,-16.113,-11.779,1
3.290838,-0.486,1.037,0.194,-4.089,-14.831,-13.244,1
3.298391,-0.498,1.015,0.203,0.427,-15.808,-14.648,1
3.306225,-0.505,0.984,0.231,1.77,-15.197,-15.563,1
3.314749,-0.514,0.95,0.231,-2.868,-14.465,-16.296,1
3.323429,-0.511,0.925,0.263,-6.896,-13.183,-16.906,1
3.332404,-0.514,0.904,0.264,-10.742,-12.145,-17.211,1
3.338858,-0.517,0.891,0.281,-12.573,-10.864,-17.761,1
3.346795,-0.514,0.87,0.282,-11.962,-10.375,-17.883,1
3.355131,-0.517,0.846,0.285,-10.07,-9.582,-17.883,1
3.363927,-0.51,0.795,0.28,-13.732,-7.873,-17.15,1
3.372392,-0.513,0.797,0.283,-13.671,-6.774,-17.333,1
3.381327,-0.453,0.802,0.281,-3.54,-6.042,-17.028,1
3.388068,-0.496,0.771,0.25,7.934,-6.408,-16.174,1
3.399223,-0.511,0.752,0.242,12.573,-5.981,-15.747,1
3.405979,-0.509,0.731,0.229,13.977,-5.432,-14.709,1
3.414724,-0.515,0.715,0.224,13.732,-4.821,-13.854,1
3.421831,-0.515,0.693,0.202,10.925,-3.906,-13.061,1
3.43246,-0.51,0.679,0.199,6.958,-2.929,-11.84,1
3.440628,-0.513,0.668,0.184,3.479,-2.441,-10.009,1
3.448076,-0.511,0.667,0.17,-1.098,-1.77,-8.789,1
3.458424,-0.51,0.674,0.168,-4.699,-1.342,-7.08,1
3.46696,-0.5,0.681,0.161,-6.652,-1.098,-5.615,1
3.47498,-0.49,0.683,0.149,-6.774,-0.61,-4.638,1
3.483049,-0.492,0.691,0.147,-6.225,-0.427,-3.112,1
3.492086,-0.492,0.708,0.135,-5.554,-0.305,-2.258,1
3.500355,-0.495,0.718,0.12,-3.54,-0.244,-1.159,1
3.508804,-0.496,0.73,0.11,-0.366,-0.122,-0.244,1
3.515698,-0.495,0.737,0.101,1.953,0.244,0.488,1
3.524585,-0.501,0.735,0.089,4.089,0.488,1.647,1
3.532315,-0.511,0.734,0.083,4.882,0.793,2.319,1
3.540524,-0.5,0.74,0.074,5.981,0.854,3.295,1
3.548265,-0.538,0.747,0.058,6.225,0.854,3.784,1
3.556749,-0.535,0.751,0.047,4.394,0.854,4.577,1
3.56302,-0.536,0.767,0.021,0.854,1.098,5.187,1
3.571452,-0.539,0.778,0.003,-2.38,0.793,5.615,1
3.578201,-0.545,0.797,-0.021,-4.638,0.244,5.676,1
3.586258,-0.547,0.827,-0.056,-7.324,-0.183,6.103,1
3.594592,-0.559,0.846,-0.087,-11.352,-1.281,5.92,1
3.601639,-0.57,0.885,-0.101,-14.343,-2.685,5.615,1
3.609572,-0.54,0.899,-0.106,-15.319,-4.76,5.493,1
3.617531,-0.525,0.906,-0.1,-13.549,-6.225,5.187,1
3.625813,-0.512,0.911,-0.102,-9.887,-8.544,5.065,1
3.632741,-0.477,0.909,-0.083,-8.239,-10.192,4.943,1
3.640638,-0.48,0.908,-0.074,-10.009,-11.23,4.76,1
3.648593,-0.482,0.911,-0.06,-13.366,-12.268,4.821,1
3.656296,-0.471,0.916,-0.039,-15.441,-13.549,4.577,1
3.664942,-0.456,0.929,-0.01,-12.817,-15.258,4.577,1
3.673143,-0.447,0.931,0.03,-6.958,-16.906,4.516,1
3.679634,-0.439,0.917,0.067,-2.075,-18.127,4.15,1
3.687763,-0.439,0.903,0.099,-2.136,-19.348,4.028,1
3.696485,-0.44,0.888,0.136,-5.615,-19.104,3.845,1
3.702683,-0.445,0.875,0.181,-11.108,-18.249,3.784,1
3.711197,-0.452,0.862,0.232,-17.333,-17.883,3.967,1
3.718109,-0.467,0.848,0.306,-22.705,-17.028,4.15,1
3.72672,-0.457,0.848,0.359,-24.963,-16.052,4.577,1
3.734922,-0.446,0.844,0.437,-23.62,-14.831,5.187,1
3.743013,-0.455,0.832,0.501,-22.949,-13.61,6.042,1
3.749889,-0.472,0.842,0.58,-21.789,-12.084,7.141,1
3.757941,-0.442,0.804,0.648,-28.442,-9.948,8.605,1
3.766585,-0.52,0.856,0.788,-33.325,-6.835,10.131,1
3.773221,-0.498,0.86,0.884,-41.564,-1.892,10.681,1
3.782003,-0.523,0.866,1.012,-55.786,3.112,12.329,1
3.788959,-0.487,0.92,1.151,-64.819,9.582,12.084,1
3.797879,-0.496,0.982,1.282,-68.908,15.991,12.268,1
3.804638,-0.441,1.02,1.433,-66.833,23.071,11.962,1
3.81301,-0.427,1.039,1.533,-71.411,31.799,11.23,1
3.821764,-0.441,1.092,1.673,-80.383,42.419,10.742,1
3.82823,-0.471,1.162,1.771,-85.632,54.504,8.972,1
3.837655,-0.477,1.211,1.866,-84.289,65.246,7.141,1
3.845063,-0.521,1.27,1.953,-80.383,76.232,4.821,1
3.853098,-0.575,1.323,2.025,-77.697,88.623,1.831,1
3.860409,-0.623,1.382,2.08,-73.364,100.708,-1.281,1
3.869145,-0.693,1.455,2.134,-69.396,112.365,-4.455,1
3.877242,-0.771,1.516,2.177,-61.706,127.502,-8.911,1
3.885375,-0.842,1.574,2.216,-55.725,139.953,-13.0,1
3.894464,-0.916,1.636,2.243,-50.903,151.794,-17.7,1
3.902685,-1.016,1.706,2.278,-40.039,168.09,-24.169,1
3.912051,-1.101,1.765,2.278,-29.541,180.297,-29.602,1
3.918757,-1.234,1.823,2.251,-21.179,194.946,-36.315,1
3.926155,-1.339,1.857,2.191,-22.094,207.641,-42.114,1
3.933697,-1.429,1.895,2.125,-30.212,219.543,-48.889,1
3.942443,-1.511,1.936,2.054,-40.649,232.238,-55.847,1
3.948494,-1.611,1.958,1.94,-56.701,242.858,-63.537,1
3.958674,-1.684,1.994,1.858,-74.035,251.586,-70.373,1
3.965992,-1.729,2.046,1.752,-94.543,263.427,-80.383,1
3.974807,-1.794,2.114,1.659,-108.581,273.315,-91.369,1
3.982268,-1.93,2.216,1.523,-112.426,280.273,-101.623,1
3.991309,-1.999,2.284,1.394,-113.891,285.461,-115.112,1
3.998078,-2.04,2.273,1.219,-123.352,289.489,-126.586,1
4.005837,-2.1,2.3,1.096,-151.55,294.25,-138.977,1
4.013645,-2.223,2.359,0.922,-182.983,295.715,-155.334,1
4.02191,-2.228,2.394,0.827,-196.96,294.982,-169.555,1
4.029831,-2.266,2.399,0.707,-200.195,292.297,-183.715,1
4.03699,-2.314,2.412,0.625,-194.458,287.17,-197.082,1
4.046051,-2.329,2.404,0.507,-184.631,282.043,-209.777,1
4.053582,-2.375,2.379,0.403,-176.269,274.169,-223.571,1
4.061226,-2.385,2.354,0.309,-171.813,266.174,-236.206,1
4.070787,-2.397,2.335,0.253,-172.546,258.422,-246.582,1
4.079045,-2.403,2.315,0.183,-173.217,250.793,-256.164,1
4.086063,-2.417,2.29,0.112,-171.569,239.929,-267.089,1
4.09382,-2.428,2.258,0.06,-166.381,230.285,-275.756,1
4.102731,-2.43,2.225,-0.021,-157.714,220.581,-284.118,1
4.110023,-2.42,2.181,-0.068,-151.062,208.679,-293.212,1
4.119288,-2.488,2.188,-0.091,-140.625,200.927,-300.537,1
4.12821,-2.459,2.175,-0.15,-122.802,189.025,-308.837,1
4.136892,-2.486,2.143,-0.185,-103.393,180.114,-315.917,1
4.145825,-2.497,2.12,-0.29,-83.679,170.898,-322.082,1
4.153927,-2.52,2.089,-0.345,-67.932,161.987,-328.186,1
4.162006,-2.507,2.044,-0.43,-52.368,155.334,-332.58,1
4.169899,-2.513,2.008,-0.494,-28.625,146.545,-337.28,1
4.177946,-2.549,1.945,-0.586,-6.286,140.502,-340.393,1
4.187327,-2.542,1.89,-0.647,9.399,133.483,-342.773,1
4.195568,-2.482,1.833,-0.71,20.568,129.577,-344.055,1
4.203197,-2.437,1.749,-0.801,28.991,124.511,-344.726,1
4.211002,-2.455,1.669,-0.901,30.517,120.3,-345.031,1
4.220212,-2.366,1.609,-0.966,18.676,115.661,-345.764,1
4.227447,-2.343,1.536,-1.008,4.028,110.9,-346.618,1
4.236482,-2.298,1.464,-1.062,-11.535,105.346,-347.961,1
4.244925,-2.287,1.412,-1.077,-22.827,98.449,-349.792,1
4.253969,-2.256,1.337,-1.105,-25.268,91.796,-351.928,1
4.26191,-2.218,1.262,-1.114,-25.817,83.557,-354.431,1
4.270918,-2.191,1.167,-1.121,-24.169,76.416,-356.445,1
4.280149,-2.157,1.065,-1.119,-27.709,69.091,-358.337,1
4.288146,-2.083,0.947,-1.099,-38.208,62.561,-359.802,1
4.295819,-2.012,0.838,-1.038,-46.874,56.03,-360.595,1
4.303105,-1.956,0.71,-0.927,-48.156,49.316,-360.473,1
4.311287,-1.908,0.596,-0.858,-48.522,42.602,-359.558,1
4.320185,-1.872,0.488,-0.771,-54.016,37.536,-358.032,1
4.329295,-1.824,0.389,-0.685,-66.894,31.005,-355.59,1
4.338052,-1.765,0.301,-0.593,-81.542,25.085,-352.722,1
4.345579,-1.668,0.25,-0.507,-92.102,20.629,-350.524,1
4.354371,-1.607,0.175,-0.45,-101.379,15.686,-347.839,1
4.363333,-1.561,0.109,-0.383,-114.44,9.399,-343.994,1
4.370165,-1.457,0.06,-0.327,-120.239,4.821,-339.599,1
4.379301,-1.436,0.007,-0.307,-124.755,0.732,-335.51,1
4.388282,-1.401,-0.024,-0.256,-130.92,-3.601,-331.42,1
4.396984,-1.338,-0.035,-0.217,-136.535,-7.385,-327.758,1
4.40593,-1.349,-0.03,-0.191,-137.268,-10.437,-324.89,1
4.414826,-1.422,-0.051,-0.191,-136.474,-15.93,-322.143,1
4.422247,-1.539,-0.137,-0.178,-139.831,-20.69,-318.237,1
4.431407,-1.413,-0.186,-0.141,-144.287,-24.963,-313.11,1
4.439007,-1.343,-0.236,-0.132,-143.92,-28.869,-308.715,1
4.446887,-1.33,-0.267,-0.121,-140.747,-31.616,-304.87,1
4.455209,-1.259,-0.299,-0.115,-136.047,-35.095,-300.781,1
4.464219,-1.247,-0.321,-0.107,-124.206,-39.55,-297.302,1
4.471086,-1.283,-0.353,-0.095,-109.436,-43.762,-293.945,1
4.479973,-1.325,-0.374,-0.073,-88.5,-46.813,-291.259,1
4.48932,-1.302,-0.421,-0.059,-57.922,-50.598,-289.001,1
4.498024,-1.345,-0.478,0.022,-18.981,-51.574,-287.109,1
4.505355,-1.336,-0.585,0.058,11.718,-48.4,-285.034,1
4.514138,-1.318,-0.688,0.086,21.667,-44.006,-282.714,1
4.521191,-1.216,-0.837,0.107,21.24,-38.391,-280.273,1
4.530199,-1.169,-0.971,0.186,14.16,-31.982,-276.672,1
4.536951,-1.091,-1.171,0.214,-4.333,-22.949,-271.057,1
4.546381,-1.036,-1.297,0.279,-21.057,-15.136,-264.709,1
4.553711,-0.994,-1.423,0.295,-27.526,-9.277,-258.056,1
4.562235,-1.02,-1.525,0.354,-25.695,-4.15,-248.779,1
4.571557,-0.968,-1.637,0.356,-19.836,2.014,-238.83,1
4.578931,-1.008,-1.695,0.349,-13.0,5.92,-229.797,1
4.588517,-1.14,-1.738,0.341,-3.356,10.62,-219.482,1
4.596028,-1.219,-1.786,0.321,4.882,14.038,-210.876,1
4.604872,-1.266,-1.866,0.296,4.516,19.409,-199.218,1
4.613585,-1.261,-1.972,0.292,-0.549,23.132,-189.392,1
4.619868,-1.237,-2.033,0.334,2.38,26.0,-179.138,1
4.629193,-1.27,-2.121,0.346,22.46,27.709,-166.564,1
4.63638,-1.27,-2.232,0.375,39.001,30.273,-154.846,1
4.643975,-1.262,-2.374,0.395,53.833,32.409,-140.93,1
4.652534,-1.275,-2.49,0.425,73.73,35.583,-123.779,1
4.659932,-1.249,-2.625,0.453,85.083,39.611,-107.36,1
4.668723,-1.211,-2.755,0.475,92.834,44.067,-89.05,1
4.676192,-1.198,-2.865,0.501,103.271,50.72,-65.795,1
4.685116,-1.193,-2.903,0.502,119.75,55.114,-44.982,1
4.692457,-1.265,-2.906,0.499,144.348,59.387,-23.559,1
4.699605,-1.352,-2.979,0.457,152.16,65.124,2.075,1
4.708784,-1.372,-3.068,0.439,115.173,74.646,24.963,1
4.716255,-1.428,-2.984,0.429,75.012,85.266,52.673,1
4.725617,-1.504,-2.873,0.416,77.209,91.064,75.988,1
4.73178,-1.574,-2.812,0.397,98.937,94.787,99.975,1
4.740489,-1.681,-2.752,0.356,125.915,98.754,124.45,1
4.748243,-1.869,-2.674,0.274,152.465,102.6,154.174,1
4.757863,-2.068,-2.584,0.19,166.564,106.445,179.626,1
4.766174,-2.299,-2.475,0.094,172.119,110.229,209.655,1
4.773844,-2.579,-2.352,0.015,169.006,113.952,235.961,1
4.781097,-2.826,-2.242,-0.071,163.085,118.164,266.296,1
4.789914,-3.083,-2.129,-0.128,157.348,121.276,293.334,1
4.797872,-3.369,-2.022,-0.201,152.16,124.633,320.556,1
4.806859,-3.685,-1.919,-0.284,142.761,127.258,353.088,1
4.815447,-4.1,-1.829,-0.368,122.619,131.286,385.925,1
4.82231,-4.435,-1.754,-0.429,99.792,135.559,414.123,1
4.831401,-4.903,-1.678,-0.505,72.753,141.235,448.425,1
4.839949,-5.401,-1.571,-0.552,63.232,145.263,477.539,1
4.846646,-5.944,-1.552,-0.606,52.612,149.353,509.338,1
4.854624,-6.465,-1.549,-0.685,46.142,153.32,542.663,1
4.863494,-7.245,-1.523,-0.753,42.724,156.982,578.063,1
4.870569,-7.954,-1.515,-0.837,42.724,160.522,622.375,1
4.879386,-8.904,-1.493,-0.94,25.024,163.33,661.498,1
4.885943,-9.89,-1.449,-1.017,29.418,167.419,711.12,1
4.895231,-11.123,-1.392,-1.137,28.32,167.541,755.31,1
4.90338,-12.652,-1.262,-1.24,54.626,165.405,810.302,1
4.911267,-14.116,-1.102,-1.334,103.942,154.174,858.886,1
4.920058,-15.719,-0.978,-1.432,159.851,135.437,910.095,1
4.927856,-15.997,-0.796,-1.579,213.073,100.585,971.862,1
4.93441,-15.999,-0.593,-1.659,245.91,63.659,1025.207,1
4.943315,-15.999,-0.31,-1.701,271.85,17.272,1077.636,1
4.951633,-15.999,0.141,-1.652,310.852,-46.386,1135.437,1
4.959731,-15.999,0.637,-1.559,358.764,-112.609,1180.419,1
4.968229,-15.999,1.105,-1.368,397.033,-188.049,1219.909,1
4.976275,-15.999,1.71,-1.134,443.237,-284.851,1258.056,1
4.982771,-15.999,2.28,-0.74,491.394,-383.239,1279.357,1
4.990236,-15.999,2.729,-0.39,541.748,-484.741,1290.466,1
4.999304,-15.999,3.223,-0.009,599.609,-603.515,1285.705,1
5.006717,-15.999,3.619,0.617,664.367,-753.601,1261.901,1
5.014973,-15.999,3.8,1.406,738.952,-894.836,1218.017,1
5.021691,-15.999,3.606,2.253,845.519,-1041.626,1154.357,1
5.032073,-15.999,3.722,3.552,1001.037,-1196.35,1060.669,1
5.038723,-15.999,4.752,4.813,1293.884,-1353.82,883.605,1
5.047392,-15.999,4.424,4.44,1614.196,-1505.065,595.153,1
5.056317,-15.999,3.454,4.444,1686.096,-1582.641,264.465,1
5.065265,-15.999,3.184,4.013,1541.625,-1564.941,-58.349,1
5.073674,-15.999,2.936,4.092,1360.229,-1465.515,-289.123,1
5.082507,-15.999,2.82,3.757,1189.514,-1341.552,-481.689,1
5.089193,-15.999,2.006,3.56,1006.774,-1168.518,-652.648,1
5.09859,-15.999,1.099,2.833,776.855,-997.253,-764.16,1
5.106882,-15.999,0.834,2.636,554.077,-875.061,-815.49,1
5.114254,-15.999,0.83,2.646,396.057,-772.094,-836.059,1
5.124236,-15.999,0.958,2.476,392.333,-673.828,-849.426,1
5.133406,-15.999,0.761,2.49,494.567,-585.693,-864.929,1
5.141338,-15.999,0.317,2.251,524.353,-498.413,-875.915,1
5.150511,-15.999,-0.065,2.169,488.83,-395.446,-877.441,1
5.158669,-15.999,-0.603,1.907,440.551,-302.795,-866.821,1
5.167045,-15.074,-1.087,1.759,348.51,-229.125,-838.134,1
5.176053,-13.891,-1.197,1.897,327.392,-166.564,-797.18,1
5.185072,-12.88,-1.37,1.864,362.487,-119.934,-757.629,1
5.192442,-11.264,-1.869,1.698,342.346,-46.813,-701.721,1
5.202063,-9.988,-2.128,1.469,241.088,-1.159,-659.301,1
5.20912,-8.706,-2.153,1.418,131.591,39.672,-609.558,1
5.217304,-7.563,-2.01,1.354,128.845,64.697,-564.514,1
5.225414,-6.657,-2.095,1.272,183.776,82.763,-530.578,1
5.233769,-5.653,-2.374,1.02,219.421,108.398,-495.91,1
5.241465,-5.193,-2.421,0.769,198.425,134.338,-454.772,1
5.251358,-4.876,-2.258,0.586,176.208,151.794,-419.494,1
5.259632,-4.787,-1.996,0.448,187.133,160.339,-378.295,1
5.268082,-4.56,-1.888,0.307,211.059,170.166,-337.402,1
5.275005,-4.238,-1.891,0.135,198.059,177.612,-304.138,1
5.284098,-3.805,-1.895,0.0,145.935,188.171,-269.348,1
5.291878,-3.45,-1.854,-0.136,94.543,192.81,-242.98,1
5.301543,-3.081,-1.798,-0.222,50.903,194.519,-215.637,1
5.309916,-2.696,-1.78,-0.316,25.939,190.429,-190.856,1
5.317432,-2.409,-1.778,-0.358,15.319,185.485,-171.874,1
5.325784,-2.103,-1.769,-0.391,12.878,177.368,-150.451,1
5.334675,-1.841,-1.733,-0.381,21.789,168.64,-130.554,1
5.343008,-1.63,-1.701,-0.364,34.423,161.071,-113.83,1
5.350285,-1.36,-1.638,-0.343,47.912,154.541,-97.595,1
5.358921,-1.129,-1.562,-0.34,62.255,146.301,-79.162,1
5.367978,-0.9,-1.462,-0.327,75.256,138.977,-61.767,1
5.376538,-0.712,-1.365,-0.324,82.763,132.385,-47.302,1
5.384292,-0.524,-1.245,-0.296,86.791,126.342,-34.423,1
5.392628,-0.367,-1.128,-0.275,85.51,118.835,-17.822,1
5.401931,-0.256,-1.012,-0.234,81.604,113.647,-4.882,1
5.4111,-0.166,-0.919,-0.205,81.054,108.642,5.31,1
5.418444,-0.086,-0.817,-0.169,90.148,103.088,16.418,1
5.427625,-0.037,-0.737,-0.16,101.196,98.022,24.719,1
5.434929,-0.001,-0.657,-0.164,111.45,92.651,33.447,1
5.441593,-0.009,-0.584,-0.193,114.685,88.195,39.611,1
5.45077,-0.02,-0.521,-0.256,113.159,81.726,46.264,1
5.458202,-0.018,-0.479,-0.316,108.093,74.768,50.72,1
5.465572,0.017,-0.442,-0.359,100.891,67.626,54.626,1
5.474845,0.071,-0.402,-0.395,92.834,60.058,57.861,1
5.482155,0.115,-0.373,-0.402,84.045,51.513,60.302,1
5.490693,0.156,-0.35,-0.395,80.261,44.677,61.767,1
5.499008,0.228,-0.323,-0.397,80.078,36.254,62.561,1
5.50561,0.272,-0.3,-0.389,82.092,29.785,62.255,1
5.514404,0.288,-0.278,-0.396,83.251,22.827,61.706,1
5.521138,0.281,-0.258,-0.401,85.021,15.38,60.546,1
5.530569,0.285,-0.25,-0.39,87.951,8.239,59.326,1
5.537505,0.313,-0.258,-0.373,93.688,-0.183,57.617,1
5.544703,0.344,-0.275,-0.358,97.778,-6.469,55.786,1
5.553838,0.394,-0.32,-0.34,98.022,-11.84,54.321,1
5.562912,0.46,-0.368,-0.319,93.322,-17.517,53.405,1
5.56995,0.509,-0.409,-0.291,88.012,-21.423,53.161,1
5.580239,0.555,-0.437,-0.26,85.937,-26.245,53.283,1
5.587321,0.599,-0.488,-0.228,88.806,-31.127,54.199,1
5.595819,0.647,-0.529,-0.201,94.116,-35.766,55.358,1
5.604633,0.703,-0.584,-0.163,100.83,-40.893,57.25,1
5.613396,0.717,-0.624,-0.14,104.797,-44.128,59.02,1
5.620258,0.759,-0.654,-0.104,106.201,-49.194,60.485,1
5.627984,0.8,-0.691,-0.088,104.248,-52.307,62.316,1
5.636701,0.825,-0.725,-0.07,97.534,-55.48,64.27,1
5.647444,0.833,-0.747,-0.047,87.402,-57.739,67.26,1
5.653813,0.824,-0.739,-0.033,78.125,-60.913,70.373,1
5.663216,0.809,-0.725,-0.02,72.204,-63.293,72.937,1
5.670245,0.804,-0.702,-0.004,67.382,-67.504,76.477,1
5.680078,0.789,-0.682,0.016,67.138,-70.434,79.04,1
5.686517,0.781,-0.666,0.036,69.458,-74.829,82.58,1
5.695151,0.807,-0.668,0.062,69.641,-77.88,85.083,1
5.701904,0.82,-0.669,0.081,68.481,-80.261,86.914,1
5.709951,0.822,-0.687,0.098,63.354,-81.542,89.416,1
5.717626,0.791,-0.701,0.112,49.194,-82.702,92.163,1
5.725408,0.743,-0.697,0.129,32.409,-82.458,95.153,1
5.733845,0.717,-0.686,0.137,16.296,-82.702,98.571,1
5.740916,0.715,-0.651,0.155,4.455,-83.862,101.928,1
5.750052,0.716,-0.607,0.183,2.746,-84.655,105.468,1
5.758012,0.699,-0.578,0.206,8.911,-86.73,109.191,1
5.766745,0.684,-0.545,0.234,23.62,-89.416,113.22,1
5.774433,0.644,-0.513,0.236,36.804,-92.651,116.455,1
5.78385,0.586,-0.497,0.251,48.583,-96.069,121.276,1
5.792115,0.521,-0.472,0.256,50.292,-99.182,125.061,1
5.799489,0.474,-0.453,0.27,48.645,-101.684,129.15,1
5.808486,0.429,-0.419,0.286,41.625,-104.248,134.155,1
5.818028,0.403,-0.385,0.313,36.315,-105.895,138.183,1
5.824613,0.366,-0.365,0.342,30.944,-107.055,142.395,1
5.832486,0.353,-0.351,0.375,26.733,-107.421,145.507,1
5.842981,0.297,-0.332,0.401,24.475,-107.421,150.329,1
5.850325,0.208,-0.328,0.453,23.925,-107.421,157.104,1
5.858943,0.166,-0.336,0.484,20.202,-105.957,163.269,1
5.867539,0.133,-0.35,0.521,11.901,-104.187,168.64,1
5.875093,0.136,-0.358,0.549,0.0,-100.28,174.682,1
5.88365,0.122,-0.357,0.579,-15.747,-96.618,180.969,1
5.89069,0.094,-0.344,0.605,-25.817,-92.407,187.072,1
5.899843,0.057,-0.323,0.626,-32.836,-88.928,193.725,1
5.909534,0.01,-0.305,0.649,-35.4,-84.655,200.256,1
5.917531,-0.036,-0.291,0.676,-35.034,-81.542,206.481,1
5.926982,-0.089,-0.267,0.703,-32.592,-77.697,212.402,1
5.934622,-0.128,-0.243,0.72,-30.761,-75.317,217.651,1
5.941824,-0.185,-0.228,0.749,-27.77,-71.472,223.937,1
5.949797,-0.256,-0.211,0.761,-27.954,-68.359,229.431,1
5.959014,-0.292,-0.193,0.798,-31.188,-64.514,235.534,1
5.965872,-0.339,-0.168,0.807,-41.076,-58.227,242.736,1
5.974995,-0.43,-0.134,0.831,-54.748,-52.185,248.474,1
5.985434,-0.508,-0.081,0.842,-75.866,-43.579,255.798,1
5.993729,-0.57,-0.001,0.853,-88.623,-33.996,263.366,1
6.002248,-0.59,0.038,0.873,-93.505,-28.442,268.798,1
6.011472,-0.649,0.14,0.915,-86.181,-21.728,274.597,1
6.018175,-0.694,0.234,0.96,-68.115,-17.456,279.968,1
6.025821,-0.762,0.307,1.006,-47.912,-11.535,284.179,1
6.035251,-0.83,0.377,1.018,-38.635,-6.347,287.536,1
6.04391,-0.925,0.452,1.043,-36.987,-0.488,290.527,1
6.050914,-1.039,0.545,1.049,-43.518,7.934,293.396,1
6.058369,-1.109,0.639,1.037,-50.964,15.441,294.982,1
6.067698,-1.144,0.745,1.038,-56.945,22.277,295.043,1
6.075433,-1.099,0.806,1.023,-67.626,31.311,295.227,1
6.084461,-1.123,0.892,1.008,-70.373,39.672,294.067,1
6.092662,-1.147,0.95,1.002,-68.725,45.959,293.334,1
6.101,-1.198,0.994,0.967,-68.847,53.405,291.442,1
6.108878,-1.278,1.061,0.971,-72.082,59.692,290.466,1
6.116035,-1.301,1.082,0.957,-74.523,66.589,289.611,1
6.124834,-1.313,1.098,0.932,-83.557,74.707,288.94,1
6.133724,-1.336,1.117,0.907,-93.261,83.251,288.146,1
6.141966,-1.317,1.128,0.861,-101.623,92.102,286.743,1
6.149435,-1.316,1.112,0.815,-108.764,99.243,285.644,1
6.158107,-1.216,1.054,0.743,-132.507,106.445,284.118,1
6.165887,-1.369,1.125,0.742,-138.854,115.539,282.836,1
6.175129,-1.48,1.217,0.747,-127.014,120.483,280.822,1
6.18128,-1.695,1.364,0.725,-103.332,126.77,277.282,1
6.18898,-1.658,1.316,0.707,-81.542,130.493,275.39,1
6.196905,-1.787,1.34,0.71,-66.589,133.85,273.437,1
6.205962,-1.855,1.276,0.668,-54.199,138.366,272.583,1
6.213862,-1.919,1.257,0.65,-64.331,144.897,270.751,1
6.221066,-1.974,1.258,0.587,-86.669,150.573,268.798,1
6.228005,-2.01,1.3,0.558,-105.468,158.508,266.723,1
6.237035,-2.034,1.346,0.509,-117.248,165.039,263.671,1
6.244554,-2.042,1.404,0.495,-122.802,172.912,258.3,1
6.252884,-2.046,1.442,0.431,-126.708,178.955,252.685,1
6.261847,-2.027,1.458,0.399,-133.544,184.936,244.201,1
6.269373,-2.101,1.4,0.354,-143.066,191.711,237.792,1
6.278176,-1.939,1.403,0.301,-155.09,198.425,229.736,1
6.286162,-1.987,1.38,0.304,-167.602,206.176,221.191,1
6.293908,-2.012,1.356,0.256,-180.358,216.613,215.393,1
6.302789,-2.173,1.415,0.211,-185.913,223.815,209.594,1
6.310456,-2.311,1.48,0.135,-185.363,228.942,202.453,1
6.319431,-2.336,1.512,0.053,-184.814,232.788,192.077,1
6.32667,-2.18,1.492,-0.029,-188.293,236.511,183.532,1
6.335925,-2.104,1.502,-0.089,-183.776,238.769,173.156,1
6.34363,-1.992,1.488,-0.168,-171.447,239.44,163.085,1
6.352314,-1.95,1.472,-0.19,-161.315,239.807,154.663,1
6.361097,-1.934,1.432,-0.241,-157.226,240.905,145.751,1
6.36813,-1.972,1.377,-0.268,-165.832,242.553,138.549,1
6.375469,-2.004,1.342,-0.309,-185.058,245.239,130.554,1
6.384341,-2.048,1.335,-0.343,-206.298,248.107,122.497,1
6.391651,-2.083,1.347,-0.418,-218.261,249.877,114.013,1
6.400302,-2.023,1.359,-0.514,-221.069,247.985,104.98,1
6.408445,-1.965,1.366,-0.581,-208.007,244.14,94.177,1
6.417527,-1.848,1.367,-0.636,-182.8,238.586,85.754,1
6.425787,-1.725,1.348,-0.689,-146.728,230.712,77.209,1
6.432549,-1.651,1.308,-0.707,-115.356,222.656,70.312,1
6.441855,-1.583,1.255,-0.708,-98.937,217.529,65.979,1
6.450329,-1.567,1.206,-0.745,-97.229,212.524,61.218,1
6.457413,-1.52,1.155,-0.761,-112.487,209.106,57.067,1
6.467959,-1.469,1.131,-0.774,-133.361,205.81,51.879,1
6.476499,-1.373,1.085,-0.776,-145.568,200.256,46.508,1
6.483933,-1.317,1.063,-0.783,-145.263,194.763,41.32,1
6.492828,-1.238,1.025,-0.799,-138.366,186.523,36.376,1
6.503399,-1.174,0.976,-0.799,-124.938,179.321,32.47,1
6.509966,-1.093,0.916,-0.788,-116.455,171.813,29.235,1
6.517947,-1.12,0.873,-0.773,-113.647,166.015,27.587,1
6.526194,-0.993,0.841,-0.741,-106.689,160.034,26.245,1
6.533854,-1.013,0.821,-0.715,-100.524,154.235,25.207,1
6.541752,-0.993,0.783,-0.691,-92.773,148.62,24.902,1
6.549829,-0.993,0.77,-0.682,-85.449,143.493,25.39,1
6.556675,-0.982,0.753,-0.664,-83.068,137.756,25.512,1
6.565145,-0.978,0.742,-0.627,-85.693,132.629,25.634,1
6.572855,-0.974,0.735,-0.605,-91.247,128.845,25.512,1
6.582602,-0.926,0.718,-0.564,-97.9,124.816,24.963,1
6.590455,-0.886,0.731,-0.5,-98.022,121.337,24.658,1
6.597914,-0.885,0.733,-0.456,-93.505,117.553,23.803,1
6.606227,-0.862,0.74,-0.382,-81.604,112.426,23.132,1
6.613906,-0.83,0.738,-0.328,-68.42,109.008,22.583,1
6.621707,-0.827,0.721,-0.289,-59.692,106.14,21.85,1
6.629397,-0.819,0.709,-0.274,-59.02,104.003,21.362,1
6.637379,-0.827,0.719,-0.248,-64.086,101.867,20.874,1
6.64609,-0.82,0.726,-0.236,-70.617,100.585,20.202,1
6.654378,-0.763,0.739,-0.204,-77.697,98.571,19.226,1
6.661244,-0.72,0.756,-0.184,-83.984,97.961,17.578,1
6.669628,-0.716,0.791,-0.193,-87.768,96.252,15.686,1
6.678863,-0.719,0.85,-0.195,-87.341,94.726,12.573,1
6.685978,-0.71,0.885,-0.219,-80.932,91.186,9.765,1
6.696729,-0.681,0.895,-0.225,-66.833,87.402,5.859,1
6.703878,-0.643,0.879,-0.259,-52.917,83.129,3.173,1
6.712549,-0.627,0.859,-0.295,-44.372,80.017,1.525,1
6.71959,-0.625,0.847,-0.339,-40.161,76.171,0.122,1
6.728918,-0.632,0.833,-0.375,-39.428,72.937,-0.61,1
6.738131,-0.616,0.812,-0.403,-42.114,69.946,-1.342,1
6.746105,-0.609,0.799,-0.412,-49.743,66.955,-1.22,1
6.753161,-0.594,0.799,-0.407,-58.349,64.758,-1.037,1
6.761417,-0.579,0.806,-0.391,-67.26,61.95,-0.976,1
6.771078,-0.576,0.818,-0.353,-72.265,59.57,-0.793,1
6.779265,-0.578,0.831,-0.323,-72.387,56.213,-0.854,1
6.786882,-0.562,0.831,-0.286,-67.993,53.039,-0.488,1
6.796554,-0.57,0.83,-0.239,-63.537,49.865,0.0,1
6.805504,-0.582,0.843,-0.182,-63.537,47.729,0.427,1
6.812149,-0.592,0.829,-0.122,-66.101,46.081,0.671,1
6.820969,-0.594,0.853,-0.063,-72.326,46.142,0.183,1
6.828188,-0.624,0.851,-0.009,-76.843,45.104,0.183,1
6.837697,-0.61,0.863,0.081,-78.002,45.349,0.0,1
6.846819,-0.604,0.89,0.147,-79.101,45.349,-0.549,1
6.853967,-0.624,0.912,0.248,-77.575,46.02,-1.586,1
6.862491,-0.644,0.935,0.352,-75.5,47.058,-2.014,1
6.87122,-0.652,0.969,0.438,-73.791,49.255,-3.723,1
6.879037,-0.66,0.99,0.523,-72.937,51.818,-5.187,1
6.886383,-0.639,1.006,0.609,-73.974,55.603,-6.286,1
6.894654,-0.644,1.028,0.693,-79.467,59.509,-7.751,1
6.902672,-0.661,1.061,0.789,-89.477,65.551,-10.009,1
6.910082,-0.669,1.083,0.867,-101.562,71.228,-12.207,1
6.919599,-0.685,1.101,0.948,-114.44,78.186,-14.526,1
6.926644,-0.679,1.133,1.031,-129.15,86.425,-17.272,1
6.935904,-0.667,1.162,1.106,-137.756,94.543,-19.653,1
6.94541,-0.645,1.204,1.185,-142.7,103.393,-22.766,1
6.952849,-0.635,1.229,1.218,-140.991,112.854,-25.695,1
6.962316,-0.667,1.281,1.246,-132.08,120.727,-28.869,1
6.969281,-0.71,1.33,1.239,-119.506,127.624,-31.127,1
6.976909,-0.748,1.377,1.213,-101.989,133.85,-34.729,1
6.98598,-0.805,1.426,1.184,-86.303,138.916,-37.841,1
6.993759,-0.857,1.48,1.157,-74.096,144.531,-41.259,1
7.001236,-0.944,1.541,1.106,-67.871,148.62,-45.471,1
7.009601,-0.999,1.582,1.086,-69.213,155.09,-51.391,1
7.016845,-1.039,1.607,1.047,-77.087,160.522,-57.067,1
7.02506,-1.104,1.637,1.02,-89.355,166.625,-63.964,1
7.034056,-1.135,1.653,0.996,-100.463,171.997,-70.007,1
7.041532,-1.145,1.668,0.966,-111.145,177.246,-76.843,1
7.050004,-1.169,1.691,0.94,-121.826,182.373,-83.801,1
7.055805,-1.198,1.738,0.919,-126.403,185.791,-90.148,1
7.063269,-1.252,1.789,0.885,-128.662,187.622,-95.397,1
7.071606,-1.271,1.835,0.877,-131.469,189.697,-101.867,1
7.080308,-1.298,1.876,0.86,-137.084,191.65,-107.849,1
7.08725,-1.33,1.94,0.859,-147.399,194.213,-114.99,1
7.094495,-1.365,2.002,0.874,-156.738,197.753,-121.215,1
7.103736,-1.361,2.053,0.874,-167.114,201.11,-128.112,1
7.111255,-1.369,2.096,0.851,-182.434,206.848,-136.352,1
7.11934,-1.42,2.137,0.802,-201.599,211.425,-144.165,1
7.127563,-1.476,2.19,0.719,-224.121,215.881,-155.151,1
7.135199,-1.445,2.144,0.605,-256.225,217.041,-166.32,1
7.143821,-1.62,2.174,0.529,-289.428,219.482,-178.283,1
7.152498,-1.617,2.138,0.324,-329.65,214.599,-193.603,1
7.160012,-1.693,2.095,0.208,-349.121,209.045,-205.505,1
7.16769,-1.703,2.093,0.114,-353.759,198.303,-220.458,1
7.176743,-1.746,2.044,-0.117,-356.628,187.561,-233.276,1
7.186117,-1.735,1.973,-0.222,-364.379,172.241,-246.765,1
7.194597,-1.85,1.898,-0.387,-367.919,156.127,-258.667,1
7.201073,-1.928,1.899,-0.48,-359.924,136.962,-268.249,1
7.210164,-1.875,1.786,-0.629,-344.299,123.901,-275.39,1
7.21927,-1.846,1.7,-0.686,-334.289,102.172,-284.118,1
7.228682,-1.865,1.625,-0.773,-315.795,83.129,-291.87,1
7.235996,-1.88,1.581,-0.827,-297.912,66.223,-296.508,1
7.244909,-1.889,1.523,-0.874,-269.226,49.011,-300.598,1
7.254876,-1.878,1.447,-0.942,-243.225,31.433,-304.016,1
7.262771,-1.891,1.374,-0.992,-221.252,16.418,-306.091,1
7.27034,-1.886,1.32,-1.06,-205.261,2.99,-307.861,1
7.279422,-1.929,1.286,-1.104,-188.72,-12.145,-308.776,1
7.286732,-1.797,1.168,-1.168,-186.828,-26.977,-308.898,1
7.295419,-1.942,1.192,-1.117,-191.101,-37.475,-308.288,1
7.303484,-1.918,1.147,-1.164,-185.791,-52.124,-307.373,1
7.312335,-1.881,1.098,-1.109,-174.377,-63.537,-307.25,1
7.321686,-1.862,1.038,-1.122,-159.729,-75.378,-306.701,1
7.328774,-1.904,0.994,-1.061,-138.854,-87.036,-306.213,1
7.337445,-1.91,0.943,-1.031,-116.455,-95.52,-305.725,1
7.345904,-1.875,0.884,-0.992,-91.125,-105.285,-305.114,1
7.354892,-1.831,0.81,-0.952,-77.087,-110.595,-304.199,1
7.364201,-1.82,0.741,-0.942,-72.998,-116.577,-303.344,1
7.371153,-1.767,0.643,-0.881,-80.2,-121.704,-302.49,1
7.380549,-1.743,0.585,-0.856,-96.374,-126.098,-302.063,1
7.387476,-1.774,0.538,-0.792,-111.755,-129.699,-300.842,1
7.396536,-1.71,0.485,-0.699,-122.253,-134.582,-299.438,1
7.405045,-1.654,0.438,-0.609,-127.319,-140.319,-297.058,1
7.412922,-1.592,0.378,-0.53,-125.915,-142.944,-295.471,1
7.42213,-1.54,0.343,-0.447,-122.924,-147.338,-292.663,1
7.42948,-1.433,0.273,-0.382,-129.028,-148.803,-289.733,1
7.438417,-1.373,0.253,-0.286,-135.742,-150.512,-286.743,1
7.446208,-1.29,0.24,-0.234,-141.052,-151.062,-283.752,1
7.453324,-1.246,0.24,-0.146,-138.732,-152.893,-280.151,1
7.462894,-1.169,0.214,-0.109,-130.798,-153.259,-277.771,1
7.472078,-1.1,0.201,-0.026,-118.347,-154.113,-275.817,1
7.481157,-1.01,0.166,0.0,-95.764,-152.404,-273.742,1
7.488109,-1.031,0.135,0.042,-67.26,-151.367,-272.033,1
7.496374,-0.973,0.067,0.05,-50.72,-149.414,-271.24,1
7.505083,-0.927,0.02,0.062,-38.513,-146.118,-270.385,1
7.513671,-0.915,-0.041,0.046,-36.56,-142.333,-269.592,1
7.521728,-0.878,-0.092,0.031,-38.635,-137.695,-268.493,1
7.529639,-0.859,-0.15,0.008,-39.001,-133.178,-267.517,1
7.538419,-0.851,-0.197,-0.024,-38.024,-128.356,-265.869,1
7.546248,-0.649,-0.266,-0.072,-39.855,-124.145,-264.709,1
7.553799,-0.937,-0.293,-0.113,-44.189,-121.337,-263.122,1
7.562017,-1.047,-0.355,-0.146,-48.95,-116.21,-261.474,1
7.570797,-1.007,-0.41,-0.213,-66.101,-114.196,-260.131,1
7.578052,-0.997,-0.447,-0.228,-79.467,-111.938,-258.728,1
7.585858,-1.014,-0.47,-0.24,-88.684,-111.389,-256.53,1
7.59414,-1.013,-0.499,-0.235,-86.486,-109.985,-253.723,1
7.60187,-1.039,-0.535,-0.269,-79.589,-111.938,-251.281,1
7.61114,-1.099,-0.571,-0.262,-70.434,-111.816,-248.229,1
7.620355,-1.176,-0.61,-0.285,-63.781,-113.525,-245.178,1
7.627995,-1.244,-0.659,-0.271,-61.096,-113.098,-242.37,1
7.637212,-1.276,-0.711,-0.26,-63.903,-113.525,-239.44,1
7.645774,-1.283,-0.783,-0.223,-65.551,-112.426,-235.29,1
7.654994,-1.282,-0.862,-0.187,-66.345,-112.487,-230.468,1
7.663304,-1.322,-0.902,-0.138,-60.485,-111.816,-226.318,1
7.671822,-1.36,-0.936,-0.083,-50.598,-112.06,-220.458,1
7.680357,-1.151,-1.018,-0.084,-39.428,-112.731,-215.27,1
7.688849,-1.209,-1.076,0.028,-24.291,-113.769,-209.96,1
7.696679,-1.255,-1.157,0.082,-18.371,-111.633,-204.406,1
7.70577,-1.2,-1.261,0.171,-23.498,-107.421,-197.326,1
7.713158,-1.177,-1.339,0.221,-35.4,-103.21,-190.673,1
7.720312,-1.232,-1.379,0.357,-41.748,-100.219,-183.654,1
7.728878,-1.227,-1.403,0.428,-29.541,-94.787,-175.415,1
7.737888,-1.146,-1.477,0.493,-14.221,-94.055,-169.189,1
7.746357,-1.068,-1.625,0.615,-0.732,-87.951,-160.522,1
7.753881,-0.962,-1.863,0.738,-26.672,-81.909,-149.292,1
7.764665,-0.934,-1.996,0.888,-53.1,-70.739,-135.681,1
7.77092,-0.995,-2.044,1.102,-49.743,-62.316,-121.337,1
7.778734,-1.033,-2.159,1.214,-29.785,-53.833,-108.825,1
7.788081,-1.031,-2.321,1.354,-15.869,-44.921,-95.764,1
7.795695,-0.982,-2.409,1.459,-0.671,-31.127,-78.735,1
7.804842,-0.774,-2.614,1.461,12.268,-20.996,-62.499,1
7.811991,-0.847,-2.718,1.674,9.521,-1.953,-45.288,1
7.8205,-0.848,-2.788,1.6,-0.488,15.747,-25.146,1
7.828635,-0.97,-2.803,1.691,10.925,29.296,-7.263,1
7.837632,-1.115,-2.842,1.679,34.912,46.447,14.892,1
7.845159,-1.253,-2.886,1.659,44.128,59.936,34.24,1
7.853076,-1.45,-2.895,1.626,42.541,75.134,54.809,1
7.861159,-1.659,-2.849,1.628,48.767,91.308,78.369,1
7.86916,-1.833,-2.844,1.633,48.767,106.75,99.487,1
7.877147,-2.082,-2.8,1.619,38.696,123.229,120.3,1
7.884092,-2.308,-2.716,1.633,30.822,144.714,145.263,1
7.891916,-2.573,-2.655,1.587,27.587,162.719,166.992,1
7.900902,-2.857,-2.592,1.573,24.597,181.579,189.086,1
7.909554,-3.157,-2.507,1.513,25.085,206.176,215.637,1
7.916794,-3.528,-2.395,1.388,27.465,230.102,243.408,1
7.925364,-3.892,-2.287,1.255,30.883,247.863,263.977,1
7.932854,-4.205,-2.188,1.133,30.761,268.737,288.574,1
7.943331,-4.742,-2.055,0.973,10.986,296.081,317.077,1
7.951634,-5.315,-1.882,0.794,-19.042,326.11,344.177,1
7.958277,-5.974,-1.776,0.674,-51.513,358.703,369.567,1
7.966453,-6.685,-1.716,0.546,-87.219,392.272,390.747,1
7.974647,-7.361,-1.617,0.465,-109.558,433.471,415.161,1
7.982134,-8.183,-1.562,0.351,-104.858,469.482,437.072,1
7.990948,-9.181,-1.558,0.205,-95.825,503.356,460.815,1
8.000049,-10.527,-1.617,0.094,-81.787,538.696,487.121,1
8.006588,-11.88,-1.666,-0.036,-69.641,582.275,521.728,1
8.014452,-13.583,-1.765,-0.207,-46.691,623.413,562.622,1
8.023993,-15.24,-1.804,-0.343,6.652,654.785,605.468,1
8.032282,-15.999,-1.784,-0.528,101.501,677.734,658.813,1
8.039168,-15.999,-1.834,-0.881,239.562,684.02,739.318,1
8.049738,-15.999,-1.826,-1.242,337.646,676.208,826.232,1
8.058816,-15.999,-1.524,-1.661,426.086,635.131,954.528,1
8.068079,-15.999,-0.996,-1.934,498.535,579.834,1055.786,1
8.075046,-15.999,-0.209,-2.319,637.695,459.838,1196.044,1
8.082884,-15.999,0.851,-2.191,796.386,306.762,1314.636,1
8.091809,-15.999,1.7,-1.959,895.446,140.258,1402.526,1
8.101568,-15.999,2.595,-1.473,965.332,-74.829,1479.797,1
8.108211,-15.999,3.645,-0.889,1032.104,-282.348,1514.648,1
8.115005,-15.999,3.808,-0.209,1098.327,-514.526,1516.479,1
8.125241,-15.999,4.232,0.858,1154.419,-740.295,1465.637,1
8.132658,-15.999,4.455,2.747,1158.142,-990.6,1364.257,1
8.141565,-15.999,4.722,4.981,1314.697,-1216.125,1208.068,1
8.150786,-15.999,4.976,6.325,1536.254,-1439.636,961.975,1
8.157753,-15.999,4.647,6.687,1515.93,-1562.194,697.631,1
8.166764,-15.999,4.921,6.952,1493.225,-1617.858,387.512,1
8.17572,-15.999,4.875,6.131,1642.272,-1608.093,48.034,1
8.183548,-15.999,3.408,5.413,1489.623,-1494.079,-285.217,1
8.191118,-15.999,1.385,4.604,1062.439,-1297.241,-508.3,1
8.200569,-15.999,1.019,4.295,693.115,-1155.029,-615.966,1
8.206407,-15.999,0.692,3.987,494.873,-1030.09,-671.813,1
8.215789,-15.999,0.758,3.448,462.28,-947.875,-711.242,1
8.222542,-15.999,0.751,3.264,579.895,-868.286,-750.427,1
8.230253,-15.999,0.31,2.874,674.255,-779.418,-791.87,1
8.238211,-15.999,-0.235,2.721,664.733,-668.64,-823.669,1
8.247631,-15.999,-0.596,2.495,514.648,-539.855,-837.036,1
8.254184,-15.999,-0.746,2.468,336.669,-449.157,-826.293,1
8.263267,-15.999,-0.534,2.502,242.858,-380.493,-802.123,1
8.270986,-15.213,-0.688,2.546,236.145,-323.913,-769.836,1
8.279456,-13.919,-1.036,2.551,234.069,-272.705,-736.389,1
8.288434,-11.664,-1.541,2.537,212.646,-229.492,-700.256,1
8.294816,-9.915,-1.811,2.673,189.453,-170.959,-653.564,1
8.304395,-8.307,-2.144,2.474,153.015,-129.394,-614.99,1
8.31124,-7.318,-2.205,2.433,120.056,-83.068,-569.763,1
8.320106,-6.383,-2.104,2.162,149.047,-55.053,-533.142,1
8.328932,-5.991,-2.056,2.019,221.313,-23.986,-491.76,1
8.337553,-5.708,-2.004,1.716,259.521,9.765,-450.5,1
8.345293,-5.425,-1.872,1.53,257.08,40.161,-415.649,1
8.354173,-5.063,-1.797,1.3,225.463,71.777,-377.38,1
8.361047,-4.648,-1.732,1.143,182.739,95.52,-346.679,1
8.36899,-4.279,-1.702,0.985,120.178,119.689,-314.636,1
8.37804,-3.916,-1.709,0.886,58.898,134.948,-290.405,1
8.38531,-3.465,-1.705,0.812,6.286,147.583,-264.648,1
8.393398,-3.065,-1.732,0.788,-14.038,153.015,-244.628,1
8.402645,-2.63,-1.779,0.759,-21.972,158.752,-221.435,1
8.410427,-2.325,-1.805,0.725,-23.742,161.193,-202.331,1
8.419526,-2.007,-1.802,0.69,-24.353,164.001,-180.297,1
8.427381,-1.758,-1.765,0.652,-24.047,165.588,-159.484,1
8.43598,-1.575,-1.695,0.591,-25.207,166.87,-142.211,1
8.443206,-1.466,-1.602,0.563,-18.676,166.931,-122.924,1
8.452026,-1.375,-1.516,0.517,-6.103,166.198,-107.36,1
8.459653,-1.256,-1.453,0.477,3.112,164.306,-92.651,1
8.467467,-1.177,-1.398,0.45,8.972,163.33,-75.927,1
8.476565,-1.077,-1.324,0.41,12.512,161.926,-62.255,1
8.48393,-0.976,-1.223,0.37,15.93,160.156,-49.255,1
8.492536,-0.916,-1.136,0.32,20.568,157.775,-35.095,1
8.500391,-0.848,-1.044,0.282,23.62,155.456,-23.498,1
8.507209,-0.769,-0.947,0.249,28.32,152.893,-13.122,1
8.516195,-0.676,-0.822,0.222,38.146,149.597,-3.906,1
8.522951,-0.621,-0.716,0.198,55.419,145.263,5.676,1
8.530785,-0.59,-0.623,0.186,71.472,141.235,12.695,1
8.539603,-0.554,-0.558,0.174,84.35,137.878,19.409,1
8.547128,-0.5,-0.489,0.148,92.163,134.094,27.038,1
8.556084,-0.447,-0.448,0.13,89.477,131.53,32.714,1
8.563408,-0.378,-0.411,0.102,79.711,129.211,37.902,1
8.571759,-0.285,-0.352,0.088,67.81,125.183,43.395,1
8.580501,-0.181,-0.299,0.084,63.659,122.375,47.302,1
8.587968,-0.078,-0.241,0.077,66.589,116.638,51.391,1
8.595699,0.016,-0.18,0.08,73.486,112.365,54.382,1
8.60301,0.067,-0.147,0.08,80.932,107.36,56.945,1
8.612344,0.141,-0.105,0.078,87.585,102.661,59.631,1
8.620901,0.182,-0.071,0.077,91.979,97.534,62.805,1
8.628062,0.245,-0.059,0.058,93.017,92.773,65.795,1
8.635345,0.284,-0.056,0.083,86.791,89.355,68.542,1
8.643437,0.358,-0.059,0.067,78.063,87.524,71.533,1
8.652786,0.449,-0.051,0.068,67.81,84.167,74.035,1
8.660886,0.521,-0.028,0.066,63.11,81.909,77.636,1
8.668244,0.561,-0.002,0.069,63.598,78.186,79.833,1
8.677584,0.599,0.01,0.077,71.289,74.707,82.519,1
8.685364,0.698,0.017,0.083,84.228,69.519,85.205,1
8.693254,0.74,0.027,0.102,99.06,65.612,87.524,1
8.700059,0.762,0.032,0.114,113.403,60.852,90.209,1
8.709067,0.791,0.027,0.141,125.061,57.739,94.055,1
8.716868,0.794,0.022,0.151,129.577,54.138,97.961,1
8.723961,0.795,0.022,0.162,127.441,52.856,101.318,1
8.731865,0.799,0.034,0.169,123.596,51.818,104.614,1
8.740868,0.804,0.068,0.174,123.657,50.659,107.91,1
8.748168,0.812,0.127,0.161,133.178,48.522,111.755,1
8.756687,0.804,0.17,0.148,144.897,46.02,114.929,1
8.764151,0.824,0.202,0.138,155.517,43.457,117.797,1
8.770932,0.863,0.246,0.138,162.902,41.137,120.849,1
8.779718,0.886,0.335,0.16,171.081,39.001,123.596,1
8.788753,0.885,0.439,0.17,181.213,36.804,125.671,1
8.796548,0.859,0.518,0.179,186.523,35.095,126.77,1
8.802939,0.852,0.607,0.201,187.011,34.24,127.563,1
8.810282,0.824,0.674,0.223,182.006,34.423,127.319,1
8.819045,0.822,0.711,0.231,171.997,35.644,127.075,1
8.828697,0.803,0.746,0.24,149.902,37.536,125.61,1
8.836098,0.773,0.785,0.248,131.958,40.832,123.474,1
8.844768,0.741,0.805,0.244,123.229,42.907,121.582,1
8.853903,0.746,0.815,0.243,123.229,44.128,119.934,1
8.860413,0.785,0.839,0.233,129.943,44.006,118.835,1
8.867872,0.792,0.854,0.235,137.634,43.64,117.858,1
8.875742,0.773,0.859,0.232,140.93,43.762,116.638,1
8.883928,0.753,0.838,0.234,137.023,44.677,115.905,1
8.892321,0.73,0.81,0.224,128.051,46.142,115.112,1
8.899435,0.708,0.781,0.213,115.051,47.973,114.501,1
8.908134,0.694,0.749,0.207,106.933,49.316,114.562,1
8.91729,0.655,0.711,0.199,102.355,50.537,114.746,1
8.92622,0.635,0.684,0.189,102.05,51.33,115.6,1
8.934174,0.624,0.668,0.188,109.008,51.452,117.004,1
8.940894,0.644,0.654,0.183,119.018,50.476,118.957,1
8.949677,0.653,0.658,0.19,132.812,49.621,120.91,1
8.958123,0.608,0.651,0.202,138.977,49.499,121.826,1
8.964012,0.569,0.638,0.209,133.422,50.964,123.291,1
8.972981,0.537,0.651,0.223,122.497,52.124,125.732,1
8.98025,0.507,0.672,0.25,111.267,54.748,127.807,1
8.98792,0.522,0.702,0.264,107.727,56.335,129.577,1
8.996392,0.528,0.729,0.297,109.558,57.556,130.92,1
9.004775,0.515,0.767,0.318,115.783,58.837,132.385,1
9.011805,0.487,0.788,0.335,120.849,60.241,133.544,1
9.019053,0.434,0.793,0.346,121.948,61.584,134.46,1
9.028405,0.398,0.776,0.354,115.234,63.842,135.009,1
9.036137,0.361,0.77,0.349,100.952,67.81,136.047,1
9.043811,0.34,0.792,0.342,91.125,70.922,137.023,1
9.052033,0.318,0.826,0.331,87.89,73.913,137.878,1
9.060669,0.294,0.835,0.312,88.806,75.805,138.854,1
9.068507,0.285,0.815,0.281,85.998,77.819,139.831,1
9.076265,0.295,0.797,0.25,79.101,80.017,140.991,1
9.084708,0.252,0.823,0.235,69.274,82.092,142.761,1
9.092501,0.205,0.856,0.243,63.781,84.899,144.165,1
9.099278,0.124,0.869,0.236,59.936,86.547,145.141,1
9.109199,0.066,0.823,0.209,53.039,88.989,147.766,1
9.117467,0.064,0.833,0.203,44.433,91.186,148.559,1
9.125067,0.017,0.815,0.186,36.743,94.726,149.23,1
9.132855,-0.024,0.82,0.163,31.066,97.29,150.573,1
9.142193,-0.05,0.822,0.147,32.531,99.975,151.672,1
9.148383,-0.076,0.79,0.104,37.292,101.196,153.198,1
9.1565,-0.1,0.765,0.088,39.367,102.478,155.151,1
9.164663,-0.144,0.753,0.059,38.818,103.881,156.921,1
9.171766,-0.208,0.775,0.045,33.813,105.224,158.752,1
9.179261,-0.259,0.804,0.009,26.245,106.201,160.278,1
9.188208,-0.333,0.839,0.014,18.615,108.276,160.644,1
9.195394,-0.4,0.87,-0.012,9.887,109.863,160.705,1
9.203171,-0.419,0.906,-0.02,2.136,111.877,160.522,1
9.211315,-0.46,0.937,-0.033,0.793,113.342,159.545,1
9.220646,-0.469,0.98,-0.045,7.141,114.99,159.362,1
9.227878,-0.496,1.025,-0.099,20.812,114.685,158.691,1
9.235581,-0.508,1.049,-0.131,31.249,114.074,158.325,1
9.244694,-0.543,1.07,-0.181,35.339,113.647,157.897,1
9.252267,-0.562,1.098,-0.206,30.7,113.83,157.226,1
9.261944,-0.589,1.137,-0.239,19.958,114.929,155.639,1
9.269599,-0.59,1.171,-0.263,6.408,116.21,153.503,1
9.278698,-0.619,1.187,-0.289,-8.666,118.225,151.0,1
9.28674,-0.605,1.203,-0.298,-19.409,119.812,148.559,1
9.295651,-0.577,1.227,-0.313,-22.583,121.154,145.69,1
9.302831,-0.573,1.256,-0.324,-15.014,121.215,143.859,1
9.310827,-0.569,1.286,-0.364,-1.525,120.605,141.662,1
9.318572,-0.558,1.306,-0.416,6.896,119.567,140.075,1
9.326179,-0.564,1.317,-0.463,8.972,118.347,138.061,1
9.335972,-0.544,1.317,-0.51,6.225,117.492,136.23,1
9.342865,-0.511,1.319,-0.555,-3.356,115.905,133.85,1
9.352321,-0.472,1.32,-0.57,-10.437,114.685,131.774,1
9.361802,-0.429,1.313,-0.583,-16.357,113.647,129.272,1
9.369713,-0.403,1.316,-0.597,-18.676,111.572,127.258,1
9.377413,-0.389,1.321,-0.62,-17.761,109.374,125.183,1
9.385339,-0.364,1.329,-0.635,-16.113,106.567,123.291,1
9.393957,-0.337,1.327,-0.636,-14.77,103.881,121.154,1
9.402482,-0.295,1.313,-0.655,-10.437,100.891,119.14,1
9.410173,-0.295,1.321,-0.653,-9.826,98.022,117.126,1
9.418204,-0.283,1.355,-0.667,2.075,94.238,114.99,1
9.426087,-0.271,1.377,-0.685,10.742,89.172,112.548,1
9.434233,-0.265,1.379,-0.679,17.272,85.937,110.229,1
9.443315,-0.239,1.385,-0.696,17.272,82.092,107.788,1
9.449025,-0.208,1.381,-0.678,15.563,79.284,105.346,1
9.457493,-0.193,1.387,-0.669,13.977,75.683,102.6,1
9.465288,-0.205,1.404,-0.669,15.502,72.692,100.402,1
9.475394,-0.23,1.408,-0.669,17.272,69.03,97.9,1
9.484342,-0.256,1.422,-0.672,19.653,64.636,95.275,1
9.491508,-0.271,1.438,-0.677,22.644,60.119,92.285,1
9.499114,-0.292,1.439,-0.673,24.963,54.992,89.538,1
9.507923,-0.287,1.446,-0.658,25.695,51.269,86.853,1
9.516662,-0.291,1.447,-0.64,23.925,46.813,83.618,1
9.523724,-0.266,1.452,-0.615,23.498,44.189,81.359,1
9.532876,-0.257,1.457,-0.585,24.353,39.611,78.247,1
9.540021,-0.259,1.461,-0.554,28.015,36.56,75.988,1
9.54872,-0.282,1.46,-0.522,29.785,33.203,73.608,1
9.5556,-0.283,1.46,-0.496,29.052,30.212,70.739,1
9.564431,-0.29,1.464,-0.477,26.55,27.893,68.054,1
9.574609,-0.29,1.457,-0.439,25.146,25.39,65.246,1
9.581912,-0.297,1.454,-0.414,23.132,23.071,62.927,1
9.588817,-0.301,1.456,-0.364,20.812,21.85,60.302,1
9.597768,-0.319,1.472,-0.344,19.775,20.751,57.983,1
9.604387,-0.318,1.487,-0.33,19.165,18.92,55.114,1
9.612095,-0.325,1.506,-0.308,18.859,18.005,52.307,1
9.620136,-0.349,1.53,-0.3,18.493,16.845,49.255,1
9.628972,-0.326,1.549,-0.307,19.653,15.93,46.63,1
9.636541,-0.35,1.552,-0.309,22.766,14.038,43.334,1
9.645253,-0.354,1.538,-0.299,26.55,12.39,40.466,1
9.654084,-0.342,1.522,-0.299,31.311,10.986,37.841,1
9.660967,-0.39,1.491,-0.294,32.897,8.666,34.912,1
9.669116,-0.398,1.469,-0.276,30.151,7.873,32.409,1
9.675747,-0.428,1.46,-0.27,27.648,7.08,30.395,1
9.682891,-0.464,1.465,-0.257,24.902,5.859,27.709,1
9.692209,-0.494,1.459,-0.257,18.737,4.882,25.451,1
9.701107,-0.493,1.476,-0.258,11.779,4.577,23.01,1
9.707714,-0.486,1.495,-0.25,7.934,3.295,19.836,1
9.71828,-0.493,1.501,-0.25,10.07,2.502,17.028,1
9.726284,-0.46,1.514,-0.257,12.695,0.976,13.244,1
9.734941,-0.49,1.505,-0.262,18.066,-1.525,9.338,1
9.743762,-0.471,1.478,-0.256,20.263,-2.868,5.554,1
9.750942,-0.458,1.458,-0.25,19.714,-4.394,2.136,1
9.759705,-0.453,1.433,-0.215,19.531,-6.164,-1.831,1
9.768567,-0.444,1.392,-0.181,18.981,-7.812,-5.31,1
9.776893,-0.445,1.343,-0.137,17.517,-8.666,-8.361,1
9.785303,-0.445,1.292,-0.099,13.732,-9.338,-11.108,1
9.793382,-0.519,1.138,-0.06,1.403,-9.216,-12.634,1
9.801524,-0.418,1.134,-0.002,-8.85,-6.286,-14.343,1
9.809103,-0.365,1.109,0.037,-9.399,-7.873,-16.296,1
9.818742,-0.484,1.083,0.027,12.756,-7.934,-17.578,1
9.825303,-0.522,1.004,0.072,21.728,-9.582,-19.165,1
9.835566,-0.55,0.94,0.08,14.587,-7.69,-19.653,1
9.842465,-0.5,0.903,0.093,0.366,-6.103,-21.118,1
9.8502,-0.481,0.88,0.104,-5.493,-4.272,-22.033,1
9.858436,-0.477,0.851,0.112,-6.652,-3.417,-23.132,1
9.867616,-0.522,0.804,0.11,-7.995,-1.831,-23.681,1
9.876656,-0.521,0.771,0.107,-11.596,-1.281,-24.536,1
9.8826,-0.527,0.733,0.111,-15.747,0.061,-24.841,1
9.892047,-0.338,0.689,0.125,1.098,1.586,-25.207,1
9.89957,-0.55,0.666,0.1,19.592,-0.915,-25.146,1
9.907172,-0.61,0.619,0.115,27.954,-0.366,-24.047,1
9.915711,-0.58,0.57,0.106,27.221,-1.464,-22.521,1
9.924185,-0.62,0.547,0.115,23.803,-0.61,-21.24,1
9.931892,-0.624,0.512,0.125,19.165,-0.854,-19.287,1
9.940171,-0.629,0.492,0.125,15.686,-0.427,-16.906,1
9.949455,-0.637,0.47,0.133,11.535,-1.037,-15.014,1
9.956476,-0.641,0.459,0.137,7.751,-0.61,-12.39,1
9.965466,-0.637,0.437,0.139,4.516,-1.037,-9.948,1
9.972309,-0.638,0.427,0.14,2.38,-1.403,-7.385,1
9.980159,-0.621,0.404,0.135,0.061,-1.403,-4.516,1
9.988751,-0.606,0.404,0.139,-0.976,-1.831,-1.708,1
9.995144,-0.599,0.4,0.13,1.708,-2.563,1.708,1
