timestamp_s,ax,ay,az,gx,gy,gz,label
0.004473,0.078,0.959,0.262,0.976,3.479,1.647,1
0.011005,0.081,0.961,0.264,1.22,3.723,1.281,1
0.018276,0.085,0.964,0.261,1.403,3.723,1.708,1
0.027382,0.086,0.964,0.263,1.464,3.906,1.831,1
0.034259,0.086,0.967,0.267,1.525,3.784,2.014,1
0.039975,0.092,0.97,0.267,0.732,4.394,2.136,1
0.047116,0.089,0.967,0.274,-0.061,4.577,2.075,1
0.054263,0.091,0.968,0.278,-1.037,4.882,2.136,1
0.061521,0.094,0.969,0.281,-1.647,5.004,2.441,1
0.068512,0.096,0.969,0.279,-2.197,5.554,2.319,1
0.076394,0.1,0.973,0.279,-2.685,5.859,2.441,1
0.08354,0.106,0.972,0.276,-2.563,6.225,2.502,1
0.091089,0.108,0.971,0.276,-2.197,6.469,2.38,1
0.098382,0.111,0.972,0.279,-1.647,6.713,2.38,1
0.10644,0.112,0.969,0.272,-1.22,6.958,2.563,1
0.113354,0.114,0.96,0.276,-1.22,7.08,2.319,1
0.122019,0.113,0.959,0.277,-2.014,7.385,2.441,1
0.12902,0.113,0.956,0.271,-2.685,7.629,2.685,1
0.136385,0.112,0.958,0.275,-3.356,7.934,2.746,1
0.143434,0.115,0.962,0.278,-3.479,8.056,2.746,1
0.151034,0.115,0.963,0.279,-2.38,8.3,2.868,1
0.158449,0.109,0.971,0.283,-1.037,8.361,2.563,1
0.166022,0.11,0.973,0.288,0.854,8.361,2.929,1
0.173934,0.11,0.973,0.292,2.38,8.666,2.929,1
0.182455,0.106,0.969,0.298,2.441,8.728,2.929,1
0.189382,0.103,0.969,0.3,2.197,9.338,3.112,1
0.197021,0.097,0.969,0.298,1.159,10.07,2.99,1
0.204292,0.104,0.967,0.301,-0.061,10.559,3.234,1
0.213486,0.106,0.961,0.299,-1.159,11.047,3.356,1
0.220748,0.103,0.958,0.294,-2.624,11.718,3.234,1
0.228976,0.103,0.952,0.285,-2.929,12.451,3.234,1
0.236736,0.102,0.948,0.276,-3.173,12.451,3.356,1
0.243676,0.098,0.945,0.278,-3.356,12.573,3.54,1
0.252736,0.103,0.946,0.275,-3.417,13.0,3.723,1
0.259844,0.098,0.948,0.278,-3.417,13.122,3.662,1
0.268395,0.101,0.958,0.286,-1.953,13.0,3.967,1
0.275763,0.097,0.962,0.284,-0.183,13.061,4.089,1
0.283618,0.096,0.965,0.288,2.441,13.122,4.211,1
0.290526,0.094,0.972,0.289,4.15,12.878,4.15,1
0.299864,0.085,0.975,0.292,5.676,13.0,4.394,1
0.306849,0.084,0.974,0.291,5.676,13.183,4.516,1
0.315515,0.082,0.974,0.296,5.065,13.366,4.699,1
0.321439,0.077,0.97,0.292,3.417,13.977,4.638,1
0.32997,0.072,0.974,0.288,2.502,14.404,4.882,1
0.337381,0.076,0.97,0.288,1.647,14.77,4.882,1
0.345421,0.077,0.962,0.28,0.488,15.197,5.065,1
0.353704,0.08,0.96,0.269,-1.159,15.319,4.821,1
0.361432,0.082,0.951,0.268,-3.112,15.563,5.126,1
0.369027,0.08,0.951,0.262,-4.882,15.869,5.371,1
0.376452,0.084,0.949,0.26,-5.859,15.747,5.31,1
0.384955,0.083,0.958,0.253,-5.92,15.624,5.432,1
0.393775,0.077,0.961,0.251,-4.333,15.075,5.859,1
0.401946,0.07,0.975,0.253,-2.502,14.892,6.164,1
0.40901,0.068,1.0,0.258,-0.61,14.77,6.164,1
0.417932,0.071,1.032,0.251,0.549,15.075,6.103,1
0.425606,0.081,1.065,0.23,0.671,15.258,6.042,1
0.434004,0.096,1.116,0.193,0.122,15.502,5.432,1
0.441891,0.127,1.191,0.132,-0.793,15.258,5.065,1
0.450348,0.165,1.262,0.068,-1.22,14.099,4.272,1
0.457725,0.177,1.322,0.042,-1.647,12.573,3.051,1
0.465847,0.182,1.358,0.009,-1.953,11.169,1.342,1
0.47334,0.201,1.375,-0.022,-5.004,9.399,-0.976,1
0.480984,0.211,1.379,-0.035,-12.451,8.056,-3.967,1
0.490252,0.199,1.371,-0.067,-22.766,6.347,-6.835,1
0.498088,0.166,1.355,-0.101,-33.752,3.784,-9.704,1
0.506519,0.162,1.332,-0.095,-44.982,1.525,-12.573,1
0.51358,0.123,1.286,-0.109,-59.631,-0.549,-14.16,1
0.522716,0.125,1.265,-0.082,-70.861,-2.624,-15.808,1
0.531279,0.13,1.258,-0.051,-78.857,-3.845,-17.089,1
0.537816,0.138,1.261,-0.031,-84.35,-5.798,-18.676,1
0.546905,0.151,1.274,-0.009,-85.327,-7.69,-20.141,1
0.555742,0.169,1.278,0.002,-83.068,-9.887,-22.46,1
0.564222,0.19,1.282,0.02,-78.491,-11.84,-24.597,1
0.570793,0.218,1.297,0.034,-72.814,-12.817,-26.672,1
0.579197,0.239,1.326,0.046,-67.504,-13.732,-30.578,1
0.587013,0.26,1.358,0.065,-63.72,-14.343,-34.24,1
0.596435,0.29,1.394,0.071,-61.279,-14.77,-37.78,1
0.602904,0.321,1.446,0.064,-59.753,-15.075,-41.564,1
0.611633,0.331,1.486,0.052,-57.983,-15.747,-45.104,1
0.619271,0.302,1.52,0.023,-55.725,-16.54,-48.95,1
0.628014,0.253,1.53,0.005,-53.405,-17.517,-53.588,1
0.634447,0.197,1.514,-0.011,-53.71,-18.249,-56.823,1
0.642906,0.144,1.443,-0.027,-58.654,-18.249,-59.509,1
0.651312,0.122,1.353,-0.041,-70.617,-17.944,-61.645,1
0.657983,0.116,1.253,-0.032,-91.796,-17.333,-62.133,1
0.66707,0.12,1.171,-0.014,-114.135,-16.235,-61.95,1
0.674901,0.11,1.117,0.023,-141.357,-14.404,-60.974,1
0.682037,0.118,1.096,0.063,-163.085,-13.122,-59.692,1
0.692211,0.127,1.083,0.093,-177.551,-11.779,-58.532,1
0.699645,0.159,1.086,0.114,-186.523,-11.413,-58.166,1
0.706109,0.197,1.091,0.121,-186.767,-11.596,-58.471,1
0.714868,0.253,1.121,0.136,-179.138,-12.268,-59.753,1
0.721764,0.331,1.15,0.145,-163.635,-13.305,-62.011,1
0.730092,0.381,1.179,0.138,-139.709,-14.77,-64.819,1
0.738205,0.412,1.19,0.13,-115.173,-16.54,-66.894,1
0.746418,0.433,1.207,0.102,-89.111,-17.883,-68.298,1
0.754493,0.452,1.213,0.086,-58.654,-19.042,-69.702,1
0.762287,0.447,1.212,0.068,-35.156,-19.958,-70.678,1
0.770463,0.427,1.198,0.056,-15.869,-19.897,-71.472,1
0.777501,0.408,1.139,0.015,-0.61,-19.531,-70.129,1
0.787168,0.418,1.07,-0.031,4.943,-20.263,-67.565,1
0.794495,0.445,1.044,-0.053,6.713,-19.836,-66.467,1
0.801503,0.466,1.064,-0.071,6.103,-19.653,-66.955,1
0.812211,0.442,1.107,-0.056,2.685,-19.531,-69.519,1
0.818707,0.393,1.128,-0.025,-4.15,-17.456,-71.411,1
0.828693,0.394,1.139,0.007,-21.24,-14.038,-72.753,1
0.836693,0.421,1.155,0.033,-47.668,-9.46,-74.34,1
0.843204,0.422,1.148,0.06,-74.157,-5.004,-75.134,1
0.85338,0.417,1.152,0.043,-99.914,-0.122,-74.584,1
0.860395,0.418,1.152,0.0,-128.479,2.807,-74.401,1
0.869359,0.353,1.149,-0.02,-141.052,3.234,-73.852,1
0.876352,0.333,1.145,-0.034,-141.784,3.479,-74.035,1
0.885395,0.253,1.154,-0.036,-122.863,1.77,-74.584,1
0.894407,0.293,1.13,-0.027,-84.472,0.061,-75.561,1
0.902727,0.347,1.077,-0.04,-42.358,-3.356,-77.453,1
0.912163,0.395,0.967,-0.043,-8.605,-4.638,-78.674,1
0.918976,0.396,0.913,-0.078,20.568,-8.483,-79.65,1
0.927664,0.363,0.817,-0.026,36.987,-7.995,-80.078,1
0.93651,0.354,0.776,-0.003,41.625,-8.422,-80.444,1
0.943203,0.302,0.738,0.072,40.344,-6.103,-80.078,1
0.952001,0.308,0.708,0.119,29.968,-2.929,-79.895,1
0.960623,0.364,0.635,0.123,13.366,3.051,-79.345,1
0.968522,0.44,0.573,0.03,-14.953,7.08,-78.186,1
0.978793,0.462,0.52,-0.029,-50.354,12.207,-76.721,1
0.987149,0.458,0.577,-0.045,-66.955,13.732,-76.171,1
0.995607,0.478,0.565,-0.057,-62.683,15.808,-74.279,1
1.003925,0.499,0.578,-0.07,-49.377,14.465,-72.937,1
1.01255,0.507,0.596,-0.081,-24.78,13.671,-71.105,1
1.019917,0.516,0.627,-0.09,1.22,11.352,-69.885,1
1.027735,0.524,0.642,-0.097,29.968,10.742,-68.725,1
1.035961,0.52,0.646,-0.121,42.602,10.437,-67.687,1
1.044293,0.525,0.642,-0.127,43.884,11.84,-66.65,1
1.050957,0.534,0.646,-0.141,34.912,13.732,-65.917,1
1.059099,0.527,0.66,-0.14,24.475,16.174,-65.185,1
1.067165,0.528,0.677,-0.151,14.953,17.7,-65.124,1
1.073642,0.517,0.693,-0.15,8.3,19.042,-64.941,1
1.08197,0.514,0.704,-0.155,4.516,19.836,-64.819,1
1.089583,0.513,0.709,-0.161,2.075,20.751,-64.636,1
1.097751,0.521,0.723,-0.175,0.915,21.118,-64.636,1
1.105816,0.537,0.734,-0.171,3.662,20.812,-64.575,1
1.114263,0.556,0.741,-0.175,11.779,20.629,-64.147,1
1.121424,0.547,0.746,-0.177,19.958,20.019,-64.27,1
1.130095,0.543,0.749,-0.176,27.648,19.897,-64.025,1
1.136468,0.555,0.744,-0.177,33.996,19.592,-64.086,1
1.145218,0.568,0.738,-0.173,37.048,20.141,-64.025,1
1.151664,0.588,0.732,-0.181,35.522,21.24,-64.147,1
1.160293,0.604,0.73,-0.187,29.418,22.705,-64.025,1
1.167458,0.625,0.734,-0.193,20.874,24.23,-64.086,1
1.175525,0.626,0.744,-0.201,13.854,25.085,-64.331,1
1.183545,0.633,0.757,-0.205,10.864,25.512,-64.636,1
1.189786,0.64,0.77,-0.201,13.244,25.634,-64.636,1
1.198429,0.642,0.773,-0.208,17.15,25.512,-65.246,1
1.205371,0.642,0.773,-0.207,22.216,25.207,-65.429,1
1.21332,0.648,0.768,-0.204,27.465,25.146,-65.917,1
1.219988,0.661,0.763,-0.202,32.958,24.78,-66.101,1
1.227982,0.673,0.76,-0.201,37.658,24.841,-66.345,1
1.234828,0.679,0.762,-0.201,42.114,24.658,-66.955,1
1.242486,0.682,0.753,-0.207,43.334,25.085,-67.016,1
1.250485,0.679,0.746,-0.211,41.381,25.695,-67.626,1
1.257379,0.682,0.736,-0.215,37.109,26.184,-68.542,1
1.26587,0.678,0.725,-0.218,33.386,26.855,-69.03,1
1.273808,0.679,0.722,-0.221,31.249,27.038,-69.763,1
1.28074,0.682,0.707,-0.222,31.127,27.282,-70.312,1
1.288661,0.691,0.686,-0.224,31.372,27.221,-70.678,1
1.295152,0.694,0.667,-0.232,30.273,27.343,-70.617,1
1.303893,0.695,0.642,-0.247,25.268,28.137,-71.044,1
1.312983,0.703,0.616,-0.249,16.418,28.076,-71.411,1
1.320115,0.741,0.596,-0.247,7.751,29.174,-71.289,1
1.328776,0.771,0.567,-0.25,-4.272,30.456,-71.411,1
1.336265,0.777,0.548,-0.272,-17.761,32.165,-71.289,1
1.344958,0.775,0.532,-0.272,-33.203,33.325,-71.044,1
1.351914,0.802,0.537,-0.277,-44.311,34.24,-70.922,1
1.362105,0.796,0.55,-0.277,-47.79,33.569,-70.983,1
1.368936,0.767,0.546,-0.289,-46.569,33.996,-71.105,1
1.37887,0.724,0.535,-0.314,-49.255,34.301,-71.166,1
1.38552,0.698,0.516,-0.334,-60.058,35.766,-71.777,1
1.39402,0.701,0.509,-0.356,-71.594,35.4,-72.143,1
1.401349,0.654,0.499,-0.368,-84.716,36.682,-72.265,1
1.409549,0.624,0.504,-0.39,-92.895,35.949,-73.181,1
1.418278,0.63,0.499,-0.392,-93.2,35.034,-73.486,1
1.425495,0.635,0.484,-0.402,-87.585,32.653,-74.096,1
1.432394,0.63,0.457,-0.389,-78.186,30.273,-73.913,1
1.442692,0.627,0.435,-0.399,-66.162,27.282,-73.73,1
1.44916,0.626,0.403,-0.395,-57.922,24.841,-73.73,1
1.45725,0.637,0.359,-0.402,-53.588,22.644,-72.937,1
1.465686,0.643,0.318,-0.402,-55.786,20.629,-71.899,1
1.473669,0.668,0.268,-0.402,-64.147,19.409,-70.495,1
1.482338,0.692,0.234,-0.41,-75.012,18.31,-69.274,1
1.490603,0.713,0.208,-0.423,-87.341,16.601,-67.626,1
1.498124,0.743,0.182,-0.439,-105.651,13.793,-65.734,1
1.505443,0.761,0.183,-0.46,-119.995,11.23,-64.331,1
1.515384,0.837,0.099,-0.479,-148.559,8.361,-63.598,1
1.52233,0.779,0.066,-0.486,-187.988,9.399,-61.401,1
1.52964,0.717,0.05,-0.487,-228.698,9.582,-59.692,1
1.538592,0.526,0.098,-0.466,-261.474,10.925,-57.434,1
1.5458,0.556,0.132,-0.474,-264.465,12.817,-55.725,1
1.55453,0.592,0.058,-0.505,-252.807,11.718,-51.757,1
1.561518,0.587,0.07,-0.485,-223.266,14.038,-45.166,1
1.56894,0.641,0.131,-0.523,-179.443,12.023,-43.64,1
1.57755,0.729,0.189,-0.511,-113.708,9.094,-46.02,1
1.585582,0.78,0.238,-0.571,-31.127,1.586,-50.231,1
1.594975,0.82,0.254,-0.58,73.486,-6.286,-54.26,1
1.602674,0.871,0.226,-0.607,148.925,-13.244,-57.189,1
1.609727,0.945,0.187,-0.635,201.66,-15.624,-58.044,1
1.617918,1.087,0.17,-0.681,226.806,-18.371,-58.776,1
1.624985,1.162,0.146,-0.719,223.571,-17.211,-58.593,1
1.63406,1.125,0.212,-0.736,207.58,-17.395,-59.448,1
1.642168,1.144,0.266,-0.768,187.438,-15.502,-60.791,1
1.650136,1.143,0.343,-0.801,157.775,-14.16,-63.232,1
1.657966,1.108,0.403,-0.872,127.563,-13.671,-65.795,1
1.666393,1.096,0.447,-0.927,91.491,-13.854,-68.969,1
1.673276,1.069,0.491,-0.973,51.757,-14.77,-72.265,1
1.682292,1.045,0.533,-0.98,12.512,-16.479,-76.782,1
1.68846,1.037,0.551,-0.979,-11.291,-18.493,-80.993,1
1.698709,0.988,0.556,-0.957,-25.268,-21.789,-85.205,1
1.705758,0.897,0.562,-0.893,-26.489,-26.428,-89.721,1
1.714636,0.821,0.525,-0.836,-18.066,-31.005,-93.994,1
1.7218,0.777,0.495,-0.76,-7.69,-34.606,-98.327,1
1.730927,0.724,0.44,-0.717,-1.586,-37.109,-101.867,1
1.7384,0.682,0.381,-0.65,-4.943,-38.208,-106.018,1
1.747257,0.65,0.315,-0.589,-15.747,-37.902,-109.13,1
1.754754,0.573,0.235,-0.503,-37.292,-36.804,-112.487,1
1.763027,0.463,0.185,-0.418,-55.236,-34.545,-114.929,1
1.771655,0.456,0.137,-0.333,-68.054,-33.63,-117.492,1
1.780169,0.367,0.082,-0.235,-66.162,-32.775,-119.445,1
1.787797,0.295,0.026,-0.152,-52.612,-31.372,-121.52,1
1.796031,0.312,-0.057,-0.064,-37.963,-29.663,-123.352,1
1.804215,0.256,-0.139,0.009,-28.686,-25.634,-124.633,1
1.813777,0.208,-0.224,0.07,-21.24,-20.996,-125.244,1
1.822617,0.114,-0.303,0.136,-15.93,-16.601,-124.633,1
1.831366,0.05,-0.385,0.203,-2.197,-12.329,-123.413,1
1.839047,-0.056,-0.519,0.294,19.287,-7.263,-121.459,1
1.847577,-0.135,-0.637,0.343,38.33,-2.197,-117.553,1
1.854361,-0.158,-0.769,0.356,46.936,3.967,-112.731,1
1.863406,-0.183,-0.926,0.379,45.349,9.399,-106.994,1
1.870944,-0.274,-1.062,0.405,32.958,18.31,-98.876,1
1.881219,-0.276,-1.185,0.427,19.531,28.015,-88.317,1
1.889154,-0.333,-1.338,0.439,9.765,36.56,-77.087,1
1.898333,-0.422,-1.489,0.429,-1.22,46.997,-65.49,1
1.905499,-0.592,-1.609,0.392,-18.249,58.593,-50.903,1
1.912896,-0.659,-1.704,0.356,-36.376,70.556,-38.024,1
1.920858,-0.73,-1.78,0.309,-58.105,82.702,-21.301,1
1.930959,-0.717,-1.828,0.3,-60.546,91.43,-6.286,1
1.938134,-0.766,-1.874,0.281,-47.607,100.891,12.756,1
1.946644,-0.862,-1.968,0.25,-36.437,109.558,33.325,1
1.955695,-0.966,-2.046,0.2,-37.78,118.957,51.757,1
1.963976,-1.094,-2.065,0.177,-44.982,128.845,74.035,1
1.971372,-1.313,-2.05,0.135,-43.64,137.39,93.444,1
1.980536,-1.488,-2.074,0.111,-36.743,146.423,116.638,1
1.987542,-1.633,-2.091,0.06,-28.991,154.174,137.39,1
1.997211,-1.879,-2.062,0.0,-14.77,162.353,162.536,1
2.005121,-2.229,-2.064,-0.091,-0.488,167.419,184.448,1
2.012534,-2.5,-2.164,-0.127,-7.263,176.391,211.791,1
2.020936,-2.794,-2.27,-0.214,-48.4,189.697,241.577,1
2.030242,-3.149,-2.241,-0.261,-86.914,201.599,266.906,1
2.038255,-3.525,-2.232,-0.29,-87.768,212.768,297.302,1
2.045896,-3.967,-2.265,-0.385,-76.904,222.961,324.89,1
2.054956,-4.475,-2.325,-0.485,-61.218,230.041,359.191,1
2.06245,-4.975,-2.397,-0.58,-45.837,238.22,390.991,1
2.069773,-5.532,-2.496,-0.716,-29.418,241.027,424.621,1
2.078707,-6.25,-2.674,-0.858,-10.986,246.887,468.322,1
2.087802,-6.969,-2.874,-1.047,-16.418,249.816,516.418,1
2.095438,-7.839,-2.934,-1.176,-0.366,250.854,569.152,1
2.104214,-8.733,-2.916,-1.292,57.8,241.638,617.98,1
2.113829,-9.907,-2.848,-1.423,165.588,215.881,679.626,1
2.120786,-11.099,-2.824,-1.568,266.052,181.152,736.267,1
2.128953,-12.395,-2.488,-1.528,378.601,124.511,806.823,1
2.137639,-13.729,-2.357,-1.639,449.34,57.373,865.356,1
2.146471,-15.422,-1.978,-1.491,512.39,-19.531,931.335,1
2.154236,-15.993,-1.411,-1.381,558.044,-100.952,980.773,1
2.161669,-15.999,-0.845,-1.232,621.826,-201.843,1027.587,1
2.170553,-15.999,-0.201,-1.104,678.649,-304.992,1055.114,1
2.177731,-15.999,0.572,-0.804,747.497,-434.997,1067.627,1
2.186689,-15.999,1.136,-0.448,797.302,-558.532,1058.593,1
2.193786,-15.999,1.672,0.235,842.346,-705.261,1028.198,1
2.201443,-15.999,2.308,1.02,931.762,-832.824,981.14,1
2.210269,-15.999,2.723,1.813,1071.228,-966.003,904.907,1
2.218279,-15.999,2.915,2.656,1222.656,-1115.295,771.362,1
2.225597,-15.999,3.076,3.452,1286.254,-1208.313,626.709,1
2.236152,-15.999,3.345,3.671,1331.909,-1266.052,444.885,1
2.243266,-15.999,3.394,3.763,1322.814,-1278.137,206.298,1
2.251211,-15.999,3.075,3.485,1229.98,-1238.708,-22.033,1
2.260344,-15.999,2.716,3.271,1080.566,-1165.1,-188.903,1
2.269025,-15.999,2.436,3.152,896.057,-1046.813,-360.412,1
2.27783,-15.999,2.202,3.181,874.389,-957.702,-464.416,1
2.286766,-15.999,1.436,3.092,810.18,-835.754,-566.528,1
2.297141,-15.288,0.647,2.752,578.43,-711.73,-632.568,1
2.303813,-14.318,0.628,2.982,294.006,-593.872,-659.118,1
2.311821,-13.411,0.772,2.996,189.941,-531.25,-660.156,1
2.321238,-12.733,0.824,2.967,177.49,-480.59,-656.738,1
2.328614,-11.687,0.701,2.963,214.05,-427.673,-651.672,1
2.337664,-10.828,0.518,2.902,297.058,-376.037,-649.658,1
2.346672,-9.843,0.014,2.771,356.14,-317.749,-647.46,1
2.356427,-8.984,-0.547,2.644,326.049,-255.676,-637.573,1
2.363401,-8.229,-0.888,2.61,257.507,-194.213,-618.652,1
2.372504,-7.603,-1.051,2.568,213.867,-148.925,-599.609,1
2.379869,-6.746,-1.24,2.456,183.166,-101.928,-574.218,1
2.388555,-6.358,-1.431,2.353,149.78,-70.007,-548.522,1
2.397662,-5.788,-1.524,2.298,143.31,-34.423,-517.822,1
2.405703,-5.232,-1.613,2.214,154.479,-9.948,-491.516,1
2.4133,-4.786,-1.773,2.095,155.7,21.911,-458.984,1
2.420189,-4.429,-1.815,1.974,141.967,44.128,-431.823,1
2.427011,-4.073,-1.742,1.928,130.371,68.054,-402.709,1
2.436238,-3.578,-1.841,1.655,133.361,82.946,-381.164,1
2.443611,-3.22,-1.827,1.649,111.694,107.543,-349.731,1
2.452566,-2.941,-1.659,1.391,94.421,121.093,-319.885,1
2.459441,-2.789,-1.558,1.368,96.069,136.047,-294.433,1
2.468658,-2.534,-1.484,1.168,92.956,142.517,-270.202,1
2.477103,-2.337,-1.399,1.114,87.219,154.602,-242.797,1
2.485068,-2.084,-1.286,0.954,74.462,160.278,-219.36,1
2.493277,-1.953,-1.107,0.917,70.068,168.09,-199.768,1
2.50095,-1.867,-0.984,0.83,72.937,171.325,-179.565,1
2.508736,-1.746,-0.896,0.792,76.354,176.452,-163.208,1
2.517337,-1.635,-0.829,0.706,74.279,179.138,-148.01,1
2.5253,-1.51,-0.762,0.658,65.429,184.448,-132.141,1
2.533764,-1.394,-0.699,0.585,56.274,186.279,-119.506,1
2.541513,-1.182,-0.631,0.553,54.382,189.88,-109.191,1
2.549982,-1.153,-0.609,0.454,39.978,190.734,-97.167,1
2.55707,-1.088,-0.536,0.433,33.813,193.237,-88.073,1
2.566018,-1.0,-0.496,0.367,30.395,192.382,-79.65,1
2.574034,-0.909,-0.445,0.343,31.982,192.321,-70.19,1
2.583175,-0.804,-0.397,0.292,40.527,189.88,-61.401,1
2.591992,-0.702,-0.369,0.262,54.26,188.476,-52.795,1
2.601436,-0.595,-0.35,0.209,64.453,186.035,-44.189,1
2.608725,-0.479,-0.328,0.164,70.434,184.875,-37.17,1
2.617286,-0.393,-0.31,0.132,72.448,183.41,-29.113,1
2.624483,-0.334,-0.301,0.083,71.533,182.739,-22.827,1
2.633796,-0.235,-0.288,0.036,64.941,181.03,-16.296,1
2.640703,-0.127,-0.268,0.0,57.067,179.748,-10.986,1
2.649532,-0.031,-0.232,-0.039,51.025,177.917,-7.08,1
2.658593,0.032,-0.207,-0.071,48.095,175.781,-3.723,1
2.665723,0.117,-0.204,-0.105,46.936,171.813,-0.61,1
2.674013,0.176,-0.183,-0.125,47.79,169.555,2.136,1
2.681773,0.255,-0.159,-0.14,53.161,164.489,4.577,1
2.689966,0.285,-0.135,-0.146,63.354,161.865,6.835,1
2.699461,0.327,-0.128,-0.158,75.683,157.531,8.85,1
2.706851,0.371,-0.118,-0.177,86.914,154.663,11.23,1
2.715434,0.392,-0.119,-0.205,90.576,151.062,13.488,1
2.722424,0.4,-0.116,-0.235,89.294,148.681,15.136,1
2.730155,0.412,-0.111,-0.255,84.716,145.385,16.784,1
2.737681,0.437,-0.097,-0.261,81.481,142.883,18.31,1
2.746839,0.481,-0.083,-0.273,82.397,139.526,19.897,1
2.755519,0.51,-0.048,-0.259,93.872,134.765,21.972,1
2.763305,0.542,-0.02,-0.272,114.624,128.906,23.864,1
2.770907,0.539,0.009,-0.279,136.718,124.633,25.695,1
2.778948,0.522,0.02,-0.295,158.63,119.812,27.587,1
2.787032,0.548,0.018,-0.305,176.513,116.21,30.334,1
2.794585,0.607,0.02,-0.327,187.194,113.098,33.935,1
2.801899,0.626,0.028,-0.34,189.331,111.45,36.804,1
2.810763,0.656,0.051,-0.366,186.889,109.436,39.428,1
2.819151,0.647,0.099,-0.365,182.006,108.215,42.48,1
2.828332,0.644,0.182,-0.368,180.114,106.872,44.555,1
2.835865,0.625,0.228,-0.361,183.227,106.384,46.264,1
2.844562,0.631,0.279,-0.354,188.659,105.102,47.546,1
2.852621,0.604,0.331,-0.353,199.401,104.98,48.645,1
2.860696,0.588,0.386,-0.352,208.74,104.858,49.438,1
2.866995,0.56,0.434,-0.366,215.148,105.651,50.537,1
2.875743,0.489,0.468,-0.383,214.111,106.506,51.147,1
2.884461,0.453,0.5,-0.4,205.81,108.093,51.513,1
2.892359,0.455,0.558,-0.406,194.396,110.046,52.124,1
2.898994,0.444,0.594,-0.415,179.382,112.609,51.696,1
2.906524,0.404,0.642,-0.416,167.053,114.624,51.391,1
2.915541,0.366,0.699,-0.427,156.738,116.943,50.415,1
2.922944,0.337,0.766,-0.43,150.512,118.957,49.316,1
2.930292,0.315,0.833,-0.438,151.855,119.628,47.607,1
2.937958,0.32,0.877,-0.44,156.86,119.995,46.508,1
2.946655,0.342,0.907,-0.445,167.419,120.727,45.227,1
2.955979,0.38,0.942,-0.456,174.621,121.643,44.738,1
2.963912,0.411,0.981,-0.461,177.917,123.474,44.189,1
2.971532,0.388,1.02,-0.465,174.865,125.854,43.884,1
2.979099,0.405,1.072,-0.48,166.198,128.845,43.457,1
2.988207,0.355,1.134,-0.485,156.127,132.507,42.297,1
2.995472,0.336,1.224,-0.504,145.08,136.413,40.344,1
3.004103,0.253,1.308,-0.517,143.005,139.16,37.902,1
3.011558,0.223,1.384,-0.559,139.099,141.723,34.301,1
3.018656,0.227,1.428,-0.554,138.427,143.127,31.555,1
3.026633,0.156,1.464,-0.588,138.061,145.324,28.503,1
3.034119,0.172,1.488,-0.604,132.08,146.057,24.23,1
3.041946,0.168,1.504,-0.611,126.647,147.949,20.69,1
3.051019,0.167,1.519,-0.628,117.919,149.169,16.662,1
3.05805,0.197,1.525,-0.636,111.083,151.306,11.779,1
3.066854,0.13,1.543,-0.667,97.045,153.564,7.751,1
3.075233,0.101,1.57,-0.676,81.359,155.517,3.051,1
3.08372,0.151,1.581,-0.703,66.223,157.775,-2.929,1
3.092114,0.043,1.582,-0.688,56.457,159.484,-8.361,1
3.099141,0.047,1.565,-0.689,57.189,159.179,-14.953,1
3.1076,0.012,1.518,-0.648,71.228,158.752,-20.385,1
3.114203,-0.013,1.458,-0.625,94.482,156.86,-24.963,1
3.122577,0.086,1.503,-0.718,114.196,158.142,-28.137,1
3.130813,-0.048,1.314,-0.629,129.028,149.536,-32.287,1
3.137981,0.0,1.309,-0.615,141.052,159.057,-33.264,1
3.146518,0.002,1.241,-0.683,134.643,150.573,-36.987,1
3.153812,-0.062,1.079,-0.509,132.568,157.897,-37.963,1
3.16341,-0.037,0.941,-0.582,120.849,155.395,-40.039,1
3.170036,-0.012,0.777,-0.627,100.646,164.062,-40.222,1
3.179281,0.122,0.635,-1.012,57.678,164.062,-41.076,1
3.18693,0.139,0.584,-0.987,5.981,162.963,-43.334,1
3.195777,0.098,0.746,-0.818,-8.483,162.902,-44.738,1
3.203603,0.053,0.876,-0.75,7.934,159.851,-47.607,1
3.213565,0.036,0.947,-0.898,32.836,156.311,-49.743,1
3.221867,0.021,1.049,-1.044,50.415,150.878,-52.185,1
3.228658,0.032,1.137,-1.095,75.195,143.981,-54.748,1
3.235967,0.081,1.165,-1.109,97.656,139.648,-57.25,1
3.244632,0.173,1.124,-1.13,115.844,135.437,-59.326,1
3.251876,0.248,1.055,-1.143,126.647,132.568,-61.157,1
3.25855,0.29,0.983,-1.157,130.798,130.981,-61.706,1
3.266624,0.267,0.979,-1.147,131.286,129.394,-61.279,1
3.275086,0.245,1.011,-1.135,130.798,128.051,-60.546,1
3.281658,0.252,1.033,-1.109,135.681,126.586,-58.044,1
3.290509,0.222,1.161,-1.121,153.869,123.596,-56.823,1
3.297246,0.083,1.167,-1.16,182.556,119.567,-57.373,1
3.304638,0.108,1.1,-1.201,213.928,114.013,-54.504,1
3.312793,0.09,1.02,-1.174,231.872,112.121,-49.987,1
3.321925,-0.06,1.003,-1.19,243.225,111.206,-45.166,1
3.329725,-0.015,0.972,-1.205,242.675,109.497,-39.794,1
3.336337,0.028,0.979,-1.171,236.083,108.703,-33.935,1
3.344744,0.033,0.982,-1.155,224.792,108.337,-28.625,1
3.35319,0.131,1.006,-1.089,214.111,108.642,-24.23,1
3.360162,0.005,1.012,-1.042,197.326,108.642,-20.019,1
3.370409,0.052,1.028,-0.993,177.001,108.825,-15.686,1
3.377616,0.116,1.053,-0.911,159.606,109.13,-11.901,1
3.385776,0.113,1.061,-0.922,139.587,109.313,-8.239,1
3.393163,0.239,1.075,-0.895,123.046,110.717,-5.31,1
3.400892,0.313,1.066,-0.935,98.754,110.412,-0.976,1
3.410231,0.349,1.055,-1.016,73.73,108.215,2.197,1
3.417961,0.555,1.074,-1.138,47.119,105.285,3.784,1
3.424784,0.563,1.152,-1.227,20.568,97.412,2.868,1
3.433222,0.685,1.215,-1.269,4.455,90.698,-0.244,1
3.441725,0.805,1.352,-1.317,-7.385,78.308,-9.765,1
3.447962,0.84,1.525,-1.218,-0.305,70.861,-21.057,1
3.456846,0.869,1.654,-1.155,16.845,64.086,-33.935,1
3.464006,0.874,1.722,-1.053,35.583,57.678,-46.264,1
3.47177,0.543,1.802,-0.978,52.368,51.94,-58.41,1
3.479541,0.328,1.817,-0.964,58.715,45.654,-64.941,1
3.487319,0.234,1.777,-0.957,57.678,39.733,-70.617,1
3.495078,0.208,1.696,-0.958,49.072,34.423,-74.707,1
3.5043,0.206,1.625,-0.946,34.118,29.907,-78.247,1
3.512536,0.225,1.546,-0.934,13.061,24.414,-81.665,1
3.521015,0.261,1.465,-0.908,-6.164,19.714,-84.167,1
3.529135,0.301,1.41,-0.861,-25.939,14.648,-86.181,1
3.536332,0.331,1.349,-0.806,-42.236,9.826,-88.562,1
3.544786,0.315,1.332,-0.752,-54.443,5.126,-89.66,1
3.552076,0.318,1.301,-0.7,-62.499,1.037,-90.209,1
3.559616,0.359,1.243,-0.696,-69.885,-3.112,-91.003,1
3.569198,0.388,1.21,-0.667,-74.096,-6.713,-92.163,1
3.576916,0.426,1.196,-0.641,-73.303,-10.559,-93.811,1
3.586172,0.441,1.191,-0.631,-68.908,-14.587,-95.642,1
3.59507,0.436,1.167,-0.624,-61.218,-19.47,-97.534,1
3.602614,0.4,1.154,-0.622,-51.635,-24.291,-99.609,1
3.609964,0.464,1.147,-0.611,-41.503,-28.381,-101.867,1
3.619906,0.553,1.141,-0.631,-28.137,-34.118,-103.637,1
3.628076,0.704,1.172,-0.653,-14.465,-39.672,-104.248,1
3.63616,0.879,1.165,-0.701,-3.356,-44.372,-104.919,1
3.644392,0.979,1.143,-0.681,9.216,-46.874,-106.018,1
3.651779,0.779,1.022,-0.68,25.268,-48.034,-105.346,1
3.660339,0.557,1.022,-0.687,32.714,-50.659,-102.172,1
3.668604,0.348,0.968,-0.644,33.142,-53.283,-98.51,1
3.677056,0.31,0.995,-0.613,34.973,-56.823,-97.656,1
3.685418,0.333,1.071,-0.574,47.241,-59.814,-98.693,1
3.693455,0.43,1.133,-0.509,72.753,-63.415,-100.341,1
3.702378,0.56,1.168,-0.444,110.595,-65.856,-102.6,1
3.710861,0.572,1.172,-0.419,151.855,-68.786,-105.468,1
3.719792,0.782,1.049,-0.397,181.457,-69.458,-108.276,1
3.726921,0.8,0.982,-0.389,187.316,-69.641,-110.046,1
3.734999,0.813,0.938,-0.302,182.434,-67.932,-111.694,1
3.742299,0.812,0.922,-0.25,166.87,-65.124,-112.731,1
3.751546,0.815,0.905,-0.166,150.695,-62.988,-113.525,1
3.760717,0.842,0.892,-0.078,135.986,-58.654,-114.929,1
3.768444,0.841,0.853,0.02,118.53,-54.931,-115.539,1
3.77639,0.75,0.875,0.072,101.989,-50.964,-115.783,1
3.785406,0.804,0.917,0.121,112.792,-49.621,-116.394,1
3.792482,0.976,0.904,0.179,128.417,-49.316,-115.722,1
3.801642,0.857,0.883,0.209,132.629,-46.508,-117.126,1
3.808787,0.635,0.94,0.25,122.985,-43.701,-118.53,1
3.817697,0.726,0.901,0.305,107.543,-41.259,-118.713,1
3.826227,0.691,0.92,0.371,67.871,-33.996,-120.361,1
3.833368,0.603,0.927,0.405,13.061,-28.442,-121.215,1
3.842354,0.509,0.957,0.499,-36.01,-21.484,-122.497,1
3.849256,0.39,1.014,0.533,-89.477,-15.563,-123.413,1
3.857685,0.423,1.042,0.625,-127.502,-10.253,-124.816,1
3.867054,0.384,1.098,0.672,-153.869,-6.286,-127.441,1
3.874964,-0.099,1.139,0.784,-151.733,-4.455,-129.15,1
3.883247,0.132,1.058,0.717,-156.921,-4.699,-132.263,1
3.890821,0.129,1.041,0.923,-152.771,0.0,-135.314,1
3.897735,-0.041,1.113,0.828,-126.953,2.136,-138.854,1
3.906476,0.135,0.951,1.101,-116.699,-1.953,-140.38,1
3.913215,0.153,0.805,0.958,-95.458,8.544,-142.944,1
3.921975,0.062,0.712,1.151,-75.195,6.774,-144.897,1
3.929746,0.179,0.564,1.129,-51.879,21.423,-144.531,1
3.938685,0.142,0.476,1.212,-38.513,30.273,-145.629,1
3.946354,0.293,0.38,1.189,-28.259,52.551,-144.653,1
3.955324,0.303,0.368,1.301,-22.155,66.223,-144.897,1
3.963623,0.149,0.287,1.288,-11.291,89.904,-144.409,1
3.970749,-0.021,0.186,1.323,-17.517,103.027,-144.226,1
3.978356,-0.077,0.02,1.314,-29.602,123.718,-142.944,1
3.987494,-0.205,-0.089,1.308,-40.466,132.202,-141.906,1
3.995199,-0.29,-0.237,1.253,-54.443,147.949,-139.282,1
4.003855,-0.195,-0.46,1.187,-95.336,158.081,-134.521,1
4.011529,-0.266,-0.423,1.215,-93.994,169.372,-132.141,1
4.019311,-0.32,-0.418,1.143,-55.114,175.415,-127.38,1
4.02791,-0.32,-0.387,1.122,1.953,180.908,-123.107,1
4.036187,-0.381,-0.35,1.004,68.115,185.424,-117.004,1
4.044541,-0.557,-0.363,0.901,130.981,193.969,-107.482,1
4.052187,-0.694,-0.49,0.749,133.972,206.298,-97.412,1
4.060905,-0.666,-0.648,0.669,69.702,226.501,-85.998,1
4.068615,-0.715,-0.679,0.592,-12.451,244.506,-76.66,1
4.076827,-0.744,-0.648,0.569,-57.25,259.948,-69.885,1
4.08601,-0.872,-0.574,0.52,-60.241,270.385,-63.293,1
4.094364,-0.97,-0.487,0.457,-28.137,277.771,-56.396,1
4.102116,-1.119,-0.425,0.348,33.874,283.447,-47.302,1
4.111017,-1.345,-0.368,0.242,89.172,287.597,-37.78,1
4.118814,-1.459,-0.331,0.051,144.165,292.175,-23.193,1
4.128479,-1.517,-0.333,-0.099,156.799,298.522,-10.559,1
4.136697,-1.578,-0.329,-0.283,141.662,304.809,2.319,1
4.143565,-1.678,-0.298,-0.398,108.947,313.964,16.296,1
4.152665,-1.821,-0.23,-0.489,80.627,319.519,26.489,1
4.159224,-2.088,-0.102,-0.554,82.153,322.326,35.827,1
4.1676,-2.238,-0.069,-0.602,111.755,323.913,47.119,1
4.176193,-2.326,-0.075,-0.705,143.31,323.181,62.622,1
4.183553,-2.49,-0.104,-0.802,154.846,325.5,78.918,1
4.191956,-2.71,-0.221,-1.017,125.122,327.209,97.229,1
4.199808,-2.85,-0.296,-1.132,57.678,333.74,119.689,1
4.208587,-2.945,-0.306,-1.303,-0.183,340.026,136.84,1
4.215523,-3.092,-0.27,-1.404,-48.95,346.74,154.479,1
4.225573,-3.126,-0.32,-1.571,-89.355,349.121,168.945,1
4.234285,-3.238,-0.435,-1.74,-139.343,352.478,183.837,1
4.240937,-3.292,-0.516,-1.956,-172.302,350.952,195.8,1
4.250035,-3.399,-0.55,-2.055,-173.583,348.266,205.322,1
4.25873,-3.443,-0.556,-1.989,-135.253,336.547,216.796,1
4.266201,-3.426,-0.603,-1.984,-60.18,324.34,231.262,1
4.273183,-3.125,-0.808,-2.038,-5.187,307.617,252.075,1
4.282775,-3.1,-0.852,-2.052,78.735,285.278,280.7,1
4.290232,-3.205,-0.874,-2.108,163.269,259.643,310.302,1
4.297037,-3.347,-0.929,-2.204,253.723,230.041,343.078,1
4.305988,-3.606,-0.886,-2.325,366.699,183.776,383.666,1
4.313286,-3.717,-0.957,-2.507,440.917,139.709,419.921,1
4.321539,-3.98,-1.062,-2.717,462.402,95.092,455.871,1
4.32975,-4.26,-1.078,-2.83,443.115,38.94,494.018,1
4.338817,-4.629,-0.95,-2.795,428.405,-6.652,524.414,1
4.346019,-4.898,-0.852,-2.789,434.753,-71.105,553.894,1
4.354731,-5.2,-0.71,-2.792,462.341,-122.924,576.843,1
4.36327,-5.639,-0.584,-2.805,478.82,-195.007,597.473,1
4.372242,-6.047,-0.431,-2.761,491.699,-264.831,609.619,1
4.380911,-6.643,-0.213,-2.7,460.998,-334.167,613.525,1
4.390365,-7.288,0.132,-2.697,446.411,-399.475,610.9,1
4.39647,-7.701,0.319,-2.556,432.556,-453.063,602.661,1
4.404484,-8.155,0.476,-2.442,393.981,-500.488,590.576,1
4.412896,-8.479,0.717,-2.223,355.529,-554.748,572.082,1
4.422094,-8.803,0.985,-1.916,346.801,-594.299,554.504,1
4.429326,-8.883,1.226,-1.615,374.511,-651.55,526.794,1
4.437652,-9.111,1.489,-1.317,431.274,-697.326,495.178,1
4.446653,-9.499,1.636,-1.046,472.961,-755.493,447.753,1
4.453201,-9.839,1.694,-0.786,464.416,-793.212,404.052,1
4.462984,-9.988,1.676,-0.528,417.724,-824.707,363.525,1
4.470195,-10.355,1.804,-0.198,374.45,-845.214,326.843,1
4.478132,-10.974,1.983,0.001,390.747,-860.839,294.433,1
4.485782,-11.86,2.183,0.293,495.849,-872.985,243.652,1
4.494694,-11.19,2.155,0.557,565.002,-878.906,189.086,1
4.501802,-10.583,1.902,0.826,525.268,-872.924,126.892,1
4.509806,-10.496,2.009,1.125,458.923,-861.755,78.308,1
4.518406,-10.289,1.991,1.381,392.395,-846.862,32.287,1
4.525664,-9.756,2.033,1.823,338.989,-824.401,-11.047,1
4.534446,-9.528,2.22,2.187,320.861,-801.391,-53.771,1
4.542337,-9.093,2.423,2.619,365.722,-773.62,-107.788,1
4.550352,-8.075,2.392,2.818,446.899,-748.84,-162.048,1
4.558786,-7.266,2.053,3.096,550.293,-712.829,-231.079,1
4.567174,-6.616,1.421,3.177,575.195,-667.297,-286.865,1
4.574694,-5.846,0.803,3.291,501.892,-599.914,-335.693,1
4.582027,-5.134,0.312,3.311,385.559,-537.841,-359.008,1
4.590449,-4.665,-0.012,3.437,259.46,-480.285,-367.126,1
4.598916,-3.955,-0.297,3.468,140.563,-428.466,-362.67,1
4.606971,-3.409,-0.424,3.605,61.157,-381.713,-348.205,1
4.615926,-2.966,-0.537,3.736,54.504,-344.238,-332.519,1
4.623306,-2.557,-0.742,3.821,81.848,-309.387,-314.147,1
4.631293,-2.214,-0.988,3.84,106.018,-269.592,-296.813,1
4.640139,-2.02,-1.122,3.813,122.314,-237.853,-283.386,1
4.648734,-1.846,-1.287,3.756,124.206,-204.345,-269.47,1
4.657299,-1.454,-1.523,3.665,98.571,-166.442,-252.807,1
4.663803,-1.219,-1.631,3.568,75.317,-127.746,-233.459,1
4.672815,-0.983,-1.654,3.449,54.626,-96.862,-216.735,1
4.680398,-0.695,-1.645,3.343,55.419,-71.35,-199.768,1
4.689794,-0.479,-1.656,3.116,72.204,-43.762,-178.71,1
4.696972,-0.43,-1.557,2.922,89.05,-21.789,-161.499,1
4.704257,-0.325,-1.488,2.654,92.468,-1.77,-145.446,1
4.712643,-0.214,-1.44,2.486,73.547,21.972,-126.403,1
4.721071,-0.095,-1.386,2.354,53.71,41.076,-109.802,1
4.728262,-0.037,-1.296,2.213,31.555,60.607,-91.796,1
4.737389,-0.048,-1.158,2.103,23.193,74.218,-77.514,1
4.74458,-0.081,-0.984,1.949,28.137,84.655,-64.392,1
4.753485,-0.088,-0.856,1.828,44.311,95.397,-49.743,1
4.761402,-0.086,-0.73,1.655,56.091,102.539,-38.391,1
4.770476,-0.083,-0.641,1.52,62.194,111.206,-26.733,1
4.777954,-0.064,-0.562,1.385,55.786,118.774,-18.066,1
4.787134,-0.036,-0.461,1.254,40.1,128.112,-9.887,1
4.793526,0.013,-0.376,1.143,26.855,134.094,-4.455,1
4.80232,0.081,-0.261,1.037,18.676,138.549,-0.061,1
4.8092,0.138,-0.177,0.958,15.441,142.028,3.723,1
4.816865,0.173,-0.091,0.883,14.099,144.958,7.69,1
4.825735,0.214,-0.01,0.821,15.197,146.789,10.925,1
4.834063,0.244,0.058,0.755,17.028,148.01,13.793,1
4.840842,0.263,0.143,0.671,16.418,147.949,16.296,1
4.847948,0.273,0.194,0.604,12.268,147.949,18.127,1
4.855823,0.304,0.237,0.549,6.042,146.911,19.47,1
4.862615,0.346,0.28,0.505,0.488,145.751,20.446,1
4.870871,0.415,0.318,0.465,-2.868,144.287,20.812,1
4.878759,0.477,0.351,0.43,-3.356,142.7,20.996,1
4.885917,0.504,0.378,0.396,-1.953,140.991,20.996,1
4.894101,0.525,0.395,0.357,-1.037,139.099,21.545,1
4.902515,0.533,0.423,0.322,2.319,137.084,21.85,1
4.91068,0.532,0.48,0.311,6.652,135.314,22.216,1
4.917421,0.527,0.522,0.263,8.85,133.178,22.766,1
4.925101,0.551,0.565,0.224,9.033,130.981,24.169,1
4.932275,0.618,0.605,0.181,4.028,129.516,25.085,1
4.940325,0.652,0.669,0.163,-2.868,127.319,26.306,1
4.947271,0.629,0.739,0.144,-4.821,125.793,27.465,1
4.954832,0.628,0.8,0.124,-1.647,122.741,28.564,1
4.963611,0.68,0.809,0.133,13.305,119.689,28.93,1
4.970968,0.69,0.873,0.1,54.931,114.685,28.076,1
4.977843,0.578,0.931,0.107,93.994,106.994,29.235,1
4.986787,0.641,0.882,0.101,119.689,100.83,29.357,1
4.993588,0.782,0.826,0.096,145.446,93.261,27.893,1
5.000994,0.778,0.77,0.052,174.377,85.144,27.77,1
5.009722,0.869,0.69,0.064,189.941,79.65,28.381,1
5.017118,0.965,0.597,0.042,208.251,75.378,30.334,1
5.026437,1.134,0.479,0.055,216.186,71.472,31.494,1
5.033577,1.114,0.381,0.075,215.393,70.8,33.081,1
5.040139,1.047,0.313,0.083,205.749,71.411,35.278,1
5.047629,0.989,0.262,0.121,193.054,73.12,37.17,1
5.056321,0.961,0.226,0.142,177.124,75.805,39.245,1
5.063271,0.936,0.192,0.162,158.081,78.552,41.137,1
5.072981,0.907,0.168,0.182,133.056,82.458,43.457,1
5.080129,0.93,0.144,0.198,107.666,84.899,45.593,1
5.087245,0.925,0.134,0.216,82.092,87.28,46.813,1
5.094858,0.893,0.148,0.214,56.091,89.172,46.874,1
5.103658,0.894,0.179,0.218,41.198,90.148,46.325,1
5.110703,0.925,0.197,0.205,34.545,90.515,45.715,1
5.117834,0.962,0.212,0.189,31.799,90.27,45.166,1
5.125343,0.977,0.212,0.167,32.958,90.637,44.799,1
5.132767,0.981,0.208,0.139,34.118,90.454,45.043,1
5.141192,0.974,0.202,0.134,36.132,90.637,46.63,1
5.148581,1.002,0.181,0.094,35.278,90.759,48.645,1
5.15648,1.007,0.171,0.104,34.973,91.491,51.269,1
5.163232,0.99,0.146,0.073,34.545,91.552,52.917,1
5.172561,0.965,0.137,0.073,38.757,91.979,52.917,1
5.17979,0.946,0.133,0.054,48.95,90.759,51.086,1
5.186389,0.874,0.154,0.06,66.65,89.477,48.706,1
5.19444,0.815,0.179,0.042,91.857,87.402,46.02,1
5.202268,0.8,0.194,0.024,118.225,85.021,44.067,1
5.208494,0.812,0.229,-0.013,142.883,82.641,44.738,1
5.217389,0.837,0.229,-0.046,163.94,78.979,45.349,1
5.224663,0.862,0.222,-0.092,177.917,75.744,45.715,1
5.232236,0.912,0.192,-0.115,178.955,72.082,46.936,1
5.239766,0.998,0.179,-0.123,170.41,70.007,49.499,1
5.247907,1.047,0.192,-0.139,155.212,68.176,52.917,1
5.255124,1.015,0.216,-0.136,131.347,66.528,55.664,1
5.262926,0.943,0.254,-0.135,105.224,65.246,57.678,1
5.271958,0.894,0.322,-0.104,82.885,64.575,58.898,1
5.279196,0.878,0.397,-0.082,69.58,62.561,59.143,1
5.286534,0.867,0.479,-0.039,69.152,60.241,59.02,1
5.294814,0.86,0.557,-0.027,80.322,56.701,58.105,1
5.301844,0.824,0.634,0.0,101.318,52.612,56.213,1
5.310452,0.793,0.67,0.002,116.882,48.828,54.565,1
5.317875,0.781,0.698,0.02,126.403,45.471,52.734,1
5.325927,0.785,0.721,0.035,129.272,42.602,50.72,1
5.334648,0.799,0.751,0.057,128.601,40.161,48.522,1
5.341636,0.802,0.783,0.086,126.708,37.841,45.471,1
5.349451,0.775,0.823,0.106,125.244,36.56,42.724,1
5.356811,0.734,0.835,0.118,118.164,36.437,39.978,1
5.364224,0.75,0.824,0.133,102.416,36.926,36.926,1
5.372116,0.8,0.825,0.143,85.083,38.085,33.752,1
5.380791,0.82,0.833,0.151,72.57,38.574,30.578,1
5.387767,0.853,0.839,0.165,67.932,38.452,27.832,1
5.397584,0.878,0.829,0.18,70.251,38.208,25.146,1
5.404056,0.902,0.804,0.183,78.063,37.353,22.583,1
5.411201,0.923,0.771,0.191,83.679,37.048,20.874,1
5.418869,0.942,0.747,0.184,85.632,37.292,19.165,1
5.427819,0.944,0.719,0.187,83.374,37.475,17.883,1
5.434102,0.932,0.692,0.186,79.528,38.33,16.662,1
5.441635,0.92,0.668,0.175,74.279,39.001,15.93,1
5.448932,0.907,0.645,0.169,70.312,39.794,15.258,1
5.457209,0.909,0.612,0.158,68.359,40.466,14.892,1
5.466109,0.899,0.583,0.147,68.42,40.344,14.587,1
5.472726,0.849,0.544,0.135,69.335,39.916,14.77,1
5.47978,0.837,0.494,0.121,69.396,40.161,14.892,1
5.488762,0.846,0.458,0.11,67.321,39.489,15.869,1
5.495987,0.863,0.416,0.105,62.622,39.428,17.333,1
5.503742,0.837,0.413,0.119,55.053,39.611,18.676,1
5.511411,0.791,0.424,0.131,52.062,39.184,19.958,1
5.51941,0.76,0.43,0.141,53.283,38.879,21.057,1
5.527089,0.743,0.431,0.152,59.204,38.269,22.155,1
5.534278,0.732,0.433,0.161,68.054,37.414,23.132,1
5.543117,0.714,0.44,0.173,78.491,36.376,24.291,1
5.55085,0.692,0.455,0.187,91.43,35.766,25.634,1
5.558093,0.693,0.447,0.187,104.248,35.156,26.977,1
5.564794,0.707,0.428,0.177,109.374,35.278,28.076,1
5.572773,0.716,0.412,0.164,108.215,35.705,29.357,1
5.582388,0.723,0.406,0.159,103.82,36.315,30.395,1
5.589823,0.739,0.403,0.151,95.825,37.109,32.348,1
5.597635,0.75,0.404,0.146,87.89,38.208,33.996,1
5.605521,0.773,0.401,0.141,74.401,39.489,36.254,1
5.61227,0.817,0.409,0.142,58.837,40.954,37.353,1
5.620256,0.857,0.429,0.15,45.288,41.442,38.757,1
5.627713,0.869,0.476,0.17,38.574,41.992,39.306,1
5.635349,0.868,0.517,0.191,40.588,41.564,39.794,1
5.643187,0.844,0.559,0.211,48.583,41.564,40.1,1
5.650658,0.825,0.593,0.22,58.654,40.832,40.527,1
5.658029,0.822,0.618,0.221,67.382,40.527,40.893,1
5.666805,0.822,0.638,0.222,73.547,40.466,40.466,1
5.673518,0.826,0.668,0.22,77.209,40.405,40.039,1
5.680245,0.806,0.687,0.225,78.247,40.588,39.916,1
5.687874,0.785,0.706,0.213,75.073,42.053,39.367,1
5.695314,0.786,0.717,0.204,66.955,43.151,38.513,1
5.703038,0.797,0.731,0.2,56.823,43.945,37.475,1
5.711644,0.791,0.749,0.193,48.339,45.227,36.254,1
5.718563,0.779,0.759,0.192,43.579,45.715,35.095,1
5.726559,0.77,0.767,0.188,42.846,45.471,34.118,1
5.735273,0.775,0.774,0.191,46.691,45.043,33.203,1
5.742487,0.78,0.778,0.201,54.931,44.189,32.165,1
5.749372,0.788,0.772,0.204,65.551,43.579,31.738,1
5.756507,0.788,0.763,0.207,75.622,43.09,31.188,1
5.765549,0.784,0.756,0.201,82.275,43.212,30.883,1
5.7729,0.772,0.746,0.207,82.946,43.395,30.7,1
5.780245,0.752,0.746,0.207,79.895,44.372,30.456,1
5.788061,0.724,0.743,0.197,74.768,45.471,30.212,1
5.795185,0.713,0.737,0.179,67.016,47.424,30.151,1
5.803836,0.725,0.735,0.17,59.448,48.4,29.846,1
5.810553,0.747,0.73,0.155,53.405,49.316,29.357,1
5.820278,0.772,0.728,0.145,49.255,49.743,29.052,1
5.825576,0.797,0.727,0.145,47.363,49.865,28.747,1
5.834268,0.801,0.727,0.148,48.4,49.621,28.381,1
5.841144,0.804,0.727,0.146,53.1,49.072,28.259,1
5.848034,0.82,0.721,0.144,58.593,48.645,28.137,1
5.85678,0.824,0.718,0.142,63.049,48.583,28.015,1
5.863363,0.838,0.72,0.141,64.575,48.4,27.404,1
5.872258,0.846,0.722,0.137,64.27,48.339,26.672,1
5.87947,0.836,0.726,0.14,63.232,47.912,25.939,1
5.886665,0.844,0.74,0.139,63.842,47.546,25.512,1
5.893552,0.847,0.75,0.139,66.894,46.874,25.268,1
5.901549,0.875,0.766,0.147,71.166,46.203,25.085,1
5.908661,0.9,0.782,0.152,76.599,45.41,24.291,1
5.917762,0.908,0.796,0.163,81.115,44.677,23.864,1
5.92476,0.91,0.809,0.175,84.289,44.555,22.949,1
5.93235,0.914,0.82,0.188,83.679,44.677,22.094,1
5.941824,0.944,0.82,0.201,80.017,45.471,21.362,1
5.949548,0.967,0.822,0.209,72.143,46.447,19.958,1
5.956665,0.983,0.845,0.221,64.88,47.302,18.249,1
5.965689,0.98,0.88,0.23,62.744,47.485,16.174,1
5.973211,0.971,0.929,0.238,69.641,46.386,14.343,1
5.979928,0.978,0.976,0.257,83.129,45.41,12.268,1
5.989002,0.971,1.015,0.255,96.435,44.25,10.131,1
5.995496,0.983,1.041,0.259,101.989,43.945,7.385,1
6.003663,0.997,1.066,0.266,95.642,44.555,4.76,1
6.010742,0.988,1.092,0.268,77.026,46.325,1.586,1
6.018087,0.967,1.127,0.289,52.368,48.339,-2.563,1
6.026687,0.963,1.172,0.304,30.639,50.964,-6.774,1
6.033978,0.97,1.224,0.325,17.883,52.246,-11.901,1
6.044244,0.962,1.27,0.346,17.089,52.917,-17.883,1
6.051646,0.895,1.309,0.339,26.245,53.833,-23.62,1
6.059204,0.982,1.422,0.365,32.714,52.246,-25.268,1
6.066292,1.025,1.501,0.276,31.188,49.804,-31.494,1
6.075198,1.136,1.465,0.348,25.024,55.419,-35.766,1
6.0828,1.06,1.541,0.286,16.784,53.222,-46.02,1
6.091799,0.957,1.514,0.332,21.545,58.532,-51.574,1
6.099449,0.91,1.427,0.279,21.85,54.321,-59.02,1
6.108374,0.862,1.382,0.333,22.949,57.739,-64.575,1
6.116336,0.847,1.33,0.274,13.549,54.748,-70.19,1
6.124121,0.812,1.329,0.315,7.446,57.678,-75.988,1
6.131353,0.77,1.343,0.269,0.915,56.091,-81.97,1
6.139965,0.751,1.353,0.298,3.234,58.837,-88.012,1
6.147618,0.782,1.309,0.28,0.0,58.166,-93.566,1
6.155027,0.749,1.212,0.27,-9.155,60.241,-97.778,1
6.162799,0.788,1.102,0.222,-35.217,59.875,-101.257,1
6.171877,0.748,1.086,0.254,-49.987,61.828,-106.872,1
6.179605,0.665,1.056,0.264,-51.208,60.485,-110.473,1
6.18792,0.641,0.995,0.278,-39.978,58.898,-114.501,1
6.195457,0.606,0.919,0.287,-29.296,56.64,-117.37,1
6.203833,0.558,0.858,0.301,-17.639,54.87,-119.628,1
6.210424,0.525,0.811,0.31,-3.784,52.978,-121.582,1
6.219269,0.492,0.778,0.334,15.258,51.818,-124.267,1
6.228044,0.47,0.731,0.343,37.353,50.781,-126.708,1
6.234592,0.495,0.687,0.366,59.57,51.025,-129.333,1
6.245299,0.515,0.641,0.389,72.753,52.001,-131.652,1
6.252095,0.514,0.59,0.419,82.702,55.236,-134.338,1
6.260609,0.531,0.562,0.451,90.27,58.959,-136.596,1
6.267077,0.53,0.534,0.488,98.144,63.781,-138.427,1
6.275792,0.508,0.511,0.519,106.75,68.664,-139.892,1
6.282519,0.48,0.482,0.556,116.271,74.829,-140.441,1
6.291692,0.471,0.446,0.596,128.173,81.115,-141.113,1
6.298722,0.486,0.395,0.64,140.136,88.195,-140.441,1
6.307166,0.469,0.348,0.661,146.545,96.313,-138.671,1
6.315859,0.456,0.329,0.701,151.062,103.759,-136.962,1
6.322465,0.434,0.299,0.713,151.55,110.839,-133.789,1
6.329172,0.413,0.273,0.733,148.254,119.018,-130.187,1
6.336799,0.353,0.252,0.727,141.418,127.197,-126.342,1
6.345462,0.279,0.231,0.713,132.08,136.291,-122.436,1
6.352715,0.189,0.213,0.682,121.887,146.545,-118.591,1
6.361854,0.093,0.191,0.641,108.459,159.118,-114.624,1
6.368753,0.04,0.154,0.6,95.275,171.386,-110.839,1
6.376878,-0.045,0.12,0.544,82.824,183.41,-107.666,1
6.385971,-0.128,0.103,0.478,79.101,197.021,-103.82,1
6.393513,-0.2,0.084,0.432,84.106,206.542,-100.036,1
6.401608,-0.306,0.067,0.363,97.534,216.003,-95.031,1
6.408591,-0.375,0.029,0.319,112.487,222.9,-89.66,1
6.417116,-0.448,-0.008,0.24,127.197,229.248,-83.679,1
6.424264,-0.55,-0.063,0.175,139.404,234.069,-75.988,1
6.431579,-0.59,-0.1,0.096,148.254,240.966,-66.65,1
6.439376,-0.649,-0.121,0.034,148.132,246.459,-56.823,1
6.448804,-0.775,-0.151,-0.034,140.625,254.15,-46.081,1
6.456235,-0.842,-0.182,-0.123,123.901,261.84,-33.874,1
6.464795,-0.93,-0.204,-0.187,102.966,269.409,-23.315,1
6.472665,-1.066,-0.218,-0.245,72.631,277.16,-11.718,1
6.480111,-1.126,-0.22,-0.29,47.668,284.484,-2.502,1
6.488944,-1.306,-0.207,-0.34,28.564,289.611,6.347,1
6.496625,-1.407,-0.186,-0.376,20.08,295.41,15.93,1
6.504248,-1.484,-0.177,-0.42,21.362,298.889,23.803,1
6.512111,-1.594,-0.174,-0.46,26.55,301.879,31.982,1
6.519723,-1.686,-0.168,-0.526,30.7,305.236,41.931,1
6.528615,-1.798,-0.173,-0.628,29.602,309.326,50.72,1
6.535579,-1.936,-0.183,-0.684,20.996,311.584,58.776,1
6.544926,-2.055,-0.187,-0.757,10.192,314.758,67.138,1
6.55308,-2.165,-0.188,-0.797,-2.075,315.795,75.927,1
6.562225,-2.247,-0.182,-0.871,-8.3,316.955,85.632,1
6.569051,-2.369,-0.192,-0.929,-11.23,316.345,93.688,1
6.577804,-2.396,-0.221,-1.031,-20.263,316.589,104.248,1
6.586085,-2.48,-0.254,-1.11,-52.856,317.565,114.807,1
6.594399,-2.555,-0.279,-1.233,-87.097,319.946,122.375,1
6.602936,-2.696,-0.303,-1.219,-118.53,321.167,130.31,1
6.60961,-2.729,-0.316,-1.267,-141.54,322.326,137.146,1
6.618841,-2.809,-0.333,-1.233,-160.095,323.12,144.042,1
6.626783,-2.781,-0.38,-1.215,-176.025,323.669,152.587,1
6.635536,-2.947,-0.293,-1.099,-174.987,319.152,163.513,1
6.643669,-3.083,-0.157,-0.961,-127.136,314.697,176.391,1
6.651113,-3.186,-0.136,-0.989,-31.494,303.405,190.734,1
6.660277,-3.122,-0.379,-1.3,81.359,292.785,213.378,1
6.666656,-3.333,-0.597,-1.508,158.691,288.818,238.037,1
6.674878,-3.652,-0.468,-1.662,254.821,274.047,270.324,1
6.683569,-3.729,-0.577,-1.603,392.7,245.544,315.612,1
6.692764,-3.749,-0.719,-1.777,446.411,215.515,355.407,1
6.701623,-3.924,-0.714,-1.852,443.542,173.4,410.034,1
6.709427,-4.137,-0.62,-1.946,449.584,135.314,449.951,1
6.71699,-4.46,-0.474,-1.863,493.713,92.895,488.525,1
6.723914,-4.815,-0.368,-1.865,542.236,42.968,525.268,1
6.733598,-5.284,-0.236,-1.784,579.162,-12.023,559.326,1
6.74049,-5.644,-0.176,-1.758,600.891,-80.2,594.055,1
6.748713,-6.183,-0.018,-1.649,617.37,-139.465,619.567,1
6.757485,-6.773,0.106,-1.518,632.446,-203.735,639.343,1
6.76515,-7.238,0.17,-1.422,645.751,-278.503,656.127,1
6.771855,-7.857,0.233,-1.325,641.723,-344.604,662.597,1
6.780791,-8.467,0.323,-1.239,635.986,-408.447,662.475,1
6.788925,-9.038,0.448,-1.179,626.281,-480.224,654.113,1
6.7964,-9.553,0.58,-1.119,614.929,-540.161,639.404,1
6.80399,-9.908,0.653,-1.005,592.773,-593.75,619.506,1
6.813351,-10.287,0.708,-0.982,546.936,-649.047,592.59,1
6.820775,-10.638,0.772,-0.844,499.389,-689.208,567.871,1
6.829078,-11.06,0.869,-0.713,438.781,-726.501,538.696,1
6.837688,-11.494,0.975,-0.485,381.53,-754.455,514.831,1
6.844594,-11.788,1.035,-0.291,313.354,-779.418,489.807,1
6.852949,-11.904,1.094,-0.072,256.713,-796.997,472.839,1
6.860351,-12.043,1.168,0.099,215.576,-810.974,459.777,1
6.868896,-12.339,1.349,0.322,217.529,-826.782,446.472,1
6.877126,-12.619,1.367,0.475,232.116,-841.674,433.837,1
6.885807,-12.984,1.366,0.638,241.516,-851.013,421.02,1
6.89224,-13.164,1.453,0.924,236.083,-858.032,403.015,1
6.902563,-13.172,1.607,1.247,229.187,-858.886,382.019,1
6.911364,-13.145,1.836,1.501,253.417,-862.182,352.355,1
6.918822,-13.11,2.233,1.877,338.073,-861.45,308.227,1
6.929099,-12.367,2.37,2.03,447.57,-862.609,246.276,1
6.936456,-11.318,2.399,2.45,548.584,-864.501,169.738,1
6.945404,-10.293,2.322,2.566,645.507,-862.365,91.979,1
6.952998,-9.59,2.191,2.71,745.361,-853.027,7.934,1
6.960278,-9.453,1.927,2.639,817.504,-834.533,-80.566,1
6.968833,-8.777,1.56,2.531,824.279,-792.236,-178.1,1
6.977513,-7.715,1.006,2.293,756.225,-735.412,-258.178,1
6.98447,-6.902,0.64,2.175,655.822,-677.001,-306.884,1
6.992987,-6.234,0.393,2.067,531.005,-620.544,-340.881,1
7.000784,-5.647,0.153,2.095,394.042,-565.307,-359.497,1
7.009614,-5.221,0.083,2.202,251.342,-509.399,-367.675,1
7.016706,-4.826,0.1,2.352,179.504,-470.52,-368.896,1
7.025327,-4.694,0.169,2.478,161.437,-434.082,-369.445,1
7.034486,-4.582,0.082,2.572,184.143,-403.259,-371.704,1
7.043627,-4.339,-0.147,2.644,187.866,-368.713,-375.427,1
7.052506,-4.022,-0.384,2.684,165.222,-339.782,-377.136,1
7.060177,-3.584,-0.625,2.77,132.019,-302.734,-374.999,1
7.068808,-3.07,-0.826,2.778,102.6,-269.409,-369.75,1
7.076399,-2.81,-0.868,2.859,98.999,-238.403,-359.741,1
7.085575,-2.533,-0.91,2.881,129.394,-214.111,-349.975,1
7.093202,-2.296,-1.031,2.9,169.189,-187.988,-339.599,1
7.101859,-2.088,-1.163,2.843,197.387,-155.517,-326.477,1
7.11047,-1.848,-1.316,2.759,197.998,-122.558,-311.706,1
7.117583,-1.623,-1.4,2.674,181.518,-95.031,-298.034,1
7.127973,-1.398,-1.436,2.586,151.977,-63.476,-280.334,1
7.135621,-1.157,-1.462,2.524,119.018,-33.996,-259.887,1
7.143239,-0.956,-1.438,2.446,97.29,-11.169,-242.309,1
7.152382,-0.875,-1.349,2.375,84.899,10.192,-222.656,1
7.159965,-0.826,-1.276,2.283,88.623,26.123,-205.871,1
7.169259,-0.772,-1.195,2.188,97.29,39.733,-188.903,1
7.176872,-0.849,-1.138,2.045,107.299,56.335,-170.715,1
7.185961,-0.764,-1.102,1.97,110.412,73.364,-150.085,1
7.193893,-0.645,-1.066,1.879,107.849,85.937,-135.498,1
7.200748,-0.585,-1.014,1.791,103.698,97.045,-121.52,1
7.208693,-0.521,-0.948,1.706,101.074,108.947,-105.224,1
7.217381,-0.48,-0.889,1.636,98.632,118.103,-92.285,1
7.225543,-0.463,-0.833,1.566,93.322,127.441,-80.078,1
7.233907,-0.488,-0.766,1.48,82.153,136.84,-67.81,1
7.240962,-0.508,-0.685,1.427,74.89,143.981,-58.227,1
7.248184,-0.496,-0.614,1.382,72.143,149.047,-49.133,1
7.256689,-0.461,-0.559,1.335,70.922,154.357,-40.649,1
7.264357,-0.458,-0.463,1.297,67.565,159.423,-31.616,1
7.273768,-0.459,-0.423,1.239,64.819,162.963,-24.23,1
7.280742,-0.419,-0.394,1.196,63.415,165.771,-17.211,1
7.289993,-0.39,-0.372,1.143,64.758,168.823,-10.253,1
7.297098,-0.301,-0.378,1.06,69.03,170.593,-4.272,1
7.305318,-0.202,-0.362,1.022,72.326,171.264,2.563,1
7.31401,-0.104,-0.358,0.952,71.96,172.119,7.873,1
7.321298,-0.048,-0.311,0.914,72.875,173.278,13.366,1
7.329026,0.005,-0.264,0.864,77.453,172.912,17.761,1
7.338338,0.024,-0.254,0.828,78.979,172.79,21.911,1
7.345095,0.037,-0.228,0.793,76.599,173.278,25.756,1
7.353345,0.041,-0.189,0.751,71.472,173.461,29.724,1
7.362099,0.021,-0.158,0.717,68.481,173.95,32.653,1
7.368138,0.081,-0.119,0.648,68.115,173.889,34.423,1
7.375756,0.108,-0.112,0.601,66.467,172.668,36.437,1
7.383579,0.112,-0.098,0.552,62.805,172.058,38.391,1
7.392189,0.138,-0.066,0.5,58.654,170.288,39.428,1
7.399882,0.179,-0.046,0.467,60.363,168.273,40.71,1
7.409344,0.204,-0.028,0.428,63.903,165.527,41.015,1
7.416753,0.245,-0.014,0.392,72.082,161.926,41.809,1
7.425163,0.273,-0.02,0.362,80.627,158.569,41.931,1
7.43282,0.307,-0.021,0.336,88.378,154.846,42.48,1
7.441103,0.342,-0.032,0.312,92.956,152.038,42.785,1
7.449105,0.397,-0.037,0.274,95.825,149.23,43.273,1
7.456106,0.454,-0.05,0.219,99.609,147.46,43.762,1
7.464223,0.497,-0.069,0.221,99.548,144.653,44.372,1
7.471425,0.543,-0.09,0.185,95.092,144.592,45.776,1
7.479122,0.56,-0.104,0.167,88.684,142.089,46.508,1
7.487792,0.589,-0.093,0.142,81.726,142.761,47.607,1
7.495334,0.647,-0.114,0.123,73.73,140.625,48.156,1
7.503403,0.682,-0.089,0.102,71.411,139.709,48.645,1
7.51198,0.681,-0.053,0.085,73.425,137.634,49.011,1
7.519349,0.628,-0.033,0.057,81.542,137.023,50.415,1
7.526567,0.643,0.003,0.034,94.726,133.361,51.818,1
7.535495,0.6,-0.015,0.01,113.464,130.981,53.833,1
7.543912,0.575,-0.032,-0.019,134.399,127.075,57.067,1
7.549691,0.501,-0.043,-0.031,146.545,125.305,60.058,1
7.558698,0.504,-0.046,-0.053,151.245,122.802,61.889,1
7.566215,0.613,-0.063,-0.062,159.301,121.826,63.659,1
7.574838,0.697,-0.081,-0.052,172.363,119.323,65.002,1
7.583048,0.749,-0.094,-0.062,185.729,116.516,66.528,1
7.591814,0.791,-0.132,-0.08,197.998,113.525,69.58,1
7.599415,0.792,-0.168,-0.089,203.674,109.985,73.73,1
7.60563,0.786,-0.192,-0.126,201.232,107.238,77.392,1
7.614855,0.717,-0.156,-0.099,194.152,104.919,81.848,1
7.621225,0.651,-0.136,-0.121,186.523,102.966,86.181,1
7.630364,0.601,-0.113,-0.088,180.358,100.463,90.454,1
7.637741,0.549,-0.069,-0.081,177.551,97.717,94.482,1
7.646891,0.553,-0.057,-0.079,177.551,96.191,97.351,1
7.654035,0.534,-0.067,-0.088,175.903,94.787,100.402,1
7.662655,0.508,-0.068,-0.087,174.316,94.848,102.783,1
7.671818,0.485,-0.063,-0.097,170.104,94.055,105.712,1
7.679425,0.479,-0.057,-0.095,166.076,94.97,108.154,1
7.686943,0.502,-0.063,-0.103,159.484,95.153,110.473,1
7.695141,0.505,-0.059,-0.093,152.038,96.679,112.915,1
7.703416,0.455,-0.046,-0.105,141.906,98.266,116.149,1
7.710626,0.487,-0.053,-0.108,132.507,100.891,118.957,1
7.718075,0.519,-0.051,-0.125,122.192,103.576,121.643,1
7.725687,0.517,-0.047,-0.114,109.374,106.933,125.488,1
7.733436,0.425,-0.031,-0.127,102.233,109.558,129.089,1
7.743033,0.323,-0.021,-0.125,98.144,111.877,131.713,1
7.750077,0.393,-0.003,-0.159,96.252,116.088,136.047,1
7.758984,0.555,-0.016,-0.166,95.275,117.919,140.38,1
7.766366,0.796,-0.04,-0.192,93.505,120.483,146.667,1
7.774368,0.815,-0.046,-0.202,89.05,122.192,152.221,1
7.784036,0.667,0.0,-0.239,86.914,124.267,158.508,1
7.791625,0.538,0.024,-0.237,88.134,124.816,165.954,1
7.798845,0.456,0.037,-0.255,92.041,125.549,171.997,1
7.807629,0.388,0.062,-0.269,96.862,124.755,177.124,1
7.81433,0.338,0.091,-0.291,104.553,124.267,182.373,1
7.822772,0.279,0.118,-0.31,114.929,121.765,188.476,1
7.830124,0.211,0.151,-0.333,124.572,120.117,193.237,1
7.8388,0.15,0.198,-0.367,133.544,117.004,198.12,1
7.844751,0.098,0.25,-0.394,142.822,113.952,202.819,1
7.853106,0.083,0.308,-0.432,149.658,109.802,208.19,1
7.860877,0.057,0.374,-0.449,155.273,105.407,212.951,1
7.869986,0.008,0.451,-0.48,158.081,101.196,217.346,1
7.877432,-0.071,0.551,-0.498,156.677,96.618,220.581,1
7.884609,-0.142,0.652,-0.512,152.343,91.552,222.595,1
7.8935,-0.223,0.75,-0.515,147.094,87.646,223.51,1
7.900457,-0.282,0.843,-0.53,139.587,84.594,223.815,1
7.910347,-0.322,0.967,-0.549,126.159,81.42,223.388,1
7.917556,-0.359,1.069,-0.562,107.666,78.857,221.496,1
7.927833,-0.388,1.15,-0.562,87.585,76.11,218.505,1
7.936618,-0.353,1.215,-0.552,74.584,73.242,214.66,1
7.943832,-0.335,1.287,-0.542,75.927,69.58,210.632,1
7.952672,-0.378,1.343,-0.532,88.745,64.208,206.726,1
7.960017,-0.395,1.344,-0.514,99.304,59.387,203.43,1
7.96762,-0.345,1.356,-0.524,104.797,55.358,200.195,1
7.976797,-0.384,1.39,-0.537,101.562,50.537,196.96,1
7.98564,-0.358,1.434,-0.504,96.252,46.936,191.894,1
7.995833,-0.345,1.443,-0.505,86.547,42.358,188.72,1
8.002035,-0.307,1.436,-0.497,77.026,39.916,185.546,1
8.010559,-0.292,1.423,-0.479,65.429,36.01,182.128,1
8.018455,-0.26,1.395,-0.451,58.715,33.813,179.565,1
8.026701,-0.237,1.376,-0.434,60.913,29.968,177.185,1
8.034629,-0.215,1.344,-0.398,76.782,26.0,175.353,1
8.041891,-0.242,1.319,-0.38,92.468,21.362,174.011,1
8.050581,-0.238,1.279,-0.355,103.759,17.944,173.522,1
8.058826,-0.274,1.241,-0.369,103.149,14.099,173.278,1
8.0663,-0.315,1.215,-0.34,89.538,13.183,173.095,1
8.075276,-0.335,1.222,-0.353,68.481,12.878,172.363,1
8.08254,-0.391,1.255,-0.32,51.818,13.183,171.325,1
8.089817,-0.419,1.273,-0.309,30.334,12.634,169.982,1
8.098753,-0.417,1.278,-0.293,22.399,11.962,168.457,1
8.10599,-0.404,1.275,-0.256,27.77,9.704,166.564,1
8.113641,-0.403,1.281,-0.236,43.273,6.408,165.039,1
8.121307,-0.428,1.289,-0.216,62.805,2.014,163.574,1
8.129282,-0.423,1.263,-0.188,85.754,-2.685,162.17,1
8.139289,-0.401,1.238,-0.168,102.05,-6.896,160.644,1
8.148226,-0.433,1.214,-0.176,113.708,-10.375,159.973,1
8.154701,-0.439,1.238,-0.164,109.191,-11.169,158.813,1
8.162775,-0.486,1.185,-0.158,79.528,-12.817,158.63,1
8.171831,-0.485,1.171,-0.156,38.879,-10.009,157.287,1
8.179013,-0.506,1.194,-0.124,9.765,-7.995,155.7,1
8.188106,-0.555,1.231,-0.115,-2.563,-6.347,154.235,1
8.196578,-0.621,1.28,-0.076,-3.845,-5.004,151.977,1
8.204026,-0.656,1.298,-0.071,3.234,-6.408,150.817,1
8.213276,-0.679,1.329,-0.047,15.319,-5.981,149.475,1
8.223367,-0.728,1.382,-0.021,35.461,-8.117,145.874,1
8.230518,-0.708,1.372,-0.003,57.006,-9.948,141.906,1
8.238357,-0.712,1.349,0.003,77.575,-12.756,138.854,1
8.248004,-0.726,1.322,0.039,83.19,-13.061,136.352,1
8.2547,-0.639,1.262,0.039,87.036,-15.319,134.277,1
8.263929,-0.681,1.166,0.056,84.411,-17.272,133.056,1
8.271699,-0.675,1.051,-0.012,48.339,-17.272,138.977,1
8.28037,-0.653,1.148,0.053,23.681,-13.916,136.169,1
8.287485,-0.864,1.185,0.068,11.047,-10.375,137.878,1
8.296496,-0.947,1.2,0.061,6.713,-8.911,138.122,1
8.304224,-0.88,1.128,0.089,2.075,-9.338,138.793,1
8.312644,-0.86,1.158,0.085,10.437,-6.591,139.526,1
8.320306,-0.847,1.187,0.136,20.202,-5.065,138.061,1
8.328198,-0.758,1.126,0.122,23.437,-6.042,136.474,1
8.335772,-0.686,1.103,0.125,25.939,-5.798,133.483,1
8.344799,-0.698,1.07,0.116,26.977,-5.126,129.882,1
8.353132,-0.666,1.118,0.138,27.893,-4.455,125.976,1
8.360532,-0.729,1.113,0.132,26.916,-4.394,123.046,1
8.368813,-0.808,0.955,0.081,-7.019,-4.333,126.708,1
8.37679,-0.7,1.008,0.094,-22.094,-3.479,121.948,1
8.384661,-0.751,0.959,0.118,-23.559,-1.831,121.276,1
8.393604,-0.853,0.988,0.107,-12.084,-1.831,120.117,1
8.402095,-0.854,0.977,0.145,7.629,-2.746,119.14,1
8.409207,-0.835,0.948,0.133,32.348,-5.065,118.53,1
8.419337,-0.791,0.926,0.153,57.556,-6.896,116.516,1
8.427162,-0.805,0.913,0.154,79.162,-8.544,113.464,1
8.435256,-0.817,0.911,0.151,90.881,-9.887,109.802,1
8.442914,-0.852,0.897,0.162,88.317,-9.46,107.055,1
8.452119,-0.87,0.875,0.161,78.247,-9.46,103.271,1
8.458583,-0.824,0.796,0.137,63.354,-8.178,100.891,1
8.467908,-0.805,0.726,0.123,41.32,-7.08,99.426,1
8.475416,-0.827,0.719,0.144,27.954,-5.798,97.778,1
8.484326,-1.028,0.822,0.145,8.544,-2.868,95.336,1
8.493501,-1.185,0.815,0.145,4.15,-1.892,94.421,1
8.501376,-1.195,0.831,0.175,9.46,-0.854,91.308,1
8.50853,-1.241,0.717,0.175,18.066,-2.319,91.43,1
8.516536,-1.07,0.723,0.177,32.165,-3.54,89.294,1
8.524507,-1.069,0.681,0.168,45.349,-2.929,89.111,1
8.531681,-1.061,0.66,0.196,58.837,-3.601,87.219,1
8.539876,-0.979,0.605,0.188,70.739,-5.004,85.388,1
8.547564,-1.042,0.535,0.19,76.049,-6.469,84.96,1
8.555694,-1.004,0.469,0.171,74.157,-7.446,83.19,1
8.563043,-0.994,0.45,0.163,68.054,-8.3,82.153,1
8.57172,-1.062,0.521,0.194,61.584,-8.544,80.2,1
8.578882,-1.148,0.635,0.19,52.978,-8.605,77.697,1
8.58743,-1.087,0.607,0.175,48.889,-7.873,75.012,1
8.595717,-1.069,0.656,0.204,50.903,-7.507,72.021,1
8.60436,-1.126,0.653,0.2,43.029,-7.934,69.58,1
8.611726,-1.114,0.653,0.197,40.771,-7.812,66.223,1
8.619121,-0.986,0.648,0.212,42.358,-6.835,62.683,1
8.627644,-0.966,0.597,0.223,35.766,-6.103,59.57,1
8.637107,-0.957,0.573,0.197,24.719,-5.92,56.64,1
8.64424,-0.866,0.569,0.221,15.747,-4.15,54.077,1
8.651535,-0.925,0.576,0.222,6.286,-2.624,51.086,1
8.660501,-0.941,0.584,0.211,1.708,-1.22,48.095,1
8.668196,-0.904,0.569,0.227,-1.586,0.732,44.677,1
8.676166,-0.896,0.572,0.214,-3.234,2.746,41.748,1
8.683606,-0.844,0.57,0.214,2.807,5.92,38.574,1
8.691479,-0.757,0.526,0.223,3.479,7.873,34.118,1
8.70109,-0.946,0.538,0.204,-8.605,9.765,31.921,1
8.708966,-1.018,0.566,0.194,-18.92,12.207,29.235,1
8.716506,-0.991,0.604,0.206,-25.085,15.686,25.268,1
8.723473,-0.935,0.589,0.173,-30.273,18.005,21.972,1
8.732408,-0.91,0.578,0.176,-35.156,19.531,18.615,1
8.739903,-0.851,0.559,0.147,-40.832,21.118,15.624,1
8.747573,-0.888,0.557,0.143,-47.668,22.216,13.854,1
8.756975,-0.894,0.569,0.125,-47.363,22.888,11.535,1
8.764582,-0.893,0.566,0.116,-43.395,23.437,8.666,1
8.771802,-0.895,0.557,0.1,-41.381,23.132,6.286,1
8.780767,-0.914,0.556,0.101,-38.269,22.827,3.967,1
8.787154,-0.919,0.547,0.086,-34.79,22.399,2.136,1
8.795048,-0.932,0.53,0.081,-32.897,21.484,0.427,1
8.804096,-0.935,0.518,0.068,-32.775,20.812,-0.976,1
8.811752,-0.942,0.511,0.062,-33.386,19.775,-2.197,1
8.822429,-0.971,0.507,0.055,-33.203,18.554,-3.54,1
8.829275,-0.978,0.505,0.049,-30.395,16.967,-5.004,1
8.836546,-0.933,0.477,0.038,-27.404,15.197,-5.737,1
8.844799,-0.934,0.469,0.037,-25.512,13.427,-6.103,1
8.853613,-0.952,0.473,0.036,-20.935,11.901,-6.53,1
8.861125,-0.916,0.455,0.03,-16.54,10.131,-6.896,1
8.869879,-0.948,0.458,0.027,-11.779,8.85,-6.958,1
8.87669,-0.964,0.445,0.03,-7.08,7.08,-6.835,1
8.884839,-0.936,0.428,0.013,-7.019,5.981,-6.591,1
8.892529,-0.915,0.418,0.016,-8.605,4.699,-6.591,1
8.900919,-0.895,0.409,0.015,-10.986,4.089,-6.225,1
8.907757,-0.892,0.406,0.017,-12.756,3.295,-6.103,1
8.917416,-0.875,0.406,0.013,-13.793,2.868,-5.676,1
8.924572,-0.872,0.407,0.017,-14.831,1.892,-5.615,1
8.933995,-0.861,0.404,0.016,-14.892,1.159,-5.859,1
8.941376,-0.853,0.405,0.022,-14.343,0.427,-5.493,1
8.950376,-0.848,0.406,0.024,-12.39,-0.244,-5.859,1
8.958096,-0.852,0.413,0.036,-9.094,-1.159,-6.103,1
8.965869,-0.852,0.419,0.04,-3.906,-1.586,-6.958,1
8.974769,-0.842,0.416,0.039,2.075,-1.647,-7.69,1
8.983936,-0.841,0.415,0.05,11.169,-1.159,-9.155,1
8.990518,-0.875,0.416,0.056,19.348,0.305,-10.192,1
8.998136,-0.905,0.403,0.055,25.512,1.708,-10.986,1
9.006505,-0.938,0.373,0.05,24.658,4.455,-11.474,1
9.013707,-0.952,0.338,0.045,11.108,8.361,-11.047,1
9.023138,-0.955,0.305,0.035,-12.512,12.573,-9.948,1
9.031388,-0.94,0.278,0.037,-45.715,17.395,-8.666,1
9.039243,-0.908,0.255,0.031,-91.857,22.888,-6.958,1
9.046657,-0.884,0.255,0.031,-131.774,27.282,-5.737,1
9.055571,-0.892,0.267,0.041,-170.837,31.127,-4.15,1
9.064043,-0.929,0.303,0.042,-194.885,32.958,-3.173,1
9.071211,-0.975,0.331,0.056,-211.975,33.935,-2.075,1
9.078876,-0.995,0.355,0.064,-218.017,33.447,-1.037,1
9.088749,-0.986,0.374,0.076,-215.026,32.348,0.0,1
9.095972,-0.969,0.384,0.088,-200.5,30.151,1.586,1
9.1032,-0.956,0.395,0.095,-181.579,28.076,2.624,1
9.112157,-0.946,0.4,0.101,-159.057,25.878,3.845,1
9.120108,-0.961,0.406,0.099,-134.948,23.071,4.943,1
9.127242,-1.002,0.413,0.091,-106.201,19.958,5.981,1
9.136804,-1.075,0.426,0.086,-82.092,16.845,6.713,1
9.145026,-1.141,0.429,0.078,-67.321,14.282,7.324,1
9.152524,-1.186,0.425,0.07,-57.922,11.291,8.178,1
9.160583,-1.175,0.42,0.064,-55.908,8.911,8.85,1
9.167672,-1.142,0.415,0.063,-55.786,7.08,9.887,1
9.175065,-1.098,0.404,0.065,-54.016,4.943,10.864,1
9.183231,-1.03,0.401,0.071,-48.767,3.356,11.84,1
9.192909,-0.97,0.393,0.069,-38.574,0.61,12.756,1
9.200727,-0.914,0.391,0.074,-24.841,-1.464,13.427,1
9.208183,-0.871,0.383,0.072,-11.413,-3.906,13.671,1
9.21716,-0.841,0.376,0.069,5.004,-5.92,14.038,1
9.226317,-0.828,0.37,0.063,20.141,-8.178,13.916,1
9.235719,-0.824,0.364,0.062,30.578,-9.094,13.916,1
9.244594,-0.815,0.358,0.063,39.245,-10.437,13.793,1
9.252437,-0.806,0.345,0.056,44.372,-10.864,14.16,1
9.259064,-0.809,0.34,0.054,45.654,-10.986,14.16,1
9.268662,-0.827,0.338,0.045,43.884,-10.253,14.099,1
9.275364,-0.849,0.333,0.042,39.672,-9.46,14.16,1
9.28372,-0.865,0.33,0.035,31.799,-7.934,13.671,1
9.290755,-0.875,0.334,0.03,23.498,-7.202,13.305,1
9.298625,-0.881,0.334,0.028,14.099,-6.225,12.756,1
9.306521,-0.892,0.339,0.025,5.493,-5.432,12.084,1
9.315678,-0.897,0.338,0.023,-1.831,-4.455,11.413,1
9.32312,-0.901,0.343,0.023,-8.361,-4.15,10.437,1
9.331631,-0.903,0.35,0.02,-12.084,-3.662,9.948,1
9.339033,-0.906,0.349,0.022,-14.099,-3.479,9.155,1
9.348172,-0.905,0.346,0.014,-14.892,-3.784,8.972,1
9.355351,-0.901,0.346,0.013,-15.93,-4.211,8.422,1
9.363067,-0.89,0.347,0.019,-16.052,-4.943,8.056,1
9.372002,-0.894,0.351,0.013,-15.563,-5.187,7.629,1
9.380823,-0.898,0.357,0.012,-14.16,-6.042,7.202,1
9.38819,-0.9,0.361,0.014,-10.986,-6.53,6.835,1
9.395279,-0.902,0.372,0.014,-7.324,-7.202,6.225,1
9.403513,-0.915,0.383,0.018,-2.258,-7.69,5.065,1
9.411472,-0.914,0.378,0.016,2.624,-7.995,4.15,1
9.420389,-0.921,0.372,0.009,4.638,-8.666,2.929,1
9.427982,-0.961,0.378,0.014,2.38,-8.972,1.159,1
9.436812,-0.973,0.376,0.021,-1.037,-8.85,0.0,1
9.444902,-0.978,0.371,0.024,-7.324,-8.666,-0.61,1
9.452238,-0.981,0.372,0.026,-13.061,-7.873,-1.342,1
9.460618,-0.996,0.378,0.031,-18.066,-7.385,-2.014,1
9.469637,-1.0,0.385,0.028,-22.216,-6.652,-3.112,1
9.476714,-1.003,0.386,0.029,-24.78,-6.408,-4.211,1
9.485949,-0.881,0.348,0.024,-28.137,-6.469,-5.798,1
9.49521,-0.995,0.376,0.021,-30.151,-6.225,-6.896,1
9.503003,-0.99,0.381,0.024,-26.794,-6.469,-8.056,1
9.511408,-0.982,0.378,0.026,-22.583,-7.324,-9.704,1
9.518496,-0.973,0.371,0.022,-18.127,-8.239,-10.986,1
9.527946,-0.965,0.363,0.024,-12.573,-8.972,-11.901,1
9.535973,-0.951,0.354,0.022,-7.934,-9.582,-12.634,1
9.544702,-0.941,0.344,0.021,-4.089,-9.887,-13.0,1
9.552269,-0.929,0.333,0.018,-1.77,-10.559,-12.817,1
9.561318,-0.916,0.325,0.014,-0.122,-10.925,-12.817,1
9.568615,-0.908,0.324,0.011,1.098,-11.291,-12.878,1
9.576614,-0.918,0.316,0.004,2.563,-11.901,-13.0,1
9.585667,-0.933,0.321,0.002,5.126,-12.939,-13.0,1
9.594363,-0.935,0.324,0.003,9.887,-13.549,-13.305,1
9.603134,-0.918,0.32,0.0,15.991,-14.831,-13.183,1
9.610263,-0.905,0.317,0.0,21.423,-15.624,-13.122,1
9.618303,-0.894,0.305,0.0,26.184,-16.357,-13.244,1
9.627454,-0.904,0.295,-0.009,29.968,-16.662,-13.061,1
9.633996,-0.916,0.29,-0.013,30.395,-17.028,-12.756,1
9.643368,-0.925,0.29,-0.008,29.541,-16.967,-12.573,1
9.649707,-0.921,0.283,-0.013,26.245,-17.028,-12.023,1
9.657548,-0.907,0.281,-0.014,23.315,-16.906,-11.413,1
9.665775,-0.899,0.282,-0.012,21.545,-16.906,-10.742,1
9.674663,-0.907,0.281,-0.008,20.568,-16.784,-10.07,1
9.680504,-0.918,0.285,-0.005,19.775,-16.906,-9.399,1
9.689019,-0.915,0.282,-0.004,18.737,-16.845,-8.666,1
9.696916,-0.907,0.284,-0.011,17.333,-17.089,-7.751,1
9.705808,-0.906,0.282,-0.007,15.441,-16.845,-6.835,1
9.713623,-0.909,0.282,-0.005,13.488,-16.662,-5.798,1
9.721901,-0.916,0.285,-0.005,12.145,-16.418,-4.821,1
9.730215,-0.92,0.29,-0.011,11.535,-16.54,-3.967,1
9.73934,-0.931,0.292,-0.006,11.779,-16.723,-3.234,1
9.74759,-0.924,0.291,-0.014,12.512,-16.784,-2.075,1
9.756144,-0.922,0.29,-0.011,14.16,-17.456,-0.671,1
9.764058,-0.911,0.293,-0.017,15.991,-18.127,0.488,1
9.772316,-0.906,0.294,-0.014,18.676,-18.249,1.586,1
9.78062,-0.921,0.299,-0.012,23.681,-18.92,2.99,1
9.788576,-0.934,0.306,-0.01,28.137,-19.531,3.479,1
9.797952,-0.944,0.31,-0.01,33.569,-19.958,4.089,1
9.805312,-0.937,0.312,-0.004,38.574,-20.568,4.394,1
9.812897,-0.927,0.309,-0.006,43.64,-20.874,4.699,1
9.821052,-0.92,0.305,-0.008,48.278,-21.118,5.126,1
9.82952,-0.913,0.302,-0.003,52.734,-21.057,5.92,1
9.836975,-0.909,0.299,-0.004,55.114,-21.057,6.774,1
9.844332,-0.903,0.293,-0.01,55.541,-20.996,7.629,1
9.852639,-0.902,0.288,-0.008,54.565,-20.507,8.178,1
9.860749,-0.897,0.293,-0.013,52.368,-20.08,9.277,1
9.868091,-0.902,0.293,-0.007,49.621,-19.531,10.131,1
9.877064,-0.919,0.301,-0.01,46.569,-19.042,10.742,1
9.886217,-0.935,0.305,0.0,43.579,-18.249,11.108,1
9.89343,-0.934,0.31,0.001,41.198,-17.395,11.352,1
9.902045,-0.936,0.312,0.001,40.1,-16.601,11.84,1
9.910339,-0.935,0.313,0.004,39.489,-16.174,11.962,1
9.917004,-0.93,0.316,0.01,39.306,-15.258,12.145,1
9.925494,-0.934,0.319,0.006,38.879,-14.709,12.634,1
9.933071,-0.93,0.315,0.008,37.231,-13.61,12.817,1
9.94147,-0.929,0.312,0.008,33.63,-12.268,13.122,1
9.949176,-0.926,0.312,0.01,29.663,-11.23,13.671,1
9.957764,-0.932,0.317,0.013,24.841,-9.765,13.977,1
9.964502,-0.949,0.326,0.016,20.874,-8.605,14.465,1
9.973931,-0.956,0.335,0.021,18.005,-7.507,14.343,1
9.981352,-0.964,0.345,0.024,15.991,-6.53,14.465,1
9.988066,-0.961,0.345,0.02,15.502,-5.371,14.404,1
9.996669,-0.963,0.352,0.024,16.235,-4.333,14.038,1
