timestamp_s,ax,ay,az,gx,gy,gz,label
0.006389,1.019,-0.068,-0.318,-18.493,0.427,1.342,1
0.014669,1.034,-0.073,-0.303,-26.672,0.0,1.77,1
0.022598,1.036,-0.072,-0.3,-30.151,-0.793,1.892,1
0.03054,1.039,-0.058,-0.281,-30.7,-1.953,2.258,1
0.038464,1.037,-0.051,-0.264,-27.465,-3.051,2.502,1
0.046152,1.05,-0.033,-0.256,-23.132,-4.211,2.868,1
0.05262,1.05,-0.016,-0.254,-18.249,-5.554,3.173,1
0.060833,1.052,-0.007,-0.249,-15.808,-6.286,3.723,1
0.067933,1.037,0.0,-0.271,-17.944,-6.774,3.723,1
0.077222,1.023,-0.002,-0.276,-22.399,-7.873,3.356,1
0.084033,1.042,0.0,-0.254,-22.827,-8.666,2.502,1
0.091963,1.089,0.007,-0.239,-15.686,-10.498,2.075,1
0.098884,1.137,0.014,-0.204,-1.403,-12.023,1.77,1
0.105954,1.146,0.02,-0.205,15.441,-13.916,1.464,1
0.113185,1.121,0.032,-0.18,31.921,-16.296,0.915,1
0.121757,1.096,0.013,-0.174,39.184,-17.395,0.122,1
0.128538,1.084,0.003,-0.157,36.743,-17.272,-0.183,1
0.1371,1.085,-0.007,-0.155,25.451,-16.601,-0.549,1
0.143772,1.071,-0.009,-0.137,8.3,-16.113,-0.976,1
0.152228,1.063,-0.007,-0.125,-9.582,-14.587,-1.464,1
0.159283,1.054,-0.005,-0.124,-26.794,-13.732,-2.197,1
0.167949,0.981,-0.028,-0.11,-41.564,-12.634,-3.173,1
0.174619,1.035,0.01,-0.109,-50.17,-11.657,-3.662,1
0.182484,1.002,0.021,-0.081,-48.583,-12.084,-4.882,1
0.190953,0.996,0.05,-0.065,-42.724,-11.596,-6.042,1
0.197708,0.943,0.042,-0.056,-32.836,-13.549,-7.141,1
0.206186,0.959,0.03,-0.041,-23.071,-12.573,-8.422,1
0.212941,0.938,0.017,-0.037,-17.089,-14.526,-9.521,1
0.220104,0.946,0.006,-0.021,-11.108,-13.977,-10.437,1
0.228745,0.948,-0.016,-0.026,-7.019,-14.892,-10.681,1
0.23537,0.937,-0.043,-0.016,-4.516,-14.953,-11.169,1
0.24384,0.939,-0.078,-0.009,-4.821,-15.136,-11.108,1
0.250452,0.951,-0.108,0.0,-6.042,-14.831,-10.986,1
0.258796,0.951,-0.128,-0.009,-8.605,-14.282,-10.559,1
0.265711,0.952,-0.138,-0.001,-12.756,-13.854,-10.253,1
0.274089,0.948,-0.143,0.001,-16.174,-13.427,-9.765,1
0.282144,0.96,-0.145,0.006,-18.493,-13.183,-9.033,1
0.288832,0.961,-0.144,0.009,-18.737,-12.756,-8.666,1
0.295996,0.954,-0.13,0.01,-15.93,-12.817,-8.239,1
0.304427,0.965,-0.121,0.002,-12.084,-13.0,-7.69,1
0.311327,0.973,-0.12,0.003,-7.934,-13.122,-7.568,1
0.319837,1.012,-0.129,-0.011,-4.76,-13.122,-7.324,1
0.326498,1.043,-0.13,-0.015,-2.563,-13.305,-7.263,1
0.334518,1.063,-0.13,-0.027,-1.22,-13.122,-7.324,1
0.342946,1.065,-0.121,-0.024,-0.488,-13.183,-7.08,1
0.349488,1.06,-0.113,-0.023,-0.305,-13.61,-7.202,1
0.357706,1.06,-0.102,-0.009,0.549,-13.366,-7.446,1
0.364679,1.064,-0.092,-0.002,2.197,-13.183,-7.385,1
0.373197,1.061,-0.088,0.002,2.136,-12.939,-7.385,1
0.380958,1.059,-0.082,-0.01,-1.342,-12.023,-7.873,1
0.388522,1.061,-0.069,-0.01,-7.507,-11.413,-7.873,1
0.395142,1.069,-0.056,-0.019,-12.939,-10.681,-8.361,1
0.403715,1.076,-0.035,-0.02,-14.648,-10.253,-9.216,1
0.412108,1.093,-0.024,-0.015,-13.854,-10.192,-10.07,1
0.418798,1.109,-0.017,-0.012,-10.314,-10.437,-10.498,1
0.425359,1.111,-0.013,0.001,-6.835,-10.375,-11.718,1
0.433357,1.124,-0.009,0.004,-4.272,-10.009,-13.061,1
0.441716,1.085,-0.014,0.02,-3.112,-9.399,-13.977,1
0.449604,1.081,-0.021,0.039,-2.38,-9.033,-15.075,1
0.456162,1.081,-0.028,0.044,-3.479,-7.873,-15.93,1
0.464608,1.073,-0.035,0.041,-8.117,-7.141,-16.418,1
0.472894,1.067,-0.027,0.05,-13.549,-5.859,-17.333,1
0.480938,1.045,-0.011,0.058,-20.324,-4.76,-18.066,1
0.487866,1.009,0.006,0.069,-26.611,-3.662,-18.981,1
0.496239,0.975,0.02,0.069,-31.249,-2.807,-20.08,1
0.504627,0.973,0.026,0.083,-31.249,-2.502,-21.118,1
0.512252,0.979,0.025,0.095,-27.282,-2.807,-21.972,1
0.520639,0.979,0.016,0.101,-18.737,-3.173,-23.376,1
0.529073,0.989,-0.002,0.113,-9.887,-3.173,-24.108,1
0.535768,0.975,-0.038,0.117,-5.31,-2.807,-25.268,1
0.543831,0.973,-0.07,0.125,-7.324,-1.525,-26.489,1
0.551586,0.985,-0.123,0.128,-17.395,0.915,-27.282,1
0.560009,0.995,-0.148,0.145,-30.761,3.417,-28.137,1
0.568145,0.964,-0.144,0.164,-43.701,5.92,-28.503,1
0.576125,0.932,-0.18,0.196,-58.776,7.751,-28.137,1
0.584192,0.937,-0.111,0.19,-66.711,10.803,-28.015,1
0.59194,0.913,-0.094,0.206,-71.228,12.023,-28.747,1
0.599955,0.88,-0.088,0.211,-65.368,13.183,-28.808,1
0.607541,0.904,-0.107,0.235,-49.133,12.878,-28.747,1
0.614498,0.962,-0.16,0.241,-28.808,13.183,-28.442,1
0.622677,1.03,-0.214,0.242,-11.108,14.038,-27.893,1
0.630776,1.091,-0.27,0.251,-0.915,15.38,-26.367,1
0.639035,1.132,-0.316,0.267,0.732,17.028,-24.78,1
0.645606,1.213,-0.366,0.305,1.037,19.531,-21.911,1
0.654749,1.285,-0.412,0.328,-1.281,23.132,-18.249,1
0.661646,1.365,-0.426,0.327,-5.432,26.611,-13.793,1
0.670036,1.427,-0.409,0.315,-8.483,30.09,-9.521,1
0.677381,1.464,-0.376,0.283,-10.681,33.691,-5.493,1
0.685768,1.484,-0.326,0.232,-9.765,36.743,-2.136,1
0.693592,1.474,-0.259,0.156,-10.131,39.306,0.61,1
0.701544,1.458,-0.184,0.064,-14.526,41.259,2.746,1
0.708,1.374,-0.047,-0.057,-22.644,42.114,3.356,1
0.716185,1.343,0.021,-0.11,-31.616,41.076,2.319,1
0.723974,1.334,0.131,-0.176,-36.071,41.748,0.488,1
0.730969,1.299,0.29,-0.303,-38.696,40.771,-2.258,1
0.739188,1.244,0.413,-0.403,-41.198,38.818,-6.347,1
0.746017,1.134,0.583,-0.501,-39.306,35.4,-12.268,1
0.754117,1.077,0.715,-0.636,-37.902,32.287,-18.798,1
0.762219,1.004,0.829,-0.796,-51.269,27.893,-26.489,1
0.770131,0.946,0.942,-0.939,-67.932,22.827,-35.095,1
0.778661,0.908,1.06,-1.081,-71.594,14.587,-43.395,1
0.786576,0.895,1.125,-1.222,-66.345,4.882,-51.513,1
0.79436,0.872,1.179,-1.333,-53.588,-9.399,-60.424,1
0.802879,0.821,1.193,-1.413,-38.757,-22.155,-67.932,1
0.811309,0.783,1.173,-1.527,-26.123,-37.841,-76.049,1
0.819203,0.713,1.119,-1.592,-25.329,-52.978,-82.702,1
0.827082,0.62,1.078,-1.598,-19.348,-71.166,-90.087,1
0.834158,0.5,1.001,-1.638,-14.648,-87.097,-95.947,1
0.842549,0.353,0.898,-1.651,-18.066,-103.149,-102.233,1
0.849611,0.166,0.797,-1.657,-24.475,-118.408,-108.337,1
0.857869,-0.03,0.683,-1.651,-30.822,-134.216,-114.501,1
0.865863,-0.261,0.523,-1.605,-31.982,-153.625,-120.361,1
0.874301,-0.448,0.381,-1.538,-26.428,-170.715,-124.755,1
0.882277,-0.658,0.194,-1.457,-18.676,-187.438,-127.746,1
0.89044,-0.876,0.033,-1.358,-8.361,-207.763,-129.638,1
0.898948,-1.007,-0.135,-1.295,5.187,-223.205,-130.432,1
0.907383,-1.154,-0.36,-1.208,8.85,-241.21,-130.187,1
0.914348,-1.292,-0.559,-1.119,3.967,-255.065,-127.868,1
0.922858,-1.499,-0.784,-0.99,-10.314,-269.47,-123.596,1
0.931006,-1.72,-0.927,-0.833,-10.314,-285.339,-117.37,1
0.939956,-1.802,-1.158,-0.692,5.371,-301.513,-108.764,1
0.948135,-1.941,-1.362,-0.597,5.859,-313.72,-99.67,1
0.954933,-2.121,-1.551,-0.526,-5.249,-324.096,-88.378,1
0.963572,-2.487,-1.715,-0.418,-17.7,-336.669,-74.157,1
0.971887,-2.707,-1.829,-0.317,-19.409,-346.618,-59.082,1
0.978928,-2.95,-2.028,-0.238,-9.277,-360.534,-43.09,1
0.987447,-3.1,-2.199,-0.165,-2.502,-372.131,-21.362,1
0.996022,-3.4,-2.397,-0.067,-17.883,-383.789,0.244,1
1.004514,-3.657,-2.549,0.023,-42.48,-394.653,29.785,1
1.012752,-3.906,-2.698,0.15,-71.105,-405.517,58.959,1
1.020807,-4.27,-2.852,0.357,-98.327,-413.574,93.261,1
1.028518,-4.659,-3.026,0.478,-138.549,-422.302,139.892,1
1.03684,-5.258,-3.154,0.664,-209.35,-424.743,187.011,1
1.044634,-6.028,-3.145,0.973,-290.771,-421.264,250.183,1
1.052607,-6.78,-3.084,1.288,-341.064,-413.391,311.706,1
1.060679,-7.474,-3.036,1.627,-364.257,-400.817,378.112,1
1.068411,-8.35,-3.015,2.026,-332.275,-385.314,457.031,1
1.076187,-9.183,-3.06,2.395,-274.108,-369.262,525.878,1
1.084404,-10.214,-3.09,2.695,-223.937,-350.219,592.956,1
1.093178,-11.656,-2.994,3.017,-209.716,-318.847,672.302,1
1.101075,-13.124,-2.74,3.244,-228.576,-283.264,740.417,1
1.108889,-15.072,-2.363,3.5,-275.573,-227.416,822.387,1
1.117223,-15.999,-1.925,3.68,-329.223,-164.855,893.432,1
1.125497,-15.999,-1.368,3.84,-386.352,-73.364,977.6,1
1.132639,-15.999,-0.77,3.893,-425.109,18.92,1046.386,1
1.140494,-15.999,-0.044,3.912,-444.152,123.962,1108.947,1
1.148363,-15.999,0.799,3.873,-445.068,237.548,1160.156,1
1.15657,-15.999,1.703,3.733,-438.964,361.083,1199.401,1
1.164551,-15.999,2.792,3.405,-427.246,511.291,1227.356,1
1.172591,-15.999,3.701,2.918,-427.307,645.935,1236.206,1
1.178887,-15.999,4.555,2.309,-444.641,777.709,1228.698,1
1.186871,-15.999,5.279,1.546,-472.717,893.981,1212.89,1
1.194588,-15.999,5.894,0.771,-504.516,1023.742,1177.978,1
1.201234,-15.999,6.322,0.488,-514.099,1147.949,1133.728,1
1.209065,-15.999,6.101,-0.138,-533.935,1273.376,1086.303,1
1.216206,-15.999,6.112,-1.143,-599.792,1403.137,1017.639,1
1.224031,-15.999,6.291,-1.788,-619.934,1492.37,953.43,1
1.232337,-15.999,6.208,-2.423,-663.513,1582.214,860.107,1
1.239188,-15.999,5.999,-3.363,-726.501,1667.236,746.398,1
1.246347,-15.999,5.928,-4.729,-856.384,1722.717,594.116,1
1.254376,-15.999,5.605,-5.782,-996.765,1769.042,399.658,1
1.262063,-15.999,5.28,-6.818,-1098.449,1766.296,164.855,1
1.269082,-15.999,4.554,-7.282,-1112.731,1718.078,-80.871,1
1.276805,-15.999,3.267,-7.742,-960.693,1624.145,-292.602,1
1.285308,-15.999,1.72,-7.987,-867.309,1483.947,-451.782,1
1.292869,-15.999,0.867,-7.54,-704.589,1344.543,-564.086,1
1.300929,-15.999,-0.52,-7.283,-481.506,1189.88,-630.493,1
1.308531,-15.999,-1.856,-7.358,-310.302,1045.227,-651.245,1
1.316997,-15.999,-2.918,-7.341,-251.22,931.274,-642.944,1
1.324153,-15.999,-3.681,-7.025,-230.163,841.064,-618.835,1
1.332749,-15.79,-4.304,-6.924,-221.679,754.394,-586.792,1
1.341096,-12.937,-4.569,-6.685,-245.91,656.738,-545.837,1
1.347666,-10.637,-4.42,-6.359,-263.977,576.355,-512.207,1
1.355985,-8.575,-4.084,-5.75,-272.644,497.192,-482.055,1
1.365787,-7.074,-3.749,-5.239,-273.01,416.809,-446.838,1
1.373944,-5.668,-3.409,-4.734,-263.549,339.538,-412.536,1
1.382041,-4.795,-3.228,-4.352,-269.897,282.959,-382.568,1
1.389855,-4.276,-2.767,-3.866,-271.85,221.679,-349.304,1
1.398044,-4.026,-2.517,-3.543,-257.446,178.1,-321.96,1
1.405921,-3.717,-2.236,-3.232,-263.305,131.713,-289.123,1
1.413873,-3.544,-1.909,-2.959,-246.704,97.412,-262.207,1
1.422717,-3.252,-1.628,-2.729,-222.106,58.837,-232.543,1
1.431097,-3.026,-1.364,-2.502,-206.909,32.043,-208.618,1
1.439093,-2.763,-1.077,-2.325,-191.955,5.432,-186.035,1
1.447145,-2.472,-0.797,-2.085,-171.386,-21.118,-162.658,1
1.455575,-2.187,-0.567,-1.882,-147.583,-46.02,-140.991,1
1.46291,-2.012,-0.416,-1.707,-124.572,-64.88,-124.633,1
1.471393,-1.9,-0.284,-1.564,-108.215,-81.359,-109.924,1
1.480101,-1.86,-0.189,-1.45,-97.167,-97.839,-94.909,1
1.488528,-1.863,-0.098,-1.344,-87.829,-111.999,-80.993,1
1.496598,-1.884,-0.046,-1.26,-80.688,-122.619,-70.922,1
1.504558,-1.897,0.0,-1.165,-69.824,-132.324,-61.584,1
1.512295,-1.897,0.032,-1.058,-52.795,-142.211,-52.612,1
1.520185,-1.867,0.041,-0.968,-36.621,-149.353,-45.41,1
1.528217,-1.776,0.026,-0.877,-18.554,-156.25,-38.635,1
1.536617,-1.691,0.009,-0.789,-3.479,-160.705,-33.203,1
1.544727,-1.578,-0.024,-0.712,10.131,-163.818,-28.137,1
1.55334,-1.478,-0.054,-0.656,23.864,-166.381,-23.01,1
1.561251,-1.363,-0.103,-0.624,30.334,-167.541,-18.432,1
1.569333,-1.27,-0.177,-0.572,32.958,-168.334,-12.573,1
1.576873,-1.146,-0.205,-0.528,37.353,-167.907,-7.385,1
1.585108,-1.012,-0.206,-0.468,44.799,-167.724,-2.563,1
1.592941,-0.889,-0.193,-0.421,52.185,-165.466,2.929,1
1.601313,-0.804,-0.158,-0.41,51.025,-163.024,6.347,1
1.609176,-0.735,-0.11,-0.377,43.945,-159.423,10.62,1
1.617213,-0.691,-0.058,-0.362,36.804,-155.883,13.793,1
1.625433,-0.634,-0.023,-0.355,30.151,-152.709,16.479,1
1.632507,-0.582,0.012,-0.33,26.123,-148.925,19.836,1
1.640922,-0.511,0.035,-0.306,28.015,-145.751,23.071,1
1.647614,-0.423,0.052,-0.283,33.935,-142.7,26.062,1
1.65603,-0.329,0.06,-0.261,44.982,-138.488,30.212,1
1.664118,-0.217,0.05,-0.264,48.156,-135.864,33.02,1
1.67235,-0.111,0.059,-0.253,47.79,-130.371,37.231,1
1.679255,-0.04,0.069,-0.273,38.391,-125.793,40.527,1
1.687247,0.012,0.075,-0.302,14.831,-119.14,44.738,1
1.696645,0.012,0.09,-0.318,-12.39,-112.915,48.034,1
1.703224,0.02,0.116,-0.339,-40.1,-107.177,51.452,1
1.71248,0.036,0.142,-0.335,-65.246,-100.158,56.03,1
1.71921,0.069,0.185,-0.354,-77.331,-94.848,60.791,1
1.72724,0.13,0.233,-0.376,-79.956,-91.125,65.124,1
1.734029,0.172,0.279,-0.388,-74.462,-88.989,69.335,1
1.741606,0.188,0.319,-0.41,-67.81,-87.097,71.899,1
1.748154,0.18,0.355,-0.426,-59.997,-85.571,74.401,1
1.756441,0.178,0.384,-0.443,-51.025,-84.35,76.721,1
1.762883,0.198,0.395,-0.457,-41.931,-83.251,79.04,1
1.770076,0.227,0.384,-0.475,-39.672,-80.688,81.054,1
1.778136,0.234,0.375,-0.513,-48.034,-77.941,83.679,1
1.785102,0.251,0.389,-0.545,-59.631,-75.317,85.876,1
1.793233,0.288,0.409,-0.572,-73.364,-72.509,88.989,1
1.800182,0.315,0.443,-0.602,-83.618,-70.434,91.735,1
1.80737,0.291,0.477,-0.639,-88.928,-68.725,94.665,1
1.814358,0.279,0.51,-0.671,-86.914,-68.481,96.862,1
1.821418,0.294,0.528,-0.68,-75.5,-69.519,99.487,1
1.828687,0.327,0.523,-0.687,-59.753,-69.824,102.172,1
1.837094,0.348,0.528,-0.704,-51.269,-70.068,104.797,1
1.843961,0.333,0.527,-0.708,-52.001,-69.396,107.421,1
1.850967,0.315,0.544,-0.711,-57.556,-67.871,109.497,1
1.85864,0.281,0.573,-0.718,-65.063,-66.528,111.816,1
1.865117,0.258,0.605,-0.713,-68.481,-65.002,113.769,1
1.873958,0.252,0.641,-0.727,-68.603,-64.331,115.173,1
1.880668,0.244,0.669,-0.745,-67.687,-64.208,116.271,1
1.887474,0.222,0.695,-0.753,-67.382,-64.27,117.004,1
1.895619,0.187,0.708,-0.762,-66.406,-65.307,117.797,1
1.902234,0.154,0.705,-0.766,-64.941,-65.795,118.591,1
1.909958,0.131,0.691,-0.775,-66.528,-66.467,119.628,1
1.916858,0.104,0.694,-0.778,-67.932,-66.711,120.483,1
1.923999,0.062,0.695,-0.774,-68.42,-67.26,121.398,1
1.932341,0.028,0.706,-0.776,-67.199,-67.687,122.924,1
1.938949,0.001,0.718,-0.774,-64.147,-67.871,124.328,1
1.946458,0.008,0.729,-0.795,-62.072,-68.176,125.793,1
1.953663,0.018,0.731,-0.819,-62.255,-68.664,127.38,1
1.961404,0.038,0.731,-0.839,-67.382,-68.603,128.601,1
1.96828,0.065,0.757,-0.852,-74.035,-69.519,130.004,1
1.976625,0.101,0.789,-0.864,-76.538,-70.617,130.798,1
1.983314,0.152,0.822,-0.872,-76.171,-72.204,131.958,1
1.990843,0.173,0.833,-0.872,-78.125,-74.218,133.667,1
1.997827,0.187,0.84,-0.87,-82.336,-75.805,135.314,1
2.004802,0.179,0.85,-0.861,-84.838,-77.148,136.962,1
2.012836,0.162,0.847,-0.842,-84.777,-78.857,138.488,1
2.01972,0.139,0.844,-0.822,-81.726,-80.017,140.747,1
2.0278,0.109,0.832,-0.793,-75.378,-82.336,143.127,1
2.034901,0.107,0.826,-0.818,-74.768,-83.496,144.714,1
2.043402,0.04,0.849,-0.772,-79.162,-83.679,146.606,1
2.050432,0.002,0.845,-0.786,-84.96,-84.533,148.437,1
2.058776,-0.025,0.87,-0.783,-90.515,-85.083,149.597,1
2.06718,-0.028,0.91,-0.747,-88.195,-86.181,151.428,1
2.075506,0.0,0.925,-0.779,-84.533,-88.867,152.587,1
2.08253,-0.009,0.942,-0.755,-81.787,-91.308,153.32,1
2.090806,-0.041,0.952,-0.748,-83.129,-93.139,153.747,1
2.098666,-0.069,0.958,-0.72,-86.181,-95.275,154.602,1
2.106601,-0.084,0.969,-0.69,-86.425,-96.496,155.151,1
2.113746,-0.07,0.986,-0.676,-83.801,-97.9,155.517,1
2.122119,-0.089,1.0,-0.663,-80.566,-99.365,156.127,1
2.130995,-0.103,1.027,-0.642,-77.88,-100.341,155.822,1
2.139088,-0.124,1.06,-0.641,-74.096,-101.318,155.822,1
2.147131,-0.11,1.087,-0.625,-70.8,-102.539,155.151,1
2.153723,-0.124,1.116,-0.599,-65.917,-103.088,154.663,1
2.161708,-0.131,1.131,-0.587,-62.499,-104.064,153.564,1
2.170087,-0.125,1.144,-0.565,-58.837,-104.675,152.465,1
2.177047,-0.089,1.18,-0.548,-57.495,-105.163,151.428,1
2.185349,-0.113,1.207,-0.54,-55.725,-106.079,150.085,1
2.193872,-0.109,1.235,-0.532,-54.687,-107.238,147.888,1
2.202083,-0.123,1.25,-0.519,-55.297,-107.604,146.24,1
2.208701,-0.107,1.283,-0.524,-54.077,-108.886,144.287,1
2.217117,-0.126,1.303,-0.512,-48.278,-109.985,141.967,1
2.223773,-0.124,1.306,-0.525,-44.738,-110.9,139.465,1
2.232337,-0.134,1.314,-0.522,-47.851,-111.511,136.535,1
2.240832,-0.157,1.331,-0.516,-48.889,-111.511,132.568,1
2.249195,-0.167,1.34,-0.501,-47.241,-111.938,129.333,1
2.255722,-0.13,1.359,-0.498,-45.654,-111.999,126.159,1
2.2652,-0.117,1.382,-0.486,-39.123,-113.342,122.314,1
2.272161,-0.1,1.396,-0.47,-32.226,-114.196,119.445,1
2.280684,-0.102,1.429,-0.464,-22.583,-116.21,115.722,1
2.288977,-0.087,1.421,-0.445,-15.869,-117.492,111.511,1
2.297151,-0.07,1.414,-0.437,-14.343,-118.591,107.91,1
2.303973,-0.071,1.402,-0.422,-17.272,-118.896,103.637,1
2.312554,-0.051,1.39,-0.411,-22.644,-118.713,100.036,1
2.32101,-0.03,1.388,-0.403,-28.93,-118.286,96.74,1
2.329405,0.017,1.428,-0.385,-34.24,-116.882,92.773,1
2.33727,0.007,1.436,-0.366,-32.592,-117.614,89.111,1
2.345867,0.021,1.425,-0.351,-31.249,-116.638,84.96,1
2.352494,0.02,1.429,-0.338,-32.165,-116.638,81.237,1
2.360343,0.002,1.405,-0.315,-33.508,-115.905,77.636,1
2.368598,0.022,1.417,-0.296,-29.235,-115.295,73.608,1
2.377164,0.033,1.403,-0.277,-18.737,-114.624,68.664,1
2.38373,0.055,1.384,-0.291,-13.183,-114.257,65.063,1
2.392068,0.072,1.374,-0.293,-7.934,-113.769,61.523,1
2.40089,0.112,1.35,-0.303,-5.798,-112.609,57.983,1
2.40769,0.132,1.327,-0.307,-9.399,-111.083,54.87,1
2.4145,0.145,1.312,-0.316,-16.113,-108.947,52.185,1
2.421443,0.191,1.303,-0.322,-23.376,-106.689,49.621,1
2.429625,0.231,1.303,-0.323,-27.465,-104.98,47.79,1
2.436625,0.271,1.313,-0.323,-27.77,-103.21,46.447,1
2.443492,0.309,1.311,-0.332,-29.663,-101.684,44.982,1
2.45192,0.341,1.308,-0.337,-31.921,-99.67,43.701,1
2.459037,0.367,1.311,-0.345,-35.034,-97.717,42.358,1
2.466822,0.377,1.303,-0.35,-38.208,-95.703,40.954,1
2.47557,0.373,1.291,-0.356,-42.785,-93.566,39.367,1
2.483301,0.368,1.278,-0.349,-47.973,-91.308,37.475,1
2.490333,0.362,1.265,-0.349,-50.354,-89.233,35.766,1
2.498101,0.353,1.247,-0.343,-50.842,-87.585,33.63,1
2.507372,0.367,1.232,-0.345,-51.147,-86.059,31.677,1
2.514192,0.392,1.209,-0.347,-51.025,-84.594,29.052,1
2.522049,0.421,1.192,-0.344,-50.476,-83.129,26.672,1
2.530437,0.437,1.184,-0.34,-49.194,-82.458,24.169,1
2.538577,0.448,1.169,-0.339,-46.813,-81.848,21.667,1
2.54631,0.459,1.15,-0.332,-43.762,-81.359,19.165,1
2.553217,0.482,1.128,-0.32,-41.32,-81.42,16.723,1
2.561444,0.496,1.113,-0.316,-37.048,-81.237,14.892,1
2.569322,0.522,1.075,-0.326,-35.583,-82.092,13.183,1
2.577598,0.538,1.047,-0.31,-35.949,-81.726,11.779,1
2.586007,0.547,1.026,-0.318,-35.827,-82.275,10.375,1
2.592615,0.552,1.001,-0.321,-33.63,-82.275,9.521,1
2.601049,0.566,0.976,-0.311,-30.395,-83.068,9.094,1
2.607806,0.583,0.956,-0.32,-28.015,-83.557,8.972,1
2.616217,0.605,0.938,-0.321,-27.038,-84.472,8.789,1
2.624099,0.609,0.918,-0.33,-28.259,-85.021,8.483,1
2.63239,0.598,0.901,-0.313,-34.851,-85.571,8.666,1
2.63929,0.584,0.889,-0.322,-42.724,-86.303,8.728,1
2.647304,0.562,0.869,-0.316,-52.49,-86.791,9.033,1
2.655102,0.553,0.85,-0.32,-64.88,-87.097,8.972,1
2.662099,0.538,0.847,-0.316,-70.434,-87.707,9.887,1
2.670451,0.541,0.837,-0.334,-72.57,-90.148,10.314,1
2.678912,0.499,0.831,-0.33,-68.298,-91.003,10.925,1
2.686947,0.52,0.795,-0.353,-60.913,-93.688,11.84,1
2.694905,0.523,0.763,-0.36,-54.382,-95.642,12.451,1
2.703258,0.508,0.741,-0.371,-49.804,-97.839,13.0,1
2.709817,0.496,0.7,-0.372,-49.255,-99.731,14.221,1
2.718133,0.427,0.69,-0.367,-51.391,-101.135,14.831,1
2.726692,0.433,0.688,-0.344,-49.072,-101.867,15.502,1
2.733352,0.468,0.685,-0.345,-45.104,-103.027,16.296,1
2.740455,0.49,0.685,-0.33,-38.635,-104.675,16.845,1
2.74849,0.532,0.692,-0.321,-29.907,-107.116,17.517,1
2.756572,0.527,0.688,-0.313,-19.958,-109.008,17.578,1
2.763139,0.524,0.689,-0.309,-12.207,-111.083,17.883,1
2.770239,0.522,0.697,-0.292,-5.859,-112.121,17.883,1
2.77817,0.521,0.693,-0.283,-1.831,-113.708,17.517,1
2.785159,0.507,0.687,-0.255,0.0,-114.624,17.395,1
2.793738,0.486,0.703,-0.231,0.549,-114.501,17.272,1
2.800325,0.465,0.704,-0.218,0.183,-114.746,17.272,1
2.807315,0.438,0.711,-0.205,-1.77,-114.379,17.395,1
2.815846,0.448,0.737,-0.201,-7.507,-113.342,17.028,1
2.822391,0.447,0.774,-0.211,-17.639,-112.121,16.296,1
2.829572,0.419,0.814,-0.212,-30.273,-111.511,15.258,1
2.838195,0.423,0.86,-0.199,-41.564,-110.046,14.16,1
2.844795,0.396,0.892,-0.187,-50.598,-109.069,13.183,1
2.853188,0.372,0.957,-0.168,-57.312,-107.482,12.39,1
2.861039,0.445,1.016,-0.165,-47.058,-107.543,10.681,1
2.867497,0.437,1.064,-0.089,-29.907,-110.229,7.995,1
2.875812,0.508,1.069,-0.091,-6.347,-109.252,4.455,1
2.882354,0.528,1.071,-0.055,7.629,-111.206,0.732,1
2.890374,0.572,1.034,-0.017,13.549,-110.107,-2.502,1
2.897451,0.631,1.013,0.019,11.718,-109.313,-5.554,1
2.904491,0.63,0.994,0.061,7.385,-106.933,-7.873,1
2.912852,0.625,0.978,0.078,1.831,-104.003,-9.887,1
2.919469,0.591,0.966,0.087,-6.103,-101.257,-12.145,1
2.927859,0.562,0.952,0.109,-14.526,-98.754,-14.16,1
2.934672,0.508,0.941,0.104,-21.301,-95.52,-16.052,1
2.942914,0.518,0.929,0.088,-27.282,-92.895,-17.639,1
2.949537,0.508,0.915,0.075,-32.653,-91.247,-19.287,1
2.957941,0.488,0.899,0.071,-34.606,-90.026,-20.507,1
2.964906,0.515,0.874,0.057,-30.944,-87.707,-20.629,1
2.97194,0.517,0.871,0.059,-31.738,-88.378,-21.24,1
2.979358,0.495,0.892,0.035,-28.015,-87.646,-21.484,1
2.987663,0.499,0.887,0.042,-20.812,-87.28,-21.85,1
2.994587,0.484,0.888,0.042,-12.145,-87.402,-22.521,1
3.002993,0.485,0.877,0.044,-4.76,-87.036,-23.376,1
3.00955,0.49,0.858,0.058,-1.953,-87.646,-24.414,1
3.018048,0.489,0.831,0.059,-0.732,-86.303,-25.085,1
3.024611,0.49,0.8,0.07,-3.234,-85.327,-25.756,1
3.033029,0.483,0.774,0.068,-8.056,-84.106,-26.367,1
3.040065,0.484,0.742,0.064,-17.089,-82.458,-26.611,1
3.047786,0.484,0.725,0.07,-28.503,-80.505,-26.855,1
3.055774,0.49,0.725,0.077,-38.818,-79.162,-26.672,1
3.063425,0.514,0.722,0.094,-43.457,-77.941,-26.733,1
3.07155,0.511,0.714,0.09,-42.236,-77.331,-26.428,1
3.080017,0.549,0.703,0.116,-38.146,-76.965,-25.817,1
3.086706,0.581,0.697,0.129,-31.311,-77.514,-25.573,1
3.094704,0.605,0.679,0.141,-23.681,-77.209,-24.841,1
3.102935,0.62,0.663,0.147,-21.484,-76.416,-24.658,1
3.11062,0.658,0.643,0.136,-20.69,-74.646,-24.353,1
3.119141,0.651,0.624,0.153,-30.334,-74.157,-23.742,1
3.125757,0.672,0.611,0.16,-41.809,-71.472,-23.071,1
3.134075,0.684,0.607,0.17,-52.307,-69.763,-22.216,1
3.141756,0.686,0.611,0.182,-59.814,-67.443,-21.423,1
3.150047,0.696,0.611,0.176,-64.453,-65.917,-20.568,1
3.157898,0.689,0.621,0.171,-67.382,-64.697,-19.348,1
3.164763,0.674,0.638,0.169,-67.81,-64.208,-18.554,1
3.172821,0.664,0.651,0.175,-63.476,-63.964,-17.639,1
3.179851,0.672,0.662,0.184,-54.382,-63.781,-16.906,1
3.188298,0.688,0.677,0.195,-40.71,-64.392,-16.479,1
3.19654,0.689,0.688,0.202,-25.939,-65.063,-15.991,1
3.203781,0.686,0.687,0.214,-14.099,-65.185,-15.747,1
3.211709,0.684,0.675,0.228,-7.751,-64.453,-15.869,1
3.220154,0.685,0.664,0.237,-8.483,-63.11,-16.296,1
3.226753,0.692,0.65,0.242,-14.221,-60.852,-16.418,1
3.234738,0.702,0.652,0.24,-22.949,-58.166,-16.418,1
3.243186,0.697,0.661,0.235,-31.311,-55.847,-16.723,1
3.251612,0.712,0.668,0.228,-36.437,-54.077,-16.967,1
3.258398,0.729,0.681,0.205,-36.743,-52.246,-17.15,1
3.266917,0.73,0.682,0.183,-33.996,-51.513,-17.578,1
3.273931,0.742,0.675,0.162,-29.174,-51.147,-18.005,1
3.282373,0.755,0.666,0.145,-23.01,-51.269,-18.554,1
3.290824,0.77,0.648,0.138,-16.601,-51.818,-18.737,1
3.29779,0.77,0.635,0.148,-13.305,-52.307,-19.104,1
3.305777,0.751,0.615,0.167,-12.023,-52.551,-18.859,1
3.314142,0.723,0.593,0.174,-16.235,-51.696,-18.676,1
3.322148,0.647,0.542,0.163,-28.259,-50.476,-17.822,1
3.330148,0.724,0.539,0.17,-39.062,-49.316,-17.883,1
3.338489,0.723,0.527,0.182,-43.701,-47.973,-17.211,1
3.346867,0.725,0.515,0.167,-46.325,-46.752,-16.54,1
3.353537,0.729,0.505,0.153,-48.828,-46.203,-15.319,1
3.362102,0.767,0.504,0.137,-53.588,-45.227,-14.465,1
3.370514,0.79,0.49,0.115,-53.283,-46.813,-13.183,1
3.379035,0.808,0.481,0.125,-48.645,-46.63,-11.657,1
3.385528,0.784,0.487,0.123,-42.053,-47.546,-9.948,1
3.394026,0.723,0.495,0.15,-38.391,-46.63,-8.239,1
3.402523,0.758,0.527,0.161,-39.245,-42.724,-6.164,1
3.410843,0.783,0.595,0.112,-44.189,-41.625,-5.371,1
3.418704,0.824,0.666,0.125,-42.785,-40.283,-5.676,1
3.426736,0.823,0.71,0.096,-35.583,-40.466,-6.103,1
3.433324,0.827,0.712,0.062,-33.63,-40.588,-6.347,1
3.441779,0.819,0.712,0.01,-39.672,-41.076,-7.263,1
3.450183,0.821,0.732,0.005,-45.043,-41.748,-8.911,1
3.458135,0.821,0.737,0.014,-48.828,-42.297,-10.559,1
3.466425,0.832,0.727,0.041,-51.33,-42.602,-11.535,1
3.47434,0.84,0.724,0.06,-52.246,-42.48,-12.207,1
3.481119,0.85,0.725,0.073,-49.743,-42.785,-12.695,1
3.489827,0.844,0.712,0.082,-43.762,-43.029,-13.183,1
3.498266,0.833,0.689,0.078,-41.076,-43.212,-13.671,1
3.505286,0.812,0.655,0.063,-42.297,-43.212,-13.977,1
3.513628,0.788,0.634,0.05,-45.349,-43.334,-13.793,1
3.521608,0.786,0.618,0.045,-47.607,-43.334,-13.183,1
3.529468,0.814,0.607,0.036,-51.025,-43.457,-13.0,1
3.537906,0.837,0.61,0.034,-54.626,-43.701,-13.061,1
3.545884,0.846,0.607,0.022,-58.105,-44.128,-12.878,1
3.55381,0.89,0.623,0.074,-59.448,-44.128,-12.451,1
3.560478,0.926,0.622,0.059,-63.964,-44.128,-12.084,1
3.568972,0.924,0.63,0.088,-65.368,-44.128,-12.329,1
3.577145,0.918,0.633,0.088,-63.476,-44.372,-12.39,1
3.584296,0.929,0.632,0.11,-55.541,-44.799,-12.573,1
3.592477,0.934,0.651,0.122,-44.616,-45.837,-13.122,1
3.601875,0.929,0.659,0.141,-36.987,-46.264,-14.038,1
3.608501,0.931,0.672,0.151,-31.188,-46.691,-14.465,1
3.616989,0.93,0.673,0.158,-27.587,-46.142,-15.258,1
3.625394,0.914,0.676,0.158,-30.029,-45.288,-16.235,1
3.633156,0.903,0.681,0.157,-39.001,-44.189,-17.456,1
3.640169,0.911,0.686,0.145,-52.795,-42.541,-18.249,1
3.649607,0.919,0.709,0.153,-70.129,-40.893,-19.104,1
3.656085,0.915,0.753,0.145,-79.711,-39.55,-19.958,1
3.66455,0.904,0.784,0.148,-81.359,-39.978,-20.751,1
3.671534,0.902,0.812,0.144,-76.782,-39.916,-21.911,1
3.679956,0.9,0.843,0.132,-70.495,-40.588,-23.681,1
3.688282,0.882,0.869,0.112,-63.598,-41.198,-25.695,1
3.696592,0.874,0.889,0.106,-57.922,-42.175,-27.587,1
3.703186,0.872,0.901,0.093,-56.274,-42.053,-29.663,1
3.711432,0.861,0.921,0.077,-57.983,-42.297,-32.043,1
3.719748,0.844,0.942,0.071,-57.189,-42.602,-34.301,1
3.727595,0.829,0.958,0.056,-53.283,-43.334,-36.621,1
3.735622,0.812,0.949,0.036,-49.682,-44.311,-39.672,1
3.74403,0.8,0.937,0.024,-48.156,-45.654,-41.748,1
3.751991,0.784,0.922,0.03,-48.034,-46.325,-44.25,1
3.758538,0.761,0.913,0.022,-49.682,-47.058,-45.898,1
3.766859,0.739,0.899,0.02,-51.757,-48.217,-48.095,1
3.774012,0.726,0.879,0.023,-52.734,-49.377,-49.804,1
3.781941,0.72,0.868,0.019,-52.368,-50.598,-51.635,1
3.789898,0.715,0.862,0.014,-48.095,-52.49,-53.222,1
3.7983,0.705,0.841,0.001,-40.222,-54.748,-54.626,1
3.806234,0.703,0.808,-0.019,-31.799,-57.067,-55.908,1
3.814255,0.705,0.768,-0.048,-23.742,-59.753,-57.25,1
3.821411,0.688,0.742,-0.056,-17.517,-63.232,-58.288,1
3.829856,0.667,0.711,-0.063,-22.644,-64.88,-59.326,1
3.836975,0.654,0.683,-0.055,-38.024,-65.551,-59.997,1
3.845437,0.646,0.684,-0.038,-58.593,-66.04,-59.875,1
3.852508,0.664,0.709,0.001,-74.584,-66.772,-60.058,1
3.860931,0.668,0.731,0.021,-77.514,-67.749,-60.18,1
3.86938,0.673,0.743,0.042,-74.401,-70.373,-60.363,1
3.877372,0.647,0.729,0.061,-68.359,-72.937,-61.096,1
3.885413,0.64,0.719,0.091,-59.387,-74.829,-61.401,1
3.893593,0.651,0.715,0.099,-50.659,-76.293,-62.072,1
3.900153,0.653,0.707,0.117,-45.227,-77.331,-62.805,1
3.908594,0.657,0.698,0.118,-49.499,-77.148,-64.025,1
3.915427,0.675,0.711,0.122,-57.128,-77.514,-65.429,1
3.923697,0.685,0.709,0.15,-63.049,-78.063,-66.955,1
3.930629,0.715,0.684,0.177,-68.664,-78.613,-68.542,1
3.938528,0.758,0.66,0.217,-73.242,-78.247,-68.664,1
3.946955,0.799,0.661,0.255,-79.833,-77.758,-69.03,1
3.955406,0.819,0.665,0.294,-84.411,-77.148,-69.335,1
3.962066,0.83,0.666,0.31,-89.294,-76.293,-69.641,1
3.96993,0.828,0.681,0.335,-88.989,-75.927,-69.824,1
3.978184,0.827,0.666,0.332,-80.993,-75.195,-69.885,1
3.986499,0.858,0.658,0.302,-74.707,-78.125,-70.739,1
3.99454,0.817,0.662,0.342,-64.27,-76.721,-71.411,1
4.002324,0.824,0.668,0.295,-61.95,-78.979,-72.387,1
4.010297,0.804,0.682,0.341,-57.861,-77.819,-74.035,1
4.017348,0.782,0.69,0.316,-58.288,-79.345,-76.049,1
4.02601,0.791,0.718,0.366,-52.612,-78.613,-77.941,1
4.034552,0.777,0.716,0.368,-51.33,-79.467,-80.2,1
4.041383,0.766,0.72,0.413,-55.847,-77.758,-82.275,1
4.049898,0.769,0.72,0.424,-64.941,-77.087,-83.862,1
4.057906,0.769,0.724,0.454,-73.791,-75.5,-85.327,1
4.064434,0.764,0.73,0.465,-79.528,-74.584,-86.853,1
4.072879,0.756,0.727,0.499,-79.04,-74.096,-88.012,1
4.08129,0.75,0.717,0.5,-75.5,-72.937,-89.355,1
4.088118,0.729,0.71,0.5,-71.899,-72.692,-90.576,1
4.096158,0.717,0.704,0.491,-66.345,-72.57,-92.224,1
4.104127,0.716,0.686,0.495,-60.424,-73.425,-93.627,1
4.11194,0.718,0.662,0.498,-54.504,-72.875,-94.604,1
4.118995,0.696,0.645,0.486,-50.964,-73.486,-96.191,1
4.1274,0.668,0.615,0.477,-49.072,-73.486,-97.167,1
4.135733,0.665,0.576,0.466,-48.645,-74.035,-97.473,1
4.143784,0.661,0.551,0.486,-47.79,-74.401,-97.473,1
4.150798,0.641,0.559,0.503,-42.602,-74.401,-96.923,1
4.159201,0.608,0.563,0.519,-32.897,-75.073,-96.557,1
4.166248,0.601,0.553,0.545,-20.324,-75.683,-95.886,1
4.174546,0.604,0.556,0.585,-5.371,-76.416,-94.726,1
4.183066,0.604,0.567,0.632,13.061,-77.148,-92.895,1
4.189557,0.6,0.588,0.684,35.522,-78.002,-91.552,1
4.197934,0.616,0.589,0.755,59.814,-78.552,-89.904,1
4.206268,0.627,0.552,0.798,78.918,-78.552,-88.623,1
4.214184,0.649,0.509,0.883,87.402,-76.477,-86.975,1
4.220871,0.673,0.444,0.933,77.27,-74.34,-85.876,1
4.228868,0.749,0.413,1.009,65.307,-70.251,-84.472,1
4.235457,0.828,0.37,1.039,52.917,-66.65,-83.007,1
4.242392,0.855,0.328,1.083,39.062,-62.805,-82.092,1
4.250334,0.834,0.321,1.08,18.676,-58.715,-80.871,1
4.256885,0.766,0.341,1.095,-0.854,-55.541,-79.833,1
4.26547,0.764,0.333,1.082,-13.671,-52.185,-78.979,1
4.2722,0.759,0.328,1.069,-20.324,-50.415,-78.369,1
4.27913,0.754,0.342,1.04,-21.118,-47.851,-78.125,1
4.286671,0.708,0.382,0.992,-15.075,-46.386,-78.247,1
4.295101,0.633,0.422,0.94,-6.652,-44.616,-79.406,1
4.301842,0.56,0.477,0.859,-2.624,-43.151,-81.237,1
4.308765,0.48,0.535,0.774,-3.051,-41.32,-83.862,1
4.317095,0.433,0.593,0.683,-3.967,-40.466,-87.036,1
4.323721,0.391,0.649,0.597,-1.22,-40.527,-91.552,1
4.331738,0.379,0.675,0.525,2.563,-41.381,-96.984,1
4.338364,0.343,0.702,0.468,5.004,-41.931,-102.966,1
4.346304,0.274,0.717,0.399,3.662,-42.968,-109.985,1
4.353073,0.208,0.737,0.345,4.394,-44.189,-117.309,1
4.359952,0.177,0.758,0.281,9.216,-46.081,-123.168,1
4.36693,0.145,0.749,0.197,16.418,-49.377,-130.92,1
4.375387,0.139,0.696,0.125,20.935,-52.673,-138.916,1
4.382163,0.153,0.617,0.06,21.484,-55.847,-145.08,1
4.389013,0.134,0.534,0.009,14.282,-59.204,-152.526,1
4.396202,0.089,0.422,-0.049,0.793,-62.744,-158.813,1
4.403197,0.0,0.304,-0.096,-13.732,-66.772,-164.306,1
4.411088,-0.106,0.182,-0.152,-22.583,-70.922,-167.968,1
4.419111,-0.242,0.025,-0.227,-30.822,-76.721,-171.813,1
4.425867,-0.344,-0.114,-0.291,-38.818,-83.618,-174.865,1
4.434413,-0.445,-0.328,-0.357,-47.058,-90.332,-176.147,1
4.442774,-0.551,-0.57,-0.46,-58.959,-98.266,-174.56,1
4.450731,-0.713,-0.748,-0.544,-82.458,-108.154,-169.982,1
4.458946,-1.033,-0.941,-0.593,-115.417,-119.628,-163.513,1
4.467246,-1.127,-1.202,-0.628,-151.0,-129.272,-153.137,1
4.473902,-1.243,-1.42,-0.694,-201.599,-143.859,-136.23,1
4.481884,-1.654,-1.649,-0.69,-248.718,-158.081,-118.225,1
4.490382,-1.855,-1.96,-0.575,-262.329,-178.039,-91.552,1
4.498753,-1.98,-2.234,-0.472,-225.891,-198.181,-63.476,1
4.50728,-2.045,-2.447,-0.366,-168.579,-218.444,-31.86,1
4.515654,-2.393,-2.8,-0.251,-114.99,-242.858,8.85,1
4.523838,-2.628,-3.063,-0.066,-74.157,-258.178,46.569,1
4.532257,-3.005,-3.314,0.121,-24.047,-275.268,92.285,1
4.538871,-3.545,-3.525,0.281,9.094,-286.743,140.136,1
4.546802,-4.146,-3.628,0.411,19.653,-293.396,182.983,1
4.5552,-4.807,-3.765,0.503,-10.131,-295.837,228.698,1
4.563578,-5.473,-3.829,0.675,-75.317,-291.503,278.747,1
4.571892,-6.339,-3.658,0.962,-135.742,-281.188,342.651,1
4.580209,-7.22,-3.453,1.217,-172.546,-266.54,399.719,1
4.587882,-8.435,-3.105,1.52,-226.867,-243.469,459.655,1
4.595799,-8.918,-3.247,1.688,-323.486,-213.378,529.48,1
4.603858,-10.201,-3.18,2.866,-408.203,-153.198,596.313,1
4.612327,-10.827,-3.119,3.056,-385.62,-80.81,676.94,1
4.620411,-12.156,-3.025,3.953,-337.768,-12.817,741.821,1
4.626779,-13.396,-2.884,4.432,-292.846,63.537,806.579,1
4.633801,-15.122,-2.556,5.118,-238.342,143.066,867.98,1
4.641513,-15.999,-2.236,5.554,-212.646,238.586,927.673,1
4.648601,-15.999,-1.73,5.848,-237.365,345.458,981.994,1
4.656533,-15.999,-1.036,5.918,-276.733,469.238,1030.273,1
4.663486,-15.999,-0.114,5.723,-303.344,581.909,1063.842,1
4.672546,-15.999,1.046,5.101,-331.97,725.585,1093.261,1
4.680456,-15.999,2.465,4.156,-341.43,867.858,1105.529,1
4.688111,-15.999,3.811,2.995,-327.331,1020.873,1100.28,1
4.694702,-15.999,4.993,1.833,-323.242,1145.202,1082.946,1
4.702571,-15.999,6.128,0.596,-341.613,1255.065,1053.405,1
4.70925,-15.999,7.235,-0.412,-347.29,1338.073,1017.211,1
4.717326,-15.999,7.477,-1.13,-421.02,1430.908,960.998,1
4.723824,-15.999,7.733,-2.285,-506.103,1539.489,885.62,1
4.730979,-15.999,7.918,-3.658,-555.48,1607.421,786.376,1
4.739361,-15.999,8.255,-3.649,-548.584,1675.17,670.593,1
4.746308,-15.999,7.593,-4.658,-552.734,1720.397,576.11,1
4.754152,-15.999,7.689,-5.336,-601.074,1765.747,448.73,1
4.760943,-15.999,8.071,-6.448,-609.069,1767.15,298.889,1
4.767954,-15.999,7.628,-7.564,-614.929,1739.501,146.728,1
4.774989,-15.999,6.428,-8.477,-665.466,1687.683,-8.789,1
4.782899,-15.999,5.254,-9.39,-761.779,1644.592,-143.371,1
4.790897,-15.999,4.173,-9.923,-891.357,1548.522,-318.969,1
4.797409,-15.999,2.446,-9.729,-956.848,1428.405,-489.562,1
4.80539,-15.999,1.191,-9.199,-889.648,1274.78,-625.305,1
4.812384,-15.999,-0.124,-8.178,-703.43,1109.741,-710.632,1
4.820781,-15.999,-1.159,-7.369,-461.181,960.815,-744.934,1
4.827542,-15.999,-2.062,-6.908,-215.454,835.266,-739.807,1
4.834902,-15.999,-2.749,-6.817,-36.804,742.126,-705.566,1
4.84281,-15.999,-3.092,-6.787,41.259,670.776,-659.423,1
4.849816,-15.879,-3.352,-6.721,36.01,615.112,-610.778,1
4.858308,-13.394,-3.479,-6.669,-33.081,563.842,-566.284,1
4.865151,-10.982,-3.348,-6.485,-89.843,514.648,-535.095,1
4.873885,-8.9,-3.249,-6.086,-124.755,449.951,-503.234,1
4.881067,-7.215,-3.211,-5.726,-153.076,380.065,-468.994,1
4.887795,-6.059,-3.115,-5.369,-185.241,331.97,-446.594,1
4.894813,-5.4,-3.061,-5.023,-242.248,282.348,-421.508,1
4.903227,-4.946,-2.944,-4.718,-304.626,234.436,-397.216,1
4.909932,-4.572,-2.855,-4.39,-343.627,189.453,-372.863,1
4.918584,-4.127,-2.722,-4.017,-355.468,145.568,-347.045,1
4.926626,-3.751,-2.643,-3.742,-339.843,104.98,-319.458,1
4.934789,-3.317,-2.494,-3.479,-290.1,59.57,-285.278,1
4.94276,-3.051,-2.324,-3.311,-236.572,22.644,-255.859,1
4.950707,-2.833,-2.086,-3.091,-192.565,-10.07,-227.172,1
4.957815,-2.482,-1.736,-2.81,-152.221,-41.809,-196.899,1
4.966275,-2.174,-1.469,-2.566,-132.751,-64.514,-173.767,1
4.97467,-1.936,-1.182,-2.296,-131.408,-86.303,-149.108,1
4.982591,-1.838,-0.945,-2.083,-139.77,-101.745,-129.821,1
4.991014,-1.8,-0.676,-1.862,-145.69,-118.591,-109.558,1
4.999025,-1.807,-0.504,-1.679,-142.456,-131.469,-93.627,1
5.00761,-1.805,-0.349,-1.472,-130.31,-143.005,-79.406,1
5.015907,-1.779,-0.231,-1.291,-103.332,-154.785,-64.453,1
5.023892,-1.712,-0.126,-1.144,-76.232,-162.475,-53.649,1
5.032558,-1.644,-0.053,-1.023,-49.743,-169.86,-43.212,1
5.039671,-1.53,0.0,-0.907,-35.888,-173.767,-34.545,1
5.048122,-1.431,0.028,-0.817,-38.085,-174.926,-28.198,1
5.056961,-1.251,0.073,-0.708,-43.945,-174.56,-21.667,1
5.064441,-1.136,0.109,-0.648,-52.307,-173.278,-14.343,1
5.072938,-1.061,0.118,-0.589,-62.805,-170.898,-8.483,1
5.08231,-1.013,0.121,-0.543,-74.34,-168.273,-1.037,1
5.089358,-0.94,0.148,-0.48,-75.378,-165.344,5.981,1
5.097385,-0.908,0.169,-0.428,-66.772,-162.353,11.474,1
5.105752,-0.865,0.169,-0.381,-56.213,-159.79,16.601,1
5.115425,-0.825,0.16,-0.335,-46.02,-155.456,22.155,1
5.122064,-0.744,0.142,-0.298,-39.306,-151.428,26.977,1
5.1299,-0.637,0.13,-0.254,-35.095,-147.155,31.677,1
5.138209,-0.551,0.113,-0.218,-36.315,-140.502,37.048,1
5.146178,-0.439,0.095,-0.195,-39.672,-133.972,42.114,1
5.153032,-0.363,0.079,-0.193,-44.86,-127.319,47.241,1
5.16119,-0.356,0.107,-0.198,-43.762,-120.788,52.368,1
5.169072,-0.257,0.068,-0.245,-52.246,-113.586,57.434,1
5.178539,-0.247,0.04,-0.262,-66.833,-106.201,62.927,1
5.186632,-0.192,0.034,-0.307,-83.618,-98.51,69.946,1
5.194666,-0.144,0.038,-0.335,-92.956,-92.346,76.049,1
5.202977,-0.13,0.044,-0.357,-98.205,-85.998,82.702,1
5.210899,-0.13,0.051,-0.375,-99.243,-81.054,88.073,1
5.219341,-0.111,0.051,-0.395,-102.539,-76.049,93.749,1
5.227603,-0.083,0.057,-0.416,-105.59,-71.96,99.487,1
5.235597,-0.038,0.078,-0.435,-102.233,-68.725,105.957,1
5.24361,-0.002,0.09,-0.448,-92.407,-66.833,111.206,1
5.251607,0.011,0.089,-0.476,-81.298,-65.124,116.271,1
5.25915,0.035,0.076,-0.505,-74.951,-62.744,122.192,1
5.267602,0.052,0.089,-0.547,-76.782,-60.058,127.258,1
5.274367,0.044,0.115,-0.589,-81.726,-57.678,131.774,1
5.282411,0.077,0.125,-0.622,-87.463,-55.236,136.474,1
5.289461,0.056,0.145,-0.662,-94.665,-53.283,140.808,1
5.297695,0.027,0.18,-0.674,-99.67,-50.964,145.874,1
5.305686,-0.008,0.216,-0.683,-98.999,-49.682,150.146,1
5.313613,-0.007,0.244,-0.681,-90.881,-49.743,154.296,1
5.322083,0.003,0.268,-0.671,-75.5,-49.865,158.386,1
5.32996,0.038,0.275,-0.699,-60.119,-49.56,163.574,1
5.338444,0.041,0.281,-0.735,-57.006,-48.767,168.151,1
5.345215,0.015,0.306,-0.787,-63.964,-47.18,172.668,1
5.353687,-0.028,0.345,-0.847,-85.205,-45.043,177.917,1
5.36164,-0.101,0.409,-0.876,-102.111,-43.09,182.8,1
5.369958,-0.157,0.505,-0.913,-106.323,-43.212,187.011,1
5.378294,-0.187,0.573,-0.922,-91.491,-46.508,191.955,1
5.386171,-0.219,0.589,-0.924,-71.044,-50.72,195.617,1
5.393129,-0.185,0.636,-0.923,-48.095,-53.71,199.829,1
5.401877,-0.141,0.701,-0.992,-26.428,-58.532,203.735,1
5.408892,-0.151,0.758,-1.035,-11.84,-64.086,207.458,1
5.417205,-0.2,0.804,-1.096,-15.991,-66.711,209.594,1
5.425929,-0.305,0.859,-1.176,-38.696,-68.42,210.754,1
5.43414,-0.369,0.922,-1.196,-67.077,-69.58,211.181,1
5.442365,-0.397,0.972,-1.191,-87.646,-71.777,211.425,1
5.448863,-0.419,0.991,-1.157,-90.393,-74.646,211.73,1
5.457866,-0.423,0.994,-1.126,-83.923,-78.552,212.585,1
5.465773,-0.428,1.008,-1.122,-73.059,-83.862,213.5,1
5.473849,-0.473,1.03,-1.121,-65.368,-88.684,214.477,1
5.480558,-0.539,1.035,-1.122,-60.302,-93.444,214.477,1
5.489074,-0.624,1.029,-1.108,-60.241,-98.388,213.867,1
5.497186,-0.667,1.035,-1.092,-62.866,-101.257,213.195,1
5.503967,-0.676,1.052,-1.076,-65.979,-104.125,211.853,1
5.512453,-0.674,1.065,-1.051,-65.551,-107.238,210.754,1
5.520991,-0.659,1.087,-1.016,-60.058,-110.717,209.472,1
5.528905,-0.625,1.128,-1.008,-48.339,-115.173,208.068,1
5.536916,-0.657,1.162,-1.004,-47.119,-119.689,206.115,1
5.544839,-0.703,1.206,-1.004,-51.391,-122.924,203.735,1
5.552673,-0.729,1.253,-1.0,-57.495,-126.647,200.744,1
5.559389,-0.756,1.293,-0.958,-60.852,-128.967,198.12,1
5.567355,-0.762,1.347,-0.928,-58.227,-131.958,195.312,1
5.574216,-0.71,1.41,-0.877,-44.86,-135.498,192.321,1
5.5827,-0.68,1.451,-0.827,-26.123,-139.831,188.598,1
5.589312,-0.664,1.464,-0.788,-10.986,-143.554,184.692,1
5.597215,-0.638,1.479,-0.748,-4.76,-145.874,180.725,1
5.604341,-0.622,1.508,-0.704,-3.784,-148.376,176.391,1
5.612768,-0.628,1.544,-0.651,-8.728,-149.597,171.874,1
5.620986,-0.635,1.553,-0.611,-18.92,-150.024,168.151,1
5.627468,-0.579,1.579,-0.578,-34.057,-150.085,163.757,1
5.636048,-0.573,1.632,-0.529,-44.494,-149.597,160.4,1
5.642876,-0.535,1.691,-0.498,-45.959,-149.78,156.799,1
5.64986,-0.504,1.715,-0.461,-41.381,-150.329,152.771,1
5.658297,-0.466,1.711,-0.428,-38.452,-150.39,149.597,1
5.665034,-0.425,1.741,-0.396,-35.522,-149.719,145.263,1
5.673591,-0.384,1.771,-0.375,-35.644,-148.986,141.174,1
5.681763,-0.324,1.8,-0.353,-32.287,-148.132,135.742,1
5.690162,-0.307,1.825,-0.326,-33.996,-146.911,128.723,1
5.698296,-0.261,1.857,-0.293,-38.818,-145.568,123.229,1
5.705121,-0.205,1.866,-0.262,-35.461,-145.385,116.699,1
5.71419,-0.135,1.894,-0.227,-27.16,-144.287,110.351,1
5.720827,-0.109,1.87,-0.235,-22.094,-143.798,104.125,1
5.729201,-0.069,1.812,-0.235,-33.63,-140.93,97.045,1
5.737753,0.018,1.779,-0.247,-46.142,-138.244,91.247,1
5.744671,0.088,1.742,-0.234,-52.673,-135.986,86.181,1
5.753202,0.165,1.696,-0.231,-54.504,-133.361,81.604,1
5.761454,0.218,1.66,-0.231,-53.283,-131.408,77.209,1
5.768013,0.276,1.618,-0.223,-47.241,-130.065,73.608,1
5.776414,0.323,1.563,-0.232,-40.466,-129.333,69.946,1
5.783387,0.354,1.494,-0.245,-33.63,-128.784,66.589,1
5.791817,0.394,1.436,-0.259,-28.93,-127.99,63.842,1
5.798853,0.423,1.39,-0.262,-25.329,-127.868,61.218,1
5.806752,0.465,1.347,-0.275,-17.211,-127.319,59.143,1
5.815162,0.47,1.281,-0.281,-14.77,-128.112,56.64,1
5.823703,0.448,1.222,-0.291,-17.761,-125.915,54.504,1
5.831622,0.43,1.185,-0.312,-29.785,-124.999,52.246,1
5.839562,0.404,1.158,-0.301,-47.119,-122.497,50.537,1
5.846815,0.454,1.15,-0.299,-53.039,-121.032,49.133,1
5.855306,0.47,1.15,-0.286,-51.635,-121.704,48.156,1
5.862418,0.471,1.15,-0.262,-41.809,-121.643,47.302,1
5.870782,0.485,1.139,-0.249,-33.142,-123.168,46.264,1
5.879244,0.481,1.114,-0.233,-28.32,-123.474,45.654,1
5.887144,0.484,1.109,-0.231,-28.625,-123.046,44.799,1
5.893717,0.471,1.11,-0.245,-31.616,-123.046,43.823,1
5.902124,0.477,1.125,-0.254,-34.79,-122.68,42.846,1
5.910136,0.472,1.133,-0.252,-36.743,-122.741,41.381,1
5.918688,0.457,1.135,-0.242,-34.24,-123.046,39.794,1
5.926649,0.446,1.126,-0.231,-28.015,-123.352,38.146,1
5.933221,0.429,1.109,-0.213,-18.371,-123.535,35.766,1
5.941223,0.441,1.099,-0.199,-11.962,-123.718,34.301,1
5.949283,0.455,1.096,-0.193,-2.807,-124.45,32.714,1
5.95727,0.433,1.104,-0.161,-0.915,-124.694,31.066,1
5.9642,0.432,1.127,-0.143,-0.183,-124.816,29.235,1
5.97266,0.43,1.152,-0.125,3.234,-125.183,27.465,1
5.979559,0.408,1.159,-0.121,7.69,-126.281,25.268,1
5.988009,0.362,1.138,-0.12,8.85,-127.014,22.949,1
5.995797,0.352,1.103,-0.11,5.187,-126.77,20.385,1
6.003884,0.342,1.059,-0.099,-1.22,-126.708,17.7,1
6.010483,0.315,0.994,-0.072,-7.69,-125.976,15.014,1
6.018432,0.297,0.931,-0.046,-12.39,-125.183,13.122,1
6.02676,0.287,0.85,-0.023,-17.089,-124.389,11.84,1
6.035187,0.299,0.807,0.001,-19.592,-123.168,10.375,1
6.041723,0.299,0.752,0.013,-18.127,-122.07,9.216,1
6.050108,0.302,0.722,0.051,-18.859,-121.215,8.789,1
6.058157,0.318,0.714,0.071,-18.981,-120.788,8.789,1
6.066785,0.32,0.697,0.111,-14.038,-119.567,8.972,1
6.074836,0.319,0.693,0.134,-7.995,-117.736,9.46,1
6.081475,0.354,0.686,0.166,-2.502,-116.149,10.07,1
6.08936,0.374,0.653,0.166,-0.244,-113.281,11.352,1
6.097825,0.395,0.647,0.171,-2.014,-110.778,13.0,1
6.104392,0.401,0.638,0.168,-4.699,-107.91,15.136,1
6.112287,0.416,0.655,0.156,-10.559,-104.797,17.028,1
6.120808,0.415,0.688,0.149,-14.587,-101.928,19.042,1
6.128791,0.414,0.704,0.133,-18.737,-98.571,19.836,1
6.13692,0.375,0.727,0.135,-25.207,-96.069,20.935,1
6.143494,0.428,0.788,0.111,-25.39,-91.491,20.324,1
6.15191,0.407,0.833,0.107,-16.052,-90.881,20.324,1
6.159828,0.412,0.852,0.083,-5.676,-88.195,19.897,1
6.166535,0.433,0.878,0.052,-1.159,-87.585,19.287,1
6.175052,0.399,0.899,0.015,-1.586,-85.693,18.981,1
6.181593,0.397,0.943,-0.04,-11.291,-84.35,18.005,1
6.189906,0.348,0.982,-0.094,-26.489,-82.702,16.906,1
6.197971,0.357,1.044,-0.137,-42.175,-82.092,15.93,1
6.20602,0.285,1.114,-0.178,-50.903,-81.726,15.136,1
6.212824,0.286,1.188,-0.189,-39.489,-83.923,12.878,1
6.22114,0.304,1.235,-0.201,-17.578,-86.608,10.498,1
6.229043,0.337,1.247,-0.211,5.859,-90.209,7.934,1
6.236711,0.395,1.232,-0.199,25.085,-92.773,5.126,1
6.244567,0.376,1.21,-0.205,31.799,-93.811,2.014,1
6.251076,0.401,1.198,-0.201,26.062,-94.055,-1.708,1
6.259451,0.401,1.204,-0.198,16.601,-93.139,-5.187,1
6.266036,0.407,1.215,-0.19,8.605,-92.651,-8.85,1
6.273238,0.437,1.213,-0.162,5.676,-92.285,-12.451,1
6.281713,0.492,1.197,-0.145,4.455,-91.613,-16.113,1
6.288377,0.544,1.177,-0.127,2.075,-90.881,-19.104,1
6.295257,0.564,1.165,-0.115,-4.333,-89.66,-22.033,1
6.302847,0.594,1.161,-0.092,-13.366,-88.195,-24.841,1
6.310765,0.609,1.167,-0.066,-19.165,-86.853,-27.404,1
6.318557,0.601,1.162,-0.047,-23.254,-85.754,-29.724,1
6.325496,0.584,1.15,-0.028,-26.916,-84.472,-32.104,1
6.333805,0.574,1.137,-0.017,-29.541,-83.801,-33.935,1
6.340873,0.553,1.115,-0.01,-32.226,-83.007,-35.522,1
6.348628,0.53,1.089,0.005,-36.315,-82.458,-37.17,1
6.355349,0.5,1.064,0.022,-40.649,-81.176,-38.33,1
6.362378,0.506,1.036,0.041,-43.334,-80.383,-39.306,1
6.370338,0.489,1.011,0.047,-47.668,-78.796,-39.978,1
6.377987,0.497,1.015,0.035,-52.551,-78.308,-40.527,1
6.384935,0.5,1.027,0.054,-52.551,-78.063,-40.588,1
6.393054,0.5,1.01,0.05,-49.865,-78.186,-40.649,1
6.399803,0.483,0.986,0.061,-49.682,-78.796,-41.137,1
6.40821,0.509,0.97,0.084,-48.095,-78.796,-41.015,1
6.414963,0.558,0.948,0.102,-43.273,-79.101,-41.076,1
6.42149,0.588,0.918,0.132,-37.963,-78.857,-41.198,1
6.429933,0.633,0.894,0.145,-32.958,-78.613,-40.954,1
6.436506,0.646,0.862,0.168,-30.273,-77.27,-40.466,1
6.444971,0.636,0.833,0.159,-33.508,-75.317,-40.283,1
6.45162,0.612,0.807,0.16,-41.809,-73.059,-40.039,1
6.459625,0.599,0.809,0.142,-49.011,-70.19,-40.161,1
6.466239,0.585,0.817,0.129,-55.725,-68.603,-40.222,1
6.473327,0.6,0.822,0.117,-57.434,-67.016,-40.649,1
6.480442,0.666,0.836,0.102,-57.861,-65.673,-40.954,1
6.488864,0.627,0.831,0.099,-59.997,-64.27,-41.992,1
6.495784,0.606,0.819,0.119,-63.537,-62.866,-42.846,1
6.502706,0.617,0.806,0.147,-65.063,-59.875,-44.006,1
6.51073,0.643,0.802,0.14,-68.908,-57.495,-44.494,1
6.517541,0.628,0.79,0.175,-73.73,-56.152,-44.799,1
6.525522,0.613,0.786,0.193,-75.134,-53.71,-44.799,1
6.532202,0.606,0.765,0.204,-76.477,-53.039,-45.166,1
6.540659,0.597,0.737,0.219,-79.833,-50.964,-44.738,1
6.547636,0.56,0.724,0.213,-85.266,-49.987,-44.006,1
6.554587,0.509,0.647,0.219,-94.848,-48.217,-42.297,1
6.561661,0.632,0.722,0.25,-103.454,-43.395,-41.076,1
6.570168,0.532,0.748,0.203,-94.299,-46.874,-40.893,1
6.577846,0.599,0.756,0.243,-74.279,-43.64,-39.245,1
6.584591,0.615,0.74,0.158,-62.316,-46.142,-38.696,1
6.592498,0.621,0.717,0.181,-56.396,-44.006,-37.536,1
6.600087,0.646,0.694,0.125,-59.631,-43.457,-36.926,1
6.607088,0.628,0.687,0.12,-67.26,-41.625,-36.926,1
6.614983,0.633,0.691,0.09,-73.974,-40.039,-36.56,1
6.621868,0.619,0.711,0.068,-81.176,-39.123,-36.621,1
6.630126,0.62,0.734,0.038,-85.083,-37.841,-36.56,1
6.636723,0.613,0.76,0.009,-85.937,-37.536,-36.743,1
6.645111,0.614,0.783,-0.009,-82.153,-37.902,-37.231,1
6.653089,0.637,0.818,-0.022,-69.702,-39.184,-37.414,1
6.661575,0.651,0.841,-0.046,-56.762,-40.649,-37.17,1
6.669604,0.637,0.823,-0.081,-48.522,-42.663,-37.231,1
6.67799,0.631,0.82,-0.087,-51.574,-43.945,-36.804,1
6.686124,0.646,0.848,-0.101,-57.617,-45.166,-36.865,1
6.694128,0.642,0.881,-0.087,-59.204,-46.997,-36.987,1
6.702068,0.635,0.904,-0.074,-53.527,-49.499,-37.292,1
6.710154,0.617,0.906,-0.084,-48.095,-51.635,-38.452,1
6.716801,0.595,0.893,-0.08,-45.593,-53.649,-40.039,1
6.726585,0.623,0.889,-0.074,-43.09,-54.809,-41.809,1
6.734615,0.658,0.858,-0.048,-38.146,-56.518,-44.128,1
6.742722,0.679,0.824,-0.025,-37.963,-56.64,-46.081,1
6.750544,0.666,0.81,-0.023,-41.748,-56.091,-48.034,1
6.757441,0.651,0.806,-0.002,-44.128,-56.64,-49.987,1
6.765872,0.647,0.793,0.04,-39.428,-57.189,-52.246,1
6.773046,0.646,0.765,0.067,-31.616,-58.105,-53.771,1
6.781577,0.648,0.747,0.095,-24.78,-58.715,-54.992,1
6.78871,0.646,0.727,0.123,-19.958,-59.265,-56.03,1
6.796863,0.644,0.675,0.151,-20.385,-59.082,-57.128,1
6.805501,0.649,0.633,0.174,-25.512,-58.166,-58.044,1
6.812135,0.676,0.604,0.212,-27.465,-58.044,-58.593,1
6.82007,0.698,0.572,0.232,-24.108,-57.312,-58.837,1
6.828391,0.714,0.529,0.261,-18.127,-57.25,-58.776,1
6.836249,0.737,0.475,0.297,-11.84,-56.457,-58.715,1
6.844718,0.763,0.435,0.33,-1.953,-55.236,-58.349,1
6.852598,0.79,0.395,0.362,5.065,-53.161,-57.922,1
6.859503,0.83,0.353,0.408,7.812,-51.025,-57.373,1
6.867954,0.838,0.332,0.462,4.882,-47.241,-56.518,1
6.875938,0.869,0.323,0.49,-1.525,-43.518,-55.725,1
6.882968,0.909,0.315,0.567,-5.859,-38.513,-54.565,1
6.891298,0.957,0.293,0.629,-6.652,-34.179,-52.978,1
6.89923,0.976,0.291,0.681,-9.582,-28.869,-51.025,1
6.906207,0.983,0.258,0.717,-16.113,-22.583,-48.767,1
6.91441,0.962,0.27,0.758,-21.179,-16.662,-46.752,1
6.92137,1.004,0.264,0.762,-25.39,-10.864,-44.372,1
6.929785,1.001,0.223,0.76,-34.484,-4.089,-42.236,1
6.937701,0.986,0.218,0.723,-54.809,3.601,-39.489,1
6.94559,0.98,0.248,0.688,-69.58,9.948,-38.146,1
6.953704,1.009,0.318,0.635,-73.242,13.732,-37.109,1
6.961779,0.963,0.317,0.586,-69.091,17.761,-36.315,1
6.969728,1.007,0.319,0.502,-72.875,20.996,-35.095,1
6.976646,0.992,0.31,0.428,-78.979,24.353,-33.752,1
6.984582,0.972,0.358,0.352,-86.486,26.55,-33.325,1
6.992891,0.944,0.378,0.264,-86.181,28.076,-33.081,1
7.000003,0.94,0.378,0.172,-83.19,28.564,-32.714,1
7.008341,0.948,0.387,0.095,-79.101,27.832,-32.104,1
7.016314,0.891,0.383,-0.004,-78.918,27.282,-32.348,1
7.024413,0.884,0.392,-0.102,-87.219,26.733,-32.348,1
7.031135,0.863,0.405,-0.187,-97.778,25.878,-32.348,1
7.039197,0.838,0.452,-0.267,-102.416,23.681,-32.592,1
7.048735,0.797,0.508,-0.351,-93.688,18.493,-33.691,1
7.056727,0.817,0.512,-0.412,-74.157,12.939,-34.667,1
7.064657,0.843,0.488,-0.467,-53.894,7.629,-35.583,1
7.071624,0.855,0.487,-0.518,-39.367,1.953,-36.132,1
7.079957,0.87,0.504,-0.529,-35.705,-2.868,-36.315,1
7.088309,0.868,0.503,-0.511,-39.794,-7.385,-36.987,1
7.096195,0.895,0.497,-0.489,-50.476,-10.131,-37.353,1
7.104742,0.908,0.503,-0.479,-62.011,-13.122,-37.353,1
7.112662,0.899,0.516,-0.478,-71.777,-16.723,-37.963,1
7.121037,0.908,0.536,-0.47,-72.631,-20.874,-39.062,1
7.128023,0.917,0.561,-0.425,-64.27,-25.756,-40.649,1
7.136343,0.911,0.562,-0.385,-49.743,-30.883,-42.419,1
7.144455,0.877,0.543,-0.354,-45.166,-34.667,-44.311,1
7.151584,0.859,0.494,-0.287,-55.297,-37.963,-47.058,1
7.160663,0.845,0.471,-0.196,-70.983,-35.888,-47.973,1
7.168982,0.927,0.448,-0.204,-103.82,-36.865,-50.109,1
7.175406,0.997,0.432,-0.164,-121.887,-34.301,-51.513,1
7.183684,1.007,0.458,-0.198,-117.309,-36.132,-53.649,1
7.19189,1.032,0.415,-0.161,-91.43,-39.794,-55.358,1
7.199744,1.041,0.325,-0.155,-79.04,-41.381,-55.786,1
7.207895,1.03,0.265,-0.106,-82.031,-42.663,-55.358,1
7.216563,1.035,0.232,-0.027,-86.242,-41.442,-53.894,1
7.223319,1.058,0.229,0.015,-83.129,-41.442,-52.551,1
7.231196,1.042,0.249,0.094,-78.674,-41.259,-50.659,1
7.239461,0.989,0.31,0.177,-71.838,-41.076,-49.133,1
7.247735,0.93,0.342,0.268,-63.537,-40.832,-48.461,1
7.254412,0.916,0.352,0.32,-62.377,-38.085,-47.18,1
7.262707,0.904,0.383,0.366,-67.26,-36.132,-46.63,1
7.271418,0.908,0.412,0.419,-70.251,-33.752,-46.142,1
7.277907,0.915,0.43,0.476,-71.228,-31.005,-45.593,1
7.286114,0.898,0.444,0.534,-69.152,-28.625,-45.776,1
7.292506,0.889,0.459,0.604,-62.744,-26.306,-45.715,1
7.299888,0.937,0.447,0.693,-55.175,-24.23,-45.837,1
7.30765,0.983,0.407,0.771,-47.79,-20.507,-45.532,1
7.3156,1.009,0.368,0.822,-48.095,-15.258,-45.288,1
7.3235,0.995,0.369,0.857,-54.992,-10.559,-44.799,1
7.330476,1.005,0.391,0.915,-52.917,-6.164,-44.616,1
7.337425,1.011,0.407,0.961,-44.677,-2.075,-44.311,1
7.345874,0.996,0.436,0.997,-37.963,1.892,-44.311,1
7.352617,0.988,0.462,1.021,-33.63,6.774,-45.227,1
7.359634,0.99,0.478,1.071,-31.188,11.474,-46.447,1
7.367961,1.011,0.496,1.129,-25.207,16.54,-47.912,1
7.374455,1.026,0.488,1.193,-19.836,22.277,-49.926,1
7.38152,1.041,0.457,1.231,-24.353,29.846,-51.696,1
7.389063,1.037,0.441,1.261,-34.057,36.315,-53.833,1
7.396066,1.13,0.466,1.277,-42.236,43.945,-56.701,1
7.404399,1.116,0.492,1.348,-32.775,50.415,-59.997,1
7.410973,1.122,0.488,1.367,-24.23,58.532,-63.293,1
7.419335,1.101,0.451,1.381,-17.395,62.805,-66.223,1
7.425913,1.165,0.406,1.37,-16.784,73.669,-69.152,1
7.433909,1.069,0.402,1.355,-23.498,82.336,-70.8,1
7.440419,1.045,0.399,1.273,-40.527,95.092,-71.777,1
7.44874,1.019,0.474,1.174,-36.437,98.999,-73.974,1
7.457309,0.942,0.437,1.095,-25.39,107.543,-74.401,1
7.463977,0.897,0.403,0.917,-29.174,111.633,-75.439,1
7.472596,0.867,0.399,0.848,-29.357,117.614,-75.988,1
7.4806,0.814,0.407,0.747,-21.24,122.131,-75.744,1
7.488675,0.709,0.42,0.677,-0.366,125.732,-75.073,1
7.496706,0.635,0.417,0.543,18.92,128.906,-74.462,1
7.503366,0.598,0.43,0.393,40.588,129.516,-74.401,1
7.511735,0.58,0.422,0.261,52.124,130.92,-74.279,1
7.518656,0.549,0.433,0.116,46.508,133.117,-74.523,1
7.527147,0.466,0.489,-0.076,25.085,136.474,-75.805,1
7.535236,0.408,0.564,-0.344,-0.183,136.169,-79.284,1
7.543258,0.348,0.638,-0.63,-17.883,133.056,-84.594,1
7.54995,0.31,0.669,-0.997,-30.883,126.342,-90.637,1
7.558353,0.244,0.674,-1.294,-36.132,114.379,-98.388,1
7.566417,0.198,0.642,-1.591,-26.733,100.524,-104.064,1
7.573228,0.176,0.591,-1.911,-16.174,84.96,-109.558,1
7.581582,0.14,0.523,-2.178,-14.404,68.603,-114.257,1
7.588632,0.11,0.429,-2.437,-24.414,51.635,-118.774,1
7.598434,0.094,0.337,-2.669,-37.475,33.447,-122.375,1
7.605076,0.056,0.236,-2.882,-46.569,10.498,-126.037,1
7.613676,0.004,0.125,-3.039,-53.71,-9.948,-128.479,1
7.62163,-0.041,-0.023,-3.199,-63.293,-30.395,-130.065,1
7.630035,-0.073,-0.255,-3.377,-71.96,-57.434,-130.187,1
7.639384,-0.106,-0.489,-3.511,-79.345,-80.627,-127.685,1
7.647425,-0.223,-0.802,-3.66,-99.426,-111.145,-122.619,1
7.655399,-0.384,-1.091,-3.701,-117.736,-142.456,-113.586,1
7.664031,-0.656,-1.363,-3.667,-130.004,-176.696,-100.585,1
7.672379,-1.01,-1.551,-3.563,-135.314,-205.505,-87.036,1
7.68046,-1.398,-1.75,-3.414,-135.375,-239.562,-69.152,1
7.688529,-1.739,-1.971,-3.298,-125.732,-271.301,-52.062,1
7.69664,-2.22,-2.204,-3.058,-109.619,-302.49,-32.531,1
7.705203,-2.559,-2.485,-2.906,-97.351,-338.928,-6.958,1
7.71195,-3.091,-2.711,-2.647,-96.984,-367.126,18.127,1
7.720412,-3.644,-2.896,-2.47,-96.13,-395.935,45.227,1
7.728831,-4.321,-3.066,-2.224,-99.182,-430.053,79.895,1
7.73706,-5.204,-3.244,-1.95,-102.905,-461.242,119.262,1
7.745083,-6.032,-3.363,-1.679,-104.675,-488.647,155.944,1
7.753535,-7.096,-3.441,-1.356,-118.652,-511.413,195.19,1
7.761889,-8.096,-3.447,-0.989,-173.522,-535.522,249.328,1
7.769813,-9.372,-3.286,-0.525,-202.575,-554.748,310.18,1
7.77823,-10.629,-3.019,-0.057,-226.928,-568.054,366.271,1
7.786733,-12.133,-2.527,0.575,-212.036,-581.848,433.898,1
7.793212,-13.374,-2.192,1.2,-177.246,-591.552,492.614,1
7.801848,-14.558,-1.981,1.926,-162.719,-594.543,550.842,1
7.809524,-15.749,-1.813,2.828,-133.728,-585.083,609.985,1
7.818278,-15.997,-1.701,3.754,-89.233,-569.397,668.212,1
7.824961,-15.999,-1.704,4.829,-80.749,-534.24,736.45,1
7.832106,-15.999,-1.625,5.727,-143.005,-481.811,799.499,1
7.841114,-15.999,-1.314,6.647,-229.125,-401.489,867.98,1
7.847893,-15.999,-0.9,7.246,-307.678,-300.537,941.162,1
7.85636,-15.999,-0.397,7.466,-388.671,-178.833,1012.268,1
7.863541,-15.999,0.225,7.388,-493.652,-35.827,1079.345,1
7.870166,-15.999,1.172,6.994,-602.05,132.141,1137.268,1
7.87719,-15.999,2.334,6.171,-661.621,309.57,1175.537,1
7.885298,-15.999,3.549,5.05,-672.302,453.491,1190.124,1
7.89243,-15.999,4.561,3.91,-611.694,631.225,1184.387,1
7.90089,-15.999,5.311,2.871,-552.429,761.047,1163.086,1
7.907461,-15.999,5.814,1.878,-529.541,857.299,1137.39,1
7.9155,-15.999,6.074,1.062,-527.099,966.979,1099.365,1
7.922426,-15.999,6.238,0.581,-535.278,1070.251,1055.297,1
7.929819,-15.999,6.927,-0.951,-599.548,1178.527,1003.051,1
7.938109,-15.999,5.862,-2.26,-773.803,1271.423,922.546,1
7.944996,-15.999,6.006,-2.317,-870.605,1371.581,803.283,1
7.952955,-15.999,5.271,-2.44,-855.957,1458.74,672.851,1
7.960894,-15.999,5.37,-3.308,-889.282,1516.662,525.695,1
7.969438,-15.999,5.011,-3.932,-881.164,1541.809,357.91,1
7.976359,-15.999,4.255,-4.563,-879.943,1549.56,166.442,1
7.984902,-15.999,3.768,-5.363,-909.057,1518.066,-4.638,1
7.993334,-15.999,3.009,-5.928,-963.623,1473.815,-178.283,1
8.001282,-15.999,2.041,-6.199,-917.846,1373.84,-362.792,1
8.008124,-15.999,1.139,-6.311,-752.319,1267.395,-481.14,1
8.0161,-15.999,0.169,-6.417,-548.217,1143.676,-550.109,1
8.024135,-15.999,-0.738,-6.189,-402.221,1025.756,-582.153,1
8.032029,-15.999,-1.604,-5.801,-319.213,917.968,-593.383,1
8.040517,-15.999,-2.02,-5.68,-275.512,829.894,-591.796,1
8.048456,-15.999,-2.381,-5.65,-213.806,747.375,-578.796,1
8.056313,-14.891,-2.789,-5.524,-154.296,667.663,-554.382,1
8.064612,-12.054,-3.127,-5.354,-124.328,596.191,-517.517,1
8.07259,-10.255,-3.25,-5.305,-154.724,536.987,-486.999,1
8.08107,-8.648,-3.216,-4.998,-205.932,473.083,-456.726,1
8.089085,-7.424,-3.122,-4.77,-200.988,414.855,-433.105,1
8.097048,-6.246,-3.239,-4.643,-170.959,357.849,-407.897,1
8.104179,-5.409,-3.39,-4.62,-158.386,295.043,-376.22,1
8.112569,-4.624,-3.425,-4.485,-155.578,245.239,-348.327,1
8.120965,-3.853,-3.382,-4.248,-156.86,200.012,-320.129,1
8.129375,-3.444,-3.189,-3.909,-160.827,153.991,-288.696,1
8.137801,-3.085,-2.988,-3.651,-149.475,119.506,-263.0,1
8.14561,-2.748,-2.705,-3.202,-139.709,83.374,-234.68,1
8.152791,-2.389,-2.5,-2.91,-121.52,57.861,-211.364,1
8.161156,-2.088,-2.333,-2.635,-107.421,33.874,-188.537,1
8.169218,-1.785,-2.146,-2.391,-98.815,11.413,-162.719,1
8.178121,-1.587,-1.976,-2.202,-99.853,-6.958,-141.723,1
8.184985,-1.485,-1.782,-1.999,-105.651,-22.827,-118.041,1
8.193377,-1.406,-1.602,-1.866,-107.421,-35.4,-99.548,1
8.20188,-1.34,-1.457,-1.721,-112.609,-46.813,-80.871,1
8.210336,-1.279,-1.234,-1.572,-97.412,-58.288,-61.279,1
8.218329,-1.238,-1.061,-1.421,-75.744,-67.626,-46.569,1
8.227662,-1.152,-0.947,-1.321,-58.166,-75.317,-30.456,1
8.237037,-1.021,-0.79,-1.187,-47.729,-81.787,-15.014,1
8.245202,-0.887,-0.685,-1.108,-35.217,-87.158,-1.22,1
8.253303,-0.763,-0.572,-1.011,-22.583,-91.796,11.169,1
8.261675,-0.691,-0.462,-0.937,-15.991,-94.97,22.094,1
8.269781,-0.665,-0.386,-0.883,-23.01,-96.313,29.846,1
8.277908,-0.622,-0.294,-0.811,-40.466,-94.848,36.804,1
8.285897,-0.544,-0.192,-0.77,-62.133,-91.491,44.25,1
8.294217,-0.449,-0.123,-0.768,-66.833,-89.904,50.903,1
8.302421,-0.452,-0.027,-0.795,-61.279,-90.759,56.823,1
8.310439,-0.454,0.037,-0.786,-42.724,-92.59,62.805,1
8.318463,-0.479,0.117,-0.796,-25.207,-93.627,66.345,1
8.325746,-0.5,0.19,-0.786,-10.253,-94.482,69.396,1
8.332734,-0.488,0.248,-0.774,0.0,-94.604,71.166,1
8.341183,-0.451,0.292,-0.755,8.117,-94.055,71.96,1
8.349235,-0.386,0.324,-0.739,12.145,-93.2,72.814,1
8.355952,-0.309,0.355,-0.732,11.596,-92.102,73.425,1
8.363814,-0.234,0.381,-0.726,8.117,-90.393,74.157,1
8.37076,-0.21,0.408,-0.742,-0.305,-88.684,74.768,1
8.377896,-0.223,0.441,-0.751,-9.033,-87.341,75.561,1
8.38648,-0.21,0.465,-0.745,-13.977,-85.998,75.988,1
8.393148,-0.181,0.476,-0.727,-15.869,-84.96,76.049,1
8.400169,-0.146,0.473,-0.705,-17.7,-83.312,76.599,1
8.40862,-0.105,0.468,-0.683,-20.874,-81.298,77.331,1
8.415287,-0.078,0.46,-0.667,-25.024,-78.857,77.819,1
8.42229,-0.045,0.452,-0.65,-30.334,-76.538,79.528,1
8.430743,0.002,0.456,-0.644,-34.851,-74.34,81.054,1
8.438567,0.053,0.463,-0.634,-35.949,-72.143,83.007,1
8.445519,0.098,0.479,-0.635,-34.118,-70.678,84.716,1
8.453799,0.146,0.489,-0.64,-32.043,-69.152,86.608,1
8.460434,0.174,0.509,-0.668,-33.813,-67.504,87.951,1
8.468383,0.2,0.531,-0.684,-36.499,-66.711,88.928,1
8.476579,0.24,0.536,-0.692,-37.719,-65.734,89.782,1
8.48527,0.293,0.529,-0.7,-39.978,-64.575,91.43,1
8.492076,0.361,0.54,-0.7,-42.785,-63.11,93.261,1
8.501906,0.398,0.55,-0.725,-46.691,-62.072,94.97,1
8.508762,0.39,0.571,-0.743,-52.551,-60.852,97.045,1
8.517187,0.395,0.595,-0.77,-57.067,-59.875,98.449,1
8.525433,0.377,0.615,-0.804,-61.95,-59.753,99.853,1
8.533153,0.371,0.643,-0.815,-64.453,-59.753,100.83,1
8.541796,0.375,0.664,-0.831,-63.171,-60.485,101.379,1
8.54851,0.381,0.682,-0.838,-57.678,-61.889,101.562,1
8.556451,0.39,0.698,-0.838,-49.011,-63.903,101.867,1
8.564697,0.381,0.723,-0.847,-41.442,-66.162,100.83,1
8.571833,0.379,0.736,-0.847,-37.902,-67.749,100.28,1
8.580005,0.416,0.753,-0.849,-33.63,-70.007,99.243,1
8.588195,0.447,0.773,-0.843,-30.334,-71.35,98.571,1
8.596673,0.453,0.792,-0.842,-31.066,-72.265,97.778,1
8.604126,0.464,0.81,-0.844,-35.522,-73.486,96.679,1
8.611427,0.422,0.815,-0.834,-43.09,-73.547,95.397,1
8.62112,0.399,0.815,-0.821,-49.682,-74.34,94.421,1
8.629143,0.374,0.805,-0.799,-55.358,-74.279,92.834,1
8.637396,0.361,0.8,-0.778,-57.617,-74.462,91.491,1
8.645771,0.366,0.779,-0.769,-57.25,-74.951,90.27,1
8.654047,0.368,0.766,-0.758,-54.321,-75.439,88.806,1
8.660986,0.356,0.748,-0.747,-51.147,-76.354,87.463,1
8.668641,0.362,0.729,-0.737,-45.471,-76.965,86.242,1
8.676037,0.381,0.703,-0.722,-46.325,-77.209,84.838,1
8.684001,0.387,0.683,-0.701,-45.898,-77.27,83.984,1
8.691984,0.452,0.671,-0.707,-44.494,-77.819,82.946,1
8.700369,0.47,0.657,-0.664,-43.457,-77.026,82.519,1
8.707136,0.516,0.667,-0.675,-41.076,-76.965,82.275,1
8.715503,0.504,0.671,-0.64,-40.283,-77.026,81.97,1
8.723361,0.523,0.667,-0.641,-37.414,-76.965,82.153,1
8.733133,0.468,0.673,-0.604,-38.452,-77.819,81.726,1
8.74145,0.425,0.654,-0.595,-42.236,-77.209,80.81,1
8.749842,0.453,0.625,-0.567,-49.377,-76.599,79.956,1
8.757815,0.361,0.606,-0.553,-55.236,-76.66,79.406,1
8.765682,0.436,0.602,-0.512,-59.509,-76.232,79.101,1
8.772241,0.458,0.596,-0.517,-59.753,-76.354,78.796,1
8.780488,0.47,0.593,-0.498,-57.678,-76.782,78.613,1
8.788805,0.381,0.57,-0.496,-56.213,-76.782,78.796,1
8.79591,0.37,0.561,-0.5,-67.26,-75.012,79.223,1
8.80375,0.415,0.582,-0.463,-71.96,-74.89,79.895,1
8.811435,0.432,0.62,-0.433,-68.725,-73.73,80.81,1
8.819198,0.416,0.629,-0.401,-61.218,-74.523,80.81,1
8.827615,0.408,0.64,-0.37,-46.447,-74.89,81.481,1
8.835932,0.406,0.635,-0.358,-35.644,-75.744,81.542,1
8.84371,0.425,0.638,-0.333,-26.672,-75.744,81.665,1
8.851521,0.471,0.634,-0.326,-20.751,-75.561,81.604,1
8.859588,0.484,0.614,-0.307,-18.859,-74.89,81.665,1
8.867873,0.474,0.608,-0.312,-20.996,-73.852,82.275,1
8.874113,0.447,0.608,-0.308,-25.512,-72.875,82.519,1
8.882597,0.435,0.618,-0.319,-29.663,-72.082,82.641,1
8.889109,0.486,0.648,-0.308,-31.433,-71.228,83.068,1
8.897666,0.502,0.706,-0.33,-28.137,-71.472,83.801,1
8.904643,0.479,0.738,-0.324,-19.836,-73.12,83.679,1
8.911551,0.499,0.793,-0.339,-6.225,-73.486,83.312,1
8.918431,0.43,0.842,-0.363,1.098,-75.683,82.641,1
8.926766,0.402,0.848,-0.376,7.141,-76.171,81.542,1
8.933464,0.391,0.861,-0.389,8.911,-77.27,79.772,1
8.941218,0.413,0.876,-0.374,8.3,-77.331,78.125,1
8.947743,0.435,0.894,-0.358,5.31,-77.514,76.721,1
8.956149,0.443,0.909,-0.339,-2.99,-76.171,74.096,1
8.963361,0.483,0.951,-0.306,-20.263,-74.646,70.373,1
8.971324,0.505,0.984,-0.278,-36.743,-72.998,68.42,1
8.977805,0.511,1.008,-0.275,-50.537,-71.289,65.856,1
8.984936,0.448,1.037,-0.258,-57.189,-71.411,63.232,1
8.993366,0.559,1.077,-0.22,-59.631,-70.312,60.974,1
8.999914,0.562,1.109,-0.262,-60.668,-70.495,59.387,1
9.006902,0.563,1.132,-0.271,-63.354,-70.922,56.762,1
9.015419,0.552,1.201,-0.28,-63.11,-70.617,54.199,1
9.022065,0.539,1.248,-0.301,-63.354,-71.228,50.476,1
9.029037,0.598,1.342,-0.268,-54.748,-70.922,45.471,1
9.037004,0.483,1.369,-0.272,-54.199,-70.556,41.809,1
9.04362,0.539,1.392,-0.282,-57.983,-69.091,38.269,1
9.051827,0.596,1.424,-0.278,-60.729,-68.176,33.325,1
9.058453,0.631,1.446,-0.279,-57.983,-67.504,27.526,1
9.065455,0.622,1.438,-0.285,-52.368,-67.382,21.606,1
9.072766,0.651,1.409,-0.291,-47.18,-66.467,16.662,1
9.081118,0.701,1.378,-0.305,-44.86,-67.321,11.169,1
9.087797,0.761,1.348,-0.278,-41.748,-67.077,5.92,1
9.096188,0.825,1.328,-0.251,-36.132,-68.481,1.037,1
9.102663,0.841,1.291,-0.225,-27.099,-69.335,-3.295,1
9.111163,0.854,1.211,-0.221,-21.789,-70.312,-7.568,1
9.117863,0.871,1.129,-0.209,-20.141,-69.946,-11.291,1
9.124821,0.876,1.052,-0.238,-23.193,-69.885,-14.099,1
9.132,0.86,0.979,-0.253,-32.592,-68.481,-17.15,1
9.140473,0.843,0.895,-0.274,-48.095,-67.016,-19.409,1
9.147337,0.829,0.817,-0.287,-66.345,-64.636,-21.301,1
9.155297,0.862,0.758,-0.293,-82.214,-62.499,-22.827,1
9.16211,0.885,0.726,-0.275,-89.416,-61.645,-23.864,1
9.170455,0.909,0.714,-0.261,-85.021,-60.424,-24.475,1
9.177442,0.887,0.668,-0.278,-73.974,-61.035,-25.512,1
9.184427,0.812,0.617,-0.268,-62.438,-60.607,-25.878,1
9.19182,0.816,0.57,-0.242,-46.813,-60.913,-26.733,1
9.19932,0.788,0.51,-0.218,-31.249,-61.035,-27.099,1
9.207818,0.804,0.455,-0.209,-16.418,-59.692,-27.648,1
9.214436,0.722,0.391,-0.202,-6.774,-60.058,-28.137,1
9.221444,0.701,0.344,-0.185,0.244,-57.8,-28.442,1
9.229716,0.651,0.274,-0.193,0.305,-57.922,-28.747,1
9.236718,0.662,0.217,-0.146,-2.99,-56.152,-28.442,1
9.243717,0.715,0.147,-0.139,-13.122,-55.175,-28.442,1
9.252142,0.732,0.107,-0.107,-23.559,-53.955,-27.709,1
9.258978,0.758,0.075,-0.111,-41.137,-52.856,-26.55,1
9.267542,0.717,0.068,-0.084,-59.631,-51.513,-24.719,1
9.274443,0.677,0.058,-0.083,-71.96,-50.964,-22.888,1
9.282296,0.656,0.099,-0.064,-76.293,-49.682,-21.423,1
9.29021,0.694,0.081,-0.074,-79.711,-49.743,-19.653,1
9.298739,0.739,0.076,-0.056,-80.81,-48.645,-17.089,1
9.306686,0.665,0.07,-0.056,-80.2,-47.363,-13.549,1
9.315163,0.542,0.07,-0.062,-77.453,-44.677,-8.85,1
9.323108,0.527,0.083,-0.033,-70.739,-41.687,-3.845,1
9.331071,0.264,0.07,-0.047,-68.237,-38.94,1.953,1
9.338532,0.259,0.083,-0.021,-67.321,-35.095,6.713,1
9.346978,0.214,0.091,-0.032,-66.406,-33.02,11.108,1
9.354819,0.193,0.096,-0.003,-68.054,-29.724,16.113,1
9.362567,0.191,0.105,-0.029,-71.411,-28.93,20.568,1
9.37073,0.197,0.113,-0.01,-74.096,-26.367,25.024,1
9.377869,0.212,0.117,-0.031,-78.125,-25.695,29.052,1
9.385811,0.227,0.131,-0.02,-81.97,-23.132,33.386,1
9.393998,0.25,0.141,-0.044,-88.012,-21.789,38.024,1
9.400984,0.336,0.152,-0.04,-90.332,-16.662,42.663,1
9.408976,0.47,0.163,-0.05,-91.674,-13.916,45.043,1
9.417537,0.67,0.166,-0.043,-87.89,-11.169,46.997,1
9.424061,0.92,0.157,-0.041,-80.078,-8.85,47.363,1
9.432336,1.038,0.185,-0.039,-72.631,-11.23,47.119,1
9.439374,1.204,0.188,-0.044,-53.466,-8.422,47.241,1
9.447727,1.367,0.182,-0.072,-35.217,-10.62,46.142,1
9.454847,1.338,0.191,-0.044,-14.953,-8.422,45.959,1
9.462706,1.541,0.144,-0.123,1.708,-10.925,46.508,1
9.471099,1.567,0.099,-0.093,9.094,-11.108,47.546,1
9.477712,1.164,0.094,-0.174,9.155,-10.07,49.072,1
9.486168,0.797,0.146,-0.141,9.643,-7.69,53.649,1
9.494917,0.659,0.145,-0.2,14.77,-2.929,62.072,1
9.501596,0.646,0.101,-0.15,18.676,0.61,72.265,1
9.509866,0.719,0.054,-0.167,21.179,5.371,80.078,1
9.516442,0.768,0.028,-0.149,23.315,6.408,86.425,1
9.524258,0.771,0.028,-0.144,30.883,9.094,91.857,1
9.532423,0.743,0.031,-0.138,41.076,7.934,97.167,1
9.540561,0.68,0.064,-0.126,59.02,8.361,102.355,1
9.547248,0.647,0.093,-0.141,76.843,5.859,106.872,1
9.555404,0.629,0.128,-0.154,95.642,5.126,111.511,1
9.562406,0.589,0.175,-0.182,111.267,1.953,115.722,1
9.570545,0.507,0.231,-0.187,124.45,0.915,119.079,1
9.577984,0.461,0.271,-0.235,128.479,-2.319,121.52,1
9.584759,0.42,0.328,-0.238,122.558,-3.234,123.657,1
9.592594,0.414,0.379,-0.284,104.553,-4.455,125.549,1
9.599481,0.36,0.451,-0.28,81.726,-3.784,126.892,1
9.606059,0.323,0.517,-0.294,61.767,-3.417,127.746,1
9.614323,0.308,0.571,-0.284,39.978,-2.624,128.356,1
9.621322,0.349,0.62,-0.289,25.085,-1.953,128.784,1
9.628312,0.378,0.666,-0.269,17.028,-1.586,129.577,1
9.635276,0.396,0.715,-0.273,15.136,-1.159,129.638,1
9.643302,0.392,0.754,-0.269,15.258,-1.708,130.249,1
9.649807,0.367,0.8,-0.278,14.709,-1.525,130.737,1
9.656969,0.333,0.85,-0.284,10.314,-1.77,130.737,1
9.665821,0.303,0.898,-0.279,5.615,-1.342,130.493,1
9.672514,0.297,0.927,-0.285,0.854,-1.159,130.004,1
9.679972,0.324,0.95,-0.285,-3.295,-0.854,129.15,1
9.686794,0.284,0.972,-0.299,-13.305,0.0,129.394,1
9.693826,0.258,1.011,-0.302,-24.963,0.793,129.15,1
9.702261,0.257,1.056,-0.303,-29.602,1.403,128.845,1
9.708391,0.242,1.09,-0.305,-27.221,0.976,128.906,1
9.715529,0.216,1.116,-0.302,-18.249,0.183,128.417,1
9.724047,0.195,1.135,-0.301,-5.615,-1.464,128.295,1
9.730677,0.176,1.13,-0.304,4.272,-2.868,128.356,1
9.738633,0.149,1.129,-0.317,6.408,-3.173,128.234,1
9.745286,0.139,1.123,-0.322,0.732,-3.295,128.234,1
9.753309,0.139,1.122,-0.329,-10.07,-2.258,128.417,1
9.760249,0.124,1.125,-0.338,-21.24,-1.647,128.54,1
9.768136,0.11,1.145,-0.333,-27.099,-0.793,128.601,1
9.774585,0.109,1.159,-0.336,-26.916,-0.671,128.723,1
9.78154,0.098,1.169,-0.336,-20.202,-0.61,128.356,1
9.790038,0.09,1.168,-0.345,-12.084,-1.403,127.929,1
9.796604,0.077,1.173,-0.343,-5.126,-2.136,127.746,1
9.805104,0.055,1.18,-0.347,1.586,-2.746,127.075,1
9.811392,0.042,1.184,-0.338,9.338,-3.601,125.915,1
9.819435,0.035,1.183,-0.335,17.761,-4.394,124.755,1
9.826386,0.035,1.174,-0.333,22.338,-5.065,123.779,1
9.833376,0.03,1.159,-0.336,22.277,-4.638,122.68,1
9.84178,0.023,1.156,-0.338,16.235,-4.089,121.093,1
9.848305,0.008,1.159,-0.339,4.516,-2.136,119.873,1
9.856739,-0.011,1.178,-0.346,-8.178,-0.488,118.225,1
9.863299,-0.041,1.197,-0.341,-15.624,1.342,116.638,1
9.871266,-0.06,1.225,-0.346,-18.798,2.563,114.929,1
9.877931,-0.076,1.251,-0.334,-15.502,3.662,112.731,1
9.88596,-0.104,1.28,-0.337,-8.85,4.028,110.412,1
9.892872,-0.127,1.293,-0.342,-1.831,4.516,107.238,1
9.899806,-0.15,1.286,-0.352,3.234,4.638,104.248,1
9.908187,-0.166,1.272,-0.346,5.371,4.821,101.806,1
9.914821,-0.174,1.261,-0.355,4.333,6.042,98.937,1
9.922341,-0.177,1.248,-0.374,-3.173,6.835,95.947,1
9.92947,-0.194,1.244,-0.383,-14.77,8.911,93.383,1
9.937745,-0.196,1.246,-0.392,-26.062,10.375,90.698,1
9.944294,-0.175,1.241,-0.397,-33.264,11.718,88.684,1
9.952394,-0.15,1.231,-0.406,-38.818,12.634,86.242,1
9.959112,-0.139,1.213,-0.413,-45.288,13.732,84.167,1
9.966019,-0.132,1.198,-0.425,-51.94,14.221,82.031,1
9.974412,-0.14,1.199,-0.438,-55.908,14.77,80.261,1
9.981143,-0.162,1.22,-0.448,-52.001,13.793,79.04,1
9.988083,-0.152,1.232,-0.449,-40.71,12.39,77.514,1
9.995284,-0.153,1.224,-0.455,-21.972,9.582,75.866,1
