timestamp_s,ax,ay,az,gx,gy,gz,label
0.006031,-0.763,0.645,0.064,-2.441,-0.122,0.0,1
0.01442,-0.765,0.645,0.066,-1.403,0.061,-0.061,1
0.021946,-0.764,0.65,0.069,0.305,-0.305,0.244,1
0.028433,-0.766,0.646,0.064,1.892,-0.183,0.366,1
0.03672,-0.762,0.641,0.066,2.868,-0.122,0.244,1
0.043212,-0.76,0.643,0.065,3.356,-0.366,0.366,1
0.050062,-0.756,0.645,0.063,3.234,-0.244,0.427,1
0.058196,-0.752,0.639,0.065,3.112,-0.366,0.549,1
0.064983,-0.756,0.643,0.065,2.502,-0.366,0.366,1
0.073667,-0.755,0.645,0.063,1.098,-0.305,0.427,1
0.080426,-0.761,0.644,0.065,-0.366,0.061,0.427,1
0.088771,-0.761,0.654,0.065,-1.586,0.183,0.244,1
0.095423,-0.76,0.655,0.067,-2.014,0.183,0.366,1
0.102282,-0.769,0.656,0.067,-2.258,0.305,0.122,1
0.110149,-0.767,0.659,0.069,-2.014,0.549,0.061,1
0.11706,-0.768,0.661,0.072,-1.647,0.427,0.122,1
0.123949,-0.761,0.657,0.069,-0.793,0.366,-0.183,1
0.131945,-0.752,0.656,0.073,0.183,0.488,-0.488,1
0.138944,-0.752,0.657,0.069,0.854,0.671,-0.61,1
0.146641,-0.755,0.652,0.069,1.22,0.427,-0.854,1
0.153518,-0.753,0.651,0.068,1.281,0.427,-0.915,1
0.16114,-0.752,0.646,0.067,0.671,0.549,-1.159,1
0.168136,-0.753,0.645,0.063,-0.671,0.427,-1.037,1
0.175699,-0.755,0.638,0.063,-2.136,0.732,-0.976,1
0.183692,-0.755,0.64,0.057,-3.784,0.915,-1.159,1
0.191306,-0.758,0.635,0.064,-5.065,0.671,-0.915,1
0.19837,-0.757,0.632,0.062,-5.249,0.732,-0.976,1
0.206922,-0.757,0.634,0.064,-4.272,0.305,-0.732,1
0.215195,-0.751,0.633,0.065,-3.112,0.122,-0.488,1
0.222132,-0.756,0.63,0.065,-1.647,-0.244,-0.244,1
0.230486,-0.753,0.637,0.064,-0.305,-0.671,-0.305,1
0.237847,-0.753,0.636,0.067,1.342,-0.732,0.0,1
0.245394,-0.751,0.634,0.066,3.051,-0.976,0.122,1
0.252133,-0.753,0.632,0.066,3.967,-1.464,0.061,1
0.259575,-0.747,0.631,0.07,4.211,-1.342,0.549,1
0.267798,-0.748,0.63,0.07,4.15,-1.403,0.488,1
0.275853,-0.751,0.63,0.068,3.662,-1.342,0.854,1
0.282784,-0.754,0.635,0.07,2.258,-1.098,0.915,1
0.291105,-0.758,0.634,0.064,-0.244,-1.037,0.915,1
0.299464,-0.759,0.644,0.069,-2.197,-0.793,1.159,1
0.305914,-0.759,0.644,0.074,-3.295,-0.732,0.976,1
0.315164,-0.754,0.648,0.071,-3.234,-0.732,1.098,1
0.321707,-0.754,0.651,0.075,-2.014,-0.854,0.854,1
0.329985,-0.757,0.648,0.074,-1.464,-0.61,1.22,1
0.33794,-0.754,0.652,0.078,-1.281,-0.793,0.976,1
0.346033,-0.747,0.654,0.076,-1.77,-0.549,1.037,1
0.353979,-0.749,0.656,0.079,-2.319,-0.671,1.22,1
0.361628,-0.745,0.669,0.08,-2.563,-0.61,1.22,1
0.369895,-0.747,0.684,0.083,-2.502,-0.549,1.403,1
0.377695,-0.754,0.697,0.086,-1.647,-0.366,1.037,1
0.384737,-0.762,0.714,0.083,-1.342,-0.122,0.732,1
0.392783,-0.766,0.724,0.083,-1.525,0.061,0.427,1
0.39976,-0.771,0.734,0.089,-2.258,0.366,0.122,1
0.40658,-0.77,0.74,0.083,-3.356,0.793,-0.671,1
0.414068,-0.765,0.751,0.085,-5.004,1.403,-1.464,1
0.422267,-0.762,0.758,0.09,-6.164,1.403,-1.647,1
0.428831,-0.756,0.755,0.089,-7.507,2.197,-2.685,1
0.436792,-0.745,0.769,0.091,-8.544,2.563,-3.173,1
0.444599,-0.744,0.773,0.087,-10.437,2.99,-3.967,1
0.451525,-0.732,0.778,0.09,-13.488,3.906,-4.699,1
0.459496,-0.727,0.78,0.087,-16.906,4.76,-5.371,1
0.466555,-0.724,0.793,0.085,-20.446,5.493,-6.042,1
0.474585,-0.732,0.812,0.083,-23.01,6.042,-6.652,1
0.481367,-0.734,0.82,0.082,-24.291,6.713,-7.507,1
0.488652,-0.721,0.804,0.07,-28.137,6.713,-7.873,1
0.496659,-0.636,0.775,0.053,-40.832,6.713,-6.713,1
0.504923,-0.657,0.841,0.071,-38.269,7.446,-8.972,1
0.512681,-0.773,0.878,0.063,-29.235,6.225,-10.07,1
0.520976,-0.794,0.914,0.073,-14.404,5.493,-11.413,1
0.529148,-0.761,0.924,0.07,-2.38,4.394,-12.817,1
0.53609,-0.715,0.928,0.077,7.812,4.15,-14.038,1
0.543702,-0.695,0.949,0.073,13.122,3.784,-15.441,1
0.551905,-0.681,0.972,0.072,16.052,4.394,-16.723,1
0.5601,-0.673,0.995,0.071,15.869,4.577,-18.432,1
0.566776,-0.666,1.022,0.069,14.282,5.432,-20.08,1
0.574758,-0.653,1.049,0.064,10.681,6.53,-22.644,1
0.582445,-0.645,1.072,0.061,6.774,7.812,-24.719,1
0.590972,-0.621,1.078,0.045,-3.723,9.155,-26.794,1
0.597626,-0.629,1.116,0.051,-10.253,10.437,-29.479,1
0.605423,-0.689,1.149,0.064,-19.47,10.986,-31.494,1
0.613269,-0.698,1.186,0.05,-25.451,12.573,-33.63,1
0.621614,-0.695,1.232,0.064,-30.7,13.122,-36.01,1
0.628134,-0.68,1.291,0.062,-36.193,15.136,-39.245,1
0.636733,-0.671,1.356,0.058,-42.907,16.296,-42.663,1
0.644124,-0.657,1.419,0.056,-50.415,18.981,-47.546,1
0.651442,-0.64,1.477,0.051,-58.166,20.507,-51.818,1
0.659274,-0.643,1.537,0.035,-61.767,22.46,-56.396,1
0.66758,-0.642,1.582,0.021,-64.086,23.132,-60.974,1
0.675242,-0.634,1.611,0.004,-66.101,23.986,-65.551,1
0.6836,-0.627,1.646,-0.005,-69.458,23.742,-70.19,1
0.690245,-0.621,1.683,-0.023,-73.181,23.925,-75.012,1
0.698467,-0.631,1.733,-0.037,-77.087,22.827,-80.566,1
0.705435,-0.633,1.772,-0.041,-78.613,22.216,-85.632,1
0.712818,-0.635,1.814,-0.051,-76.049,20.446,-90.881,1
0.721206,-0.659,1.865,-0.062,-68.969,18.92,-96.496,1
0.727996,-0.676,1.915,-0.083,-58.959,16.418,-102.111,1
0.735557,-0.722,1.965,-0.097,-46.874,14.404,-107.604,1
0.744339,-0.773,2.024,-0.113,-34.545,11.718,-113.647,1
0.750493,-0.804,2.078,-0.13,-22.644,9.582,-119.812,1
0.759077,-0.8,2.121,-0.162,-16.357,7.751,-127.014,1
0.766241,-0.82,2.158,-0.186,-19.287,6.469,-134.338,1
0.772835,-0.871,2.195,-0.211,-32.348,5.615,-142.272,1
0.781318,-0.923,2.219,-0.23,-51.574,5.065,-150.207,1
0.788325,-0.943,2.217,-0.249,-73.242,3.295,-158.203,1
0.796347,-1.038,2.275,-0.264,-86.059,1.647,-165.283,1
0.803256,-1.087,2.322,-0.273,-85.754,-3.112,-173.156,1
0.810612,-1.115,2.332,-0.287,-77.331,-7.08,-180.358,1
0.818384,-1.125,2.325,-0.319,-68.237,-12.695,-186.34,1
0.826074,-1.167,2.308,-0.322,-55.419,-17.639,-192.504,1
0.834483,-1.201,2.298,-0.36,-47.485,-24.108,-199.035,1
0.842461,-1.217,2.285,-0.354,-44.433,-28.503,-204.895,1
0.850657,-1.226,2.257,-0.365,-43.762,-33.02,-211.181,1
0.858538,-1.261,2.221,-0.359,-49.987,-35.827,-216.247,1
0.866923,-1.277,2.19,-0.369,-65.368,-37.78,-221.191,1
0.873208,-1.282,2.168,-0.355,-84.106,-39.489,-225.708,1
0.881807,-1.299,2.158,-0.357,-99.182,-41.992,-229.37,1
0.888658,-1.328,2.166,-0.358,-104.736,-45.837,-232.971,1
0.897154,-1.355,2.169,-0.361,-98.51,-50.415,-236.206,1
0.90407,-1.374,2.157,-0.377,-87.707,-55.297,-239.379,1
0.912027,-1.379,2.114,-0.389,-77.209,-59.509,-242.431,1
0.919216,-1.387,2.082,-0.4,-70.861,-63.537,-245.849,1
0.927582,-1.391,2.025,-0.416,-70.434,-66.284,-249.328,1
0.9356,-1.416,1.976,-0.43,-80.627,-69.213,-253.54,1
0.943338,-1.42,1.916,-0.43,-95.397,-70.983,-256.774,1
0.949924,-1.416,1.841,-0.431,-110.778,-73.913,-259.277,1
0.958749,-1.385,1.79,-0.432,-125.366,-76.354,-260.375,1
0.966511,-1.356,1.707,-0.448,-150.756,-79.589,-260.375,1
0.974315,-1.361,1.641,-0.451,-176.147,-82.946,-258.911,1
0.980659,-1.419,1.621,-0.438,-191.955,-87.524,-256.225,1
0.989047,-1.437,1.622,-0.44,-192.749,-92.834,-252.685,1
0.996611,-1.517,1.617,-0.434,-178.466,-100.036,-249.999,1
1.004465,-1.563,1.581,-0.458,-160.644,-104.919,-248.535,1
1.012926,-1.574,1.516,-0.472,-142.761,-111.938,-248.229,1
1.021219,-1.551,1.437,-0.48,-131.591,-116.394,-248.168,1
1.02779,-1.499,1.35,-0.495,-127.38,-122.253,-248.107,1
1.035869,-1.436,1.245,-0.489,-132.812,-127.075,-248.596,1
1.043847,-1.416,1.131,-0.49,-150.573,-131.408,-248.229,1
1.050938,-1.374,0.962,-0.477,-182.312,-136.108,-246.887,1
1.058916,-1.54,0.941,-0.51,-218.688,-131.958,-241.76,1
1.066796,-1.372,0.752,-0.825,-275.878,-148.559,-241.271,1
1.074649,-1.369,0.694,-0.467,-319.885,-138.061,-235.656,1
1.083248,-1.259,0.649,-0.75,-367.736,-154.418,-231.262,1
1.091446,-1.272,0.611,-0.461,-389.099,-151.794,-221.496,1
1.09967,-1.313,0.554,-0.646,-394.653,-168.884,-214.782,1
1.107781,-1.459,0.5,-0.441,-358.581,-172.668,-203.613,1
1.116096,-1.362,0.458,-0.47,-306.457,-188.11,-197.509,1
1.12299,-1.205,0.323,-0.38,-227.355,-193.603,-189.147,1
1.13143,-1.007,0.266,-0.385,-176.086,-204.406,-182.312,1
1.139675,-0.946,0.203,-0.281,-129.15,-206.665,-177.551,1
1.148087,-0.914,0.153,-0.268,-97.656,-214.111,-172.424,1
1.155076,-0.954,0.126,-0.145,-68.42,-215.087,-167.663,1
1.163163,-1.008,0.096,-0.124,-48.339,-219.604,-163.879,1
1.171296,-1.125,0.068,-0.034,-29.907,-219.97,-159.179,1
1.179282,-1.152,0.011,-0.017,-25.817,-222.473,-154.907,1
1.185849,-1.075,-0.053,0.061,-31.311,-220.275,-150.146,1
1.193952,-0.994,-0.088,0.068,-45.227,-219.909,-146.606,1
1.201931,-0.971,-0.102,0.131,-58.41,-218.505,-142.15,1
1.209039,-0.884,-0.102,0.165,-72.082,-217.529,-137.268,1
1.216947,-0.832,-0.11,0.208,-81.97,-217.712,-132.751,1
1.224769,-0.857,-0.081,0.269,-82.763,-219.177,-126.525,1
1.233029,-0.701,-0.03,0.373,-60.913,-220.031,-123.84,1
1.240395,-0.699,-0.001,0.468,-23.864,-222.045,-123.535,1
1.247705,-0.636,0.008,0.564,17.578,-219.909,-123.107,1
1.255673,-0.556,-0.003,0.635,51.818,-221.13,-124.45,1
1.264239,-0.403,-0.066,0.751,91.979,-216.369,-127.746,1
1.272327,-0.299,-0.18,0.797,94.177,-210.449,-130.187,1
1.279031,-0.202,-0.304,0.868,58.471,-198.73,-130.187,1
1.286332,-0.097,-0.332,0.902,-4.577,-187.744,-128.234,1
1.29449,-0.074,-0.25,0.964,-63.537,-176.33,-124.267,1
1.302385,-0.055,-0.116,1.018,-99.243,-170.349,-119.506,1
1.310026,0.018,0.05,1.13,-94.665,-167.297,-114.379,1
1.318558,0.091,0.159,1.218,-54.077,-167.358,-109.191,1
1.324743,0.183,0.186,1.289,11.352,-168.09,-106.079,1
1.333067,0.283,0.105,1.37,68.725,-166.503,-104.187,1
1.341124,0.441,-0.062,1.465,80.444,-157.348,-102.539,1
1.349138,0.516,-0.186,1.555,43.151,-143.554,-99.853,1
1.356696,0.5,-0.156,1.698,22.094,-128.784,-96.679,1
1.364061,0.42,-0.142,1.74,23.01,-117.675,-95.336,1
1.372365,0.355,-0.196,1.807,31.799,-105.041,-94.543,1
1.37894,0.366,-0.269,1.79,34.973,-91.735,-93.505,1
1.387045,0.36,-0.361,1.763,30.578,-78.308,-92.285,1
1.394126,0.301,-0.439,1.725,16.784,-63.964,-90.393,1
1.403248,0.173,-0.48,1.666,5.676,-51.391,-88.562,1
1.41017,0.223,-0.546,1.589,2.075,-36.865,-85.388,1
1.417661,0.212,-0.613,1.501,-2.014,-27.832,-83.068,1
1.425623,0.261,-0.699,1.405,-6.225,-16.601,-80.932,1
1.433615,0.304,-0.778,1.292,-14.465,-8.422,-78.857,1
1.441971,0.332,-0.853,1.191,-22.949,1.403,-75.988,1
1.448266,0.323,-0.904,1.044,-34.79,8.056,-73.364,1
1.455658,0.341,-0.945,0.926,-45.776,15.258,-70.19,1
1.462907,0.336,-0.985,0.763,-57.495,19.958,-67.016,1
1.470653,0.346,-1.028,0.631,-66.772,24.23,-63.598,1
1.478327,0.324,-1.068,0.463,-76.904,27.099,-60.302,1
1.4864,0.236,-1.08,0.323,-91.857,28.93,-56.213,1
1.494292,0.103,-1.061,0.177,-107.116,29.602,-50.72,1
1.500988,-0.014,-1.03,0.057,-115.051,28.442,-46.63,1
1.508571,-0.065,-1.013,-0.059,-119.689,26.428,-41.931,1
1.515897,-0.118,-0.998,-0.227,-123.657,22.644,-37.292,1
1.524227,-0.145,-0.975,-0.361,-127.746,18.188,-32.897,1
1.531006,-0.162,-0.988,-0.503,-133.667,12.023,-28.747,1
1.539836,-0.171,-1.0,-0.622,-145.874,4.211,-23.376,1
1.547785,-0.192,-1.002,-0.729,-155.578,-4.577,-18.066,1
1.554485,-0.214,-1.019,-0.804,-157.165,-14.526,-11.657,1
1.562587,-0.223,-1.04,-0.864,-148.864,-25.939,-4.699,1
1.570301,-0.215,-1.089,-0.902,-136.657,-38.574,3.54,1
1.578625,-0.24,-1.142,-0.927,-127.746,-51.269,12.878,1
1.58575,-0.313,-1.183,-0.949,-121.093,-66.772,24.719,1
1.594881,-0.374,-1.203,-0.944,-112.976,-80.444,35.766,1
1.601616,-0.412,-1.232,-0.959,-109.374,-94.848,47.546,1
1.610586,-0.5,-1.254,-0.949,-106.201,-109.191,59.265,1
1.61715,-0.535,-1.276,-0.918,-109.924,-126.098,74.707,1
1.625194,-0.65,-1.279,-0.871,-112.731,-140.563,88.623,1
1.633484,-0.759,-1.288,-0.816,-114.562,-155.212,102.294,1
1.64001,-0.835,-1.27,-0.724,-109.68,-168.64,116.333,1
1.648291,-0.947,-1.279,-0.641,-98.571,-182.495,130.859,1
1.654766,-0.958,-1.26,-0.54,-87.341,-192.26,143.249,1
1.663821,-1.022,-1.224,-0.458,-73.486,-204.162,158.325,1
1.67033,-1.145,-1.145,-0.333,-61.95,-215.27,172.546,1
1.678441,-1.29,-1.03,-0.227,-39.245,-228.576,186.95,1
1.68694,-1.371,-1.002,-0.116,-23.986,-240.112,198.669,1
1.695936,-1.39,-1.012,-0.004,-26.611,-249.999,211.12,1
1.704021,-1.472,-0.957,0.152,-40.588,-258.544,226.013,1
1.711536,-1.617,-0.854,0.29,-48.339,-264.221,238.281,1
1.719573,-1.61,-0.804,0.43,-64.819,-268.615,253.356,1
1.727141,-1.975,-0.73,0.515,-86.853,-271.484,270.874,1
1.735535,-2.049,-0.746,0.609,-115.051,-269.653,289.062,1
1.743191,-2.124,-0.678,0.695,-145.385,-268.066,306.518,1
1.751151,-2.522,-0.589,0.812,-161.926,-264.953,328.735,1
1.759942,-2.777,-0.543,0.906,-169.128,-262.023,348.083,1
1.765897,-3.001,-0.49,0.995,-173.645,-257.141,367.37,1
1.774282,-3.291,-0.427,1.07,-174.621,-251.953,385.986,1
1.78255,-3.645,-0.365,1.144,-173.828,-245.849,404.235,1
1.790477,-3.973,-0.306,1.183,-174.377,-238.281,423.034,1
1.797126,-4.325,-0.248,1.213,-183.349,-227.661,444.152,1
1.805609,-4.674,-0.166,1.224,-196.96,-216.003,462.89,1
1.813125,-5.055,-0.07,1.246,-210.51,-203.308,481.567,1
1.821515,-5.475,0.042,1.293,-218.749,-187.561,500.122,1
1.829283,-5.835,0.142,1.328,-227.355,-167.419,521.057,1
1.836333,-6.226,0.251,1.349,-236.877,-146.362,538.513,1
1.845711,-6.588,0.373,1.353,-245.666,-123.474,554.565,1
1.852259,-6.946,0.519,1.334,-247.68,-98.876,569.274,1
1.860455,-7.19,0.634,1.303,-243.774,-74.096,582.702,1
1.869135,-7.337,0.706,1.258,-237.243,-44.433,596.923,1
1.877041,-7.489,0.754,1.192,-237.365,-19.165,607.666,1
1.883496,-7.625,0.778,1.16,-245.849,7.873,618.286,1
1.891917,-7.647,0.783,1.117,-263.916,36.437,628.723,1
1.89915,-7.691,0.789,1.083,-285.827,65.795,637.817,1
1.906881,-7.896,0.832,1.081,-313.964,95.703,645.385,1
1.91386,-8.114,0.916,1.093,-342.773,128.784,650.817,1
1.921668,-8.2,0.988,1.117,-364.746,161.499,653.564,1
1.929568,-8.348,1.076,1.097,-375.854,195.556,652.832,1
1.936307,-8.544,1.228,1.119,-370.544,225.341,649.414,1
1.943016,-8.924,1.777,1.217,-349.548,254.943,639.221,1
1.950849,-9.347,2.241,1.312,-318.115,275.573,624.877,1
1.959149,-9.559,2.286,1.399,-285.339,299.682,609.069,1
1.965981,-9.391,2.249,1.591,-270.629,327.392,598.632,1
1.974105,-8.938,1.887,1.436,-271.667,360.717,596.191,1
1.980617,-8.708,1.742,1.179,-277.832,382.873,594.726,1
1.988489,-8.98,1.818,1.047,-274.169,408.142,590.881,1
1.996277,-9.338,1.876,0.927,-305.725,433.715,580.505,1
2.003082,-9.661,2.014,0.794,-388.671,473.632,560.791,1
2.011981,-9.712,2.192,0.497,-505.859,514.892,529.846,1
2.018423,-9.581,2.47,0.25,-606.445,561.645,487.426,1
2.026386,-9.275,2.811,-0.049,-652.343,596.862,435.668,1
2.033092,-8.913,3.146,-0.24,-629.821,624.694,376.525,1
2.041124,-8.467,3.391,-0.556,-570.922,637.146,314.086,1
2.048049,-8.076,3.556,-0.883,-514.099,640.38,262.146,1
2.056279,-7.651,3.53,-1.172,-468.139,638.244,202.453,1
2.062985,-7.334,3.423,-1.467,-462.585,634.826,145.324,1
2.069952,-6.746,3.271,-2.232,-515.38,630.004,87.036,1
2.078676,-6.36,3.163,-3.299,-638.427,602.722,24.047,1
2.085394,-5.548,3.147,-3.968,-752.99,552.551,-47.729,1
2.09344,-4.467,3.037,-3.081,-724.182,496.826,-119.934,1
2.101165,-3.83,2.437,-1.993,-566.467,469.238,-168.029,1
2.108825,-3.776,1.884,-1.691,-409.24,432.922,-193.847,1
2.115787,-3.45,1.476,-1.53,-286.132,397.644,-206.054,1
2.124403,-3.247,1.33,-1.571,-183.044,374.023,-210.754,1
2.131055,-3.167,1.235,-1.579,-80.017,339.172,-214.904,1
2.137554,-2.95,1.097,-1.535,-15.808,317.871,-216.125,1
2.145585,-2.583,0.923,-1.582,-6.958,297.668,-216.064,1
2.152423,-2.373,0.839,-1.533,-34.362,284.423,-216.857,1
2.160396,-2.143,0.789,-1.541,-71.716,268.554,-219.909,1
2.167132,-1.916,0.738,-1.5,-99.792,253.234,-224.365,1
2.175334,-1.708,0.665,-1.496,-117.797,236.083,-228.698,1
2.182622,-1.563,0.582,-1.471,-127.136,217.346,-232.543,1
2.191302,-1.436,0.491,-1.449,-129.333,198.425,-235.534,1
2.198875,-1.333,0.402,-1.396,-125.366,178.894,-236.999,1
2.205738,-1.247,0.3,-1.327,-114.99,160.583,-237.609,1
2.213874,-1.164,0.229,-1.27,-99.853,142.395,-236.694,1
2.222184,-1.085,0.145,-1.211,-83.557,125.976,-234.436,1
2.230188,-1.015,0.051,-1.136,-64.697,110.9,-231.201,1
2.238092,-0.923,-0.016,-1.087,-41.992,95.031,-226.44,1
2.246053,-0.803,-0.089,-1.034,-23.376,83.007,-220.825,1
2.253922,-0.72,-0.146,-0.99,-4.028,72.448,-214.965,1
2.262068,-0.604,-0.198,-0.929,19.042,61.218,-207.763,1
2.270373,-0.504,-0.242,-0.888,34.362,53.588,-201.416,1
2.277905,-0.404,-0.275,-0.848,41.809,47.119,-195.251,1
2.285677,-0.319,-0.297,-0.803,41.564,41.564,-189.025,1
2.293688,-0.273,-0.324,-0.747,39.916,35.827,-182.8,1
2.300692,-0.215,-0.347,-0.69,34.545,31.616,-177.368,1
2.308498,-0.146,-0.373,-0.646,24.291,28.442,-171.752,1
2.316759,-0.066,-0.405,-0.61,8.056,24.841,-165.527,1
2.325071,0.003,-0.417,-0.565,-9.582,21.911,-159.423,1
2.332077,0.056,-0.43,-0.516,-22.949,16.906,-151.55,1
2.340664,0.129,-0.43,-0.476,-29.113,12.878,-144.958,1
2.347379,0.198,-0.436,-0.437,-34.973,8.85,-138.366,1
2.355437,0.24,-0.44,-0.397,-39.001,6.225,-131.896,1
2.363811,0.267,-0.444,-0.367,-47.18,3.356,-125.366,1
2.371665,0.287,-0.441,-0.333,-57.861,2.38,-119.079,1
2.379132,0.324,-0.44,-0.308,-71.899,0.61,-111.633,1
2.386938,0.343,-0.433,-0.276,-81.115,-0.244,-105.285,1
2.394805,0.348,-0.411,-0.254,-85.754,-1.586,-99.609,1
2.4027,0.365,-0.415,-0.203,-87.158,-3.54,-93.078,1
2.410405,0.406,-0.411,-0.173,-86.669,-5.371,-86.853,1
2.41806,0.447,-0.398,-0.128,-82.336,-7.995,-79.589,1
2.42598,0.473,-0.366,-0.089,-75.988,-9.765,-73.364,1
2.433368,0.503,-0.339,-0.039,-65.917,-11.657,-67.565,1
2.441066,0.477,-0.29,0.001,-48.706,-13.183,-61.767,1
2.448044,0.454,-0.246,0.056,-27.954,-15.747,-56.823,1
2.456469,0.518,-0.24,0.056,-11.535,-15.38,-52.795,1
2.463281,0.536,-0.249,0.068,-7.263,-16.174,-49.194,1
2.471762,0.547,-0.27,0.058,-14.526,-13.305,-45.776,1
2.479764,0.514,-0.289,0.049,-37.475,-11.23,-43.212,1
2.487495,0.498,-0.302,0.058,-65.979,-5.798,-40.283,1
2.49425,0.543,-0.311,0.059,-98.022,-1.525,-37.048,1
2.502374,0.603,-0.305,0.083,-124.511,4.333,-33.691,1
2.508728,0.672,-0.283,0.082,-140.197,7.873,-30.09,1
2.516049,0.701,-0.253,0.101,-140.197,11.657,-26.489,1
2.524318,0.778,-0.223,0.107,-121.704,11.901,-22.644,1
2.531283,0.897,-0.233,0.103,-99.792,12.084,-18.798,1
2.538163,1.014,-0.245,0.093,-84.472,11.352,-14.953,1
2.546303,1.075,-0.25,0.091,-74.89,11.413,-9.887,1
2.553121,1.162,-0.256,0.075,-73.242,11.84,-5.065,1
2.560675,1.252,-0.249,0.073,-75.866,12.023,0.305,1
2.5689,1.318,-0.237,0.07,-80.932,12.573,5.371,1
2.575611,1.367,-0.218,0.068,-84.777,12.756,10.803,1
2.582524,1.406,-0.191,0.07,-86.669,13.061,14.77,1
2.589733,1.429,-0.18,0.06,-89.721,13.854,18.981,1
2.59795,1.409,-0.161,0.049,-96.008,14.953,22.277,1
2.605819,1.351,-0.133,0.035,-103.82,15.991,24.658,1
2.612887,1.292,-0.096,0.038,-107.727,17.089,27.038,1
2.619469,1.234,-0.061,0.047,-105.346,16.906,28.625,1
2.627438,1.202,-0.034,0.055,-93.933,16.906,29.785,1
2.633946,1.167,-0.015,0.078,-76.66,15.808,31.066,1
2.642055,1.126,-0.001,0.087,-58.227,14.709,32.104,1
2.648455,1.091,-0.009,0.095,-43.945,14.099,33.508,1
2.656696,1.075,-0.033,0.097,-37.963,15.502,34.423,1
2.663541,1.072,-0.039,0.092,-42.114,15.197,35.766,1
2.670413,1.051,-0.02,0.113,-50.598,16.601,38.085,1
2.677791,1.072,0.011,0.105,-55.48,15.258,40.649,1
2.685632,1.105,0.034,0.123,-54.443,15.258,42.358,1
2.691922,1.13,0.039,0.102,-52.978,15.686,43.518,1
2.699184,1.149,0.035,0.065,-55.358,17.272,44.677,1
2.706465,1.166,0.027,0.017,-64.27,20.507,45.349,1
2.714267,1.129,0.022,-0.042,-78.063,23.62,45.898,1
2.722036,1.107,0.021,-0.08,-99.548,27.893,45.776,1
2.728745,1.062,0.037,-0.128,-122.375,32.104,45.288,1
2.736589,1.025,0.083,-0.151,-141.784,34.973,44.982,1
2.743999,1.003,0.168,-0.15,-148.437,35.4,44.616,1
2.750543,0.987,0.231,-0.141,-139.526,34.362,43.701,1
2.758627,1.003,0.29,-0.152,-114.99,31.249,42.785,1
2.765016,0.998,0.325,-0.164,-84.655,28.259,41.198,1
2.773591,0.972,0.329,-0.201,-62.683,25.39,39.978,1
2.780452,0.97,0.317,-0.235,-45.715,22.583,38.696,1
2.787,0.971,0.313,-0.278,-38.94,20.141,37.17,1
2.794766,0.975,0.32,-0.287,-35.766,18.066,35.766,1
2.801587,0.971,0.333,-0.29,-32.775,16.235,34.545,1
2.808415,0.956,0.347,-0.287,-28.076,14.526,33.203,1
2.816753,0.944,0.351,-0.291,-23.681,13.0,32.226,1
2.82304,0.937,0.355,-0.29,-23.132,12.145,30.944,1
2.831311,0.933,0.361,-0.302,-23.742,11.23,29.541,1
2.837868,0.937,0.375,-0.298,-24.291,9.765,28.198,1
2.845229,0.938,0.385,-0.307,-22.094,8.239,26.672,1
2.852194,0.94,0.396,-0.311,-19.042,6.103,25.512,1
2.859395,0.939,0.403,-0.312,-16.479,4.516,24.536,1
2.86767,0.937,0.401,-0.314,-14.038,2.197,23.315,1
2.874929,0.94,0.408,-0.307,-12.695,0.244,22.216,1
2.881793,0.946,0.403,-0.3,-10.986,-1.953,21.362,1
2.888715,0.948,0.393,-0.281,-9.216,-3.54,20.141,1
2.89644,0.946,0.382,-0.26,-7.568,-4.882,19.714,1
2.904654,0.958,0.37,-0.244,-6.347,-6.347,19.287,1
2.911003,0.971,0.363,-0.221,-4.272,-7.08,19.409,1
2.919281,0.981,0.371,-0.211,-2.929,-7.812,19.531,1
2.926891,0.976,0.381,-0.208,-3.662,-8.666,19.714,1
2.933411,0.977,0.391,-0.204,-7.141,-8.911,19.287,1
2.940761,0.955,0.395,-0.213,-12.756,-9.338,19.104,1
2.948673,0.935,0.408,-0.215,-18.005,-9.643,18.615,1
2.955515,0.929,0.415,-0.223,-21.362,-9.948,18.188,1
2.963491,0.924,0.418,-0.214,-23.803,-10.437,17.7,1
2.970246,0.926,0.416,-0.21,-24.841,-11.169,17.028,1
2.977591,0.916,0.416,-0.2,-23.742,-11.962,16.479,1
2.985809,0.908,0.414,-0.187,-20.935,-12.878,16.296,1
2.992328,0.912,0.405,-0.178,-17.883,-13.61,15.747,1
2.999893,0.917,0.39,-0.169,-16.357,-13.916,15.747,1
3.008615,0.921,0.386,-0.157,-15.808,-13.977,15.441,1
3.014585,0.928,0.38,-0.15,-16.296,-14.099,15.502,1
3.022857,0.945,0.377,-0.138,-16.174,-13.793,15.319,1
3.029761,0.964,0.375,-0.125,-16.052,-13.732,15.014,1
3.037761,0.986,0.375,-0.119,-15.319,-13.305,14.831,1
3.044739,1.003,0.379,-0.107,-14.587,-13.244,14.526,1
3.052304,1.003,0.375,-0.102,-13.854,-13.061,14.282,1
3.058782,0.995,0.361,-0.104,-15.38,-12.451,14.16,1
3.067162,1.004,0.369,-0.096,-17.944,-11.718,14.099,1
3.074416,1.002,0.374,-0.1,-19.348,-11.23,13.671,1
3.081381,1.006,0.371,-0.098,-17.822,-10.864,12.878,1
3.090052,0.994,0.377,-0.094,-14.526,-10.925,12.939,1
3.096707,0.979,0.376,-0.097,-10.009,-10.681,12.695,1
3.103432,0.96,0.378,-0.101,-8.056,-10.498,12.695,1
3.111639,0.884,0.381,-0.103,-11.291,-10.009,11.84,1
3.118215,0.894,0.387,-0.095,-16.845,-8.544,11.84,1
3.125206,1.008,0.389,-0.117,-21.484,-8.117,11.718,1
3.133158,0.989,0.4,-0.103,-25.268,-7.873,11.657,1
3.14019,0.928,0.419,-0.108,-26.611,-7.263,11.474,1
3.148529,0.916,0.424,-0.108,-29.052,-7.202,11.413,1
3.154912,0.933,0.426,-0.126,-31.066,-6.164,11.291,1
3.163343,0.937,0.42,-0.139,-33.02,-6.958,10.925,1
3.169848,0.918,0.427,-0.139,-32.775,-6.896,10.803,1
3.178172,0.905,0.423,-0.149,-30.944,-7.507,10.62,1
3.184473,0.905,0.428,-0.143,-27.526,-7.507,10.314,1
3.192636,0.907,0.423,-0.15,-24.78,-8.422,10.375,1
3.200813,0.901,0.426,-0.148,-21.179,-8.483,10.437,1
3.208137,0.899,0.422,-0.153,-18.615,-9.033,10.375,1
3.214158,0.899,0.417,-0.144,-16.601,-9.521,10.253,1
3.222496,0.906,0.411,-0.147,-14.892,-9.948,10.253,1
3.229193,0.919,0.41,-0.142,-13.854,-10.437,10.375,1
3.237268,0.925,0.408,-0.133,-13.0,-10.375,10.253,1
3.244239,0.934,0.403,-0.135,-13.427,-10.925,10.62,1
3.252285,0.957,0.403,-0.134,-14.831,-10.498,10.864,1
3.259234,0.959,0.406,-0.141,-18.127,-10.314,11.108,1
3.266781,0.97,0.403,-0.145,-22.338,-10.192,11.291,1
3.275014,0.95,0.413,-0.148,-24.169,-10.131,11.352,1
3.2814,0.953,0.413,-0.152,-25.268,-10.437,11.596,1
3.289619,0.937,0.423,-0.157,-22.827,-10.803,11.474,1
3.296472,0.95,0.429,-0.15,-18.859,-11.23,11.352,1
3.304346,0.937,0.429,-0.151,-13.549,-11.657,11.23,1
3.312009,0.942,0.432,-0.151,-9.948,-12.145,11.474,1
3.31982,0.941,0.425,-0.15,-8.728,-12.512,11.657,1
3.327255,0.925,0.424,-0.152,-9.277,-12.451,11.047,1
3.335365,0.921,0.421,-0.148,-10.559,-12.573,11.169,1
3.343217,0.915,0.43,-0.139,-11.291,-12.39,10.375,1
3.349783,0.91,0.428,-0.134,-11.413,-12.512,10.559,1
3.357585,0.905,0.426,-0.129,-11.657,-11.84,10.192,1
3.364195,0.895,0.423,-0.126,-12.451,-11.596,10.009,1
3.372492,0.891,0.425,-0.125,-12.817,-11.047,10.009,1
3.378941,0.88,0.426,-0.131,-13.854,-10.437,9.643,1
3.387244,0.875,0.425,-0.131,-15.075,-10.009,9.521,1
3.39385,0.875,0.427,-0.134,-16.662,-9.704,9.338,1
3.401711,0.879,0.431,-0.131,-17.639,-9.765,9.216,1
3.409539,0.89,0.439,-0.128,-16.967,-9.704,9.155,1
3.415981,0.895,0.441,-0.129,-15.258,-10.131,9.399,1
3.424309,0.895,0.439,-0.122,-12.39,-10.62,9.338,1
3.431047,0.897,0.441,-0.125,-9.826,-10.864,9.46,1
3.439218,0.9,0.438,-0.123,-8.728,-11.169,9.399,1
3.446386,0.911,0.433,-0.121,-7.934,-11.23,9.643,1
3.454554,0.914,0.434,-0.119,-8.544,-11.291,9.887,1
3.461386,0.913,0.431,-0.116,-8.972,-11.23,9.887,1
3.468278,0.912,0.432,-0.113,-10.437,-11.108,10.131,1
3.476204,0.911,0.432,-0.119,-12.145,-10.742,10.131,1
3.483253,0.895,0.43,-0.122,-15.319,-10.253,10.314,1
3.49153,0.89,0.434,-0.123,-19.104,-9.826,10.375,1
3.49836,0.904,0.437,-0.122,-21.972,-9.338,10.437,1
3.507132,0.904,0.452,-0.117,-20.935,-9.643,10.314,1
3.513577,0.9,0.453,-0.114,-18.31,-9.948,10.131,1
3.520393,0.904,0.453,-0.112,-14.953,-10.253,10.192,1
3.527808,0.899,0.452,-0.114,-13.427,-10.07,10.253,1
3.535851,0.896,0.454,-0.112,-13.427,-9.948,10.253,1
3.542428,0.901,0.458,-0.116,-14.831,-9.948,10.437,1
3.550486,0.902,0.464,-0.111,-15.747,-9.887,10.07,1
3.55715,0.888,0.472,-0.107,-15.502,-9.765,10.009,1
3.56437,0.877,0.474,-0.105,-15.136,-9.765,9.643,1
3.572405,0.869,0.481,-0.106,-15.197,-9.46,9.399,1
3.580192,0.866,0.492,-0.106,-14.892,-9.521,8.972,1
3.58854,0.864,0.491,-0.115,-14.16,-9.094,8.728,1
3.595228,0.875,0.491,-0.119,-15.441,-8.605,8.056,1
3.601819,0.877,0.481,-0.136,-18.615,-7.873,7.568,1
3.609609,0.887,0.484,-0.144,-23.315,-7.873,7.324,1
3.617952,0.897,0.492,-0.143,-25.512,-7.751,7.202,1
3.62657,0.913,0.505,-0.147,-25.512,-8.3,6.958,1
3.633352,0.937,0.511,-0.154,-22.216,-8.911,7.019,1
3.641171,0.94,0.513,-0.16,-18.127,-9.887,6.347,1
3.649273,0.934,0.513,-0.168,-15.319,-10.803,6.042,1
3.656411,0.935,0.507,-0.187,-14.648,-11.718,5.798,1
3.663,0.95,0.502,-0.203,-12.023,-12.817,5.432,1
3.670924,0.975,0.493,-0.223,-6.408,-14.831,5.31,1
3.678747,0.974,0.478,-0.24,1.464,-17.028,5.065,1
3.686746,0.979,0.451,-0.251,7.873,-19.531,4.943,1
3.694167,0.984,0.428,-0.249,11.352,-21.423,5.126,1
3.700918,0.989,0.412,-0.248,12.451,-22.583,5.31,1
3.708492,0.991,0.405,-0.224,12.512,-23.803,5.737,1
3.7156,0.979,0.408,-0.209,12.573,-24.658,6.103,1
3.723996,0.969,0.41,-0.19,13.61,-25.39,6.347,1
3.730537,0.936,0.407,-0.173,13.854,-25.512,6.53,1
3.741759,0.928,0.405,-0.164,10.864,-25.207,6.835,1
3.749327,0.923,0.402,-0.161,0.61,-24.536,7.69,1
3.755939,0.876,0.405,-0.155,-9.948,-22.827,8.361,1
3.764446,0.862,0.438,-0.149,-18.859,-22.766,8.483,1
3.77249,0.871,0.46,-0.128,-18.676,-22.399,8.483,1
3.780105,0.849,0.486,-0.122,-15.197,-23.193,8.178,1
3.787199,0.847,0.502,-0.098,-8.3,-23.62,8.056,1
3.795685,0.844,0.503,-0.091,-1.892,-24.475,7.995,1
3.802758,0.804,0.51,-0.075,0.488,-24.658,8.239,1
3.810466,0.802,0.517,-0.071,-0.061,-24.414,8.178,1
3.818815,0.793,0.516,-0.066,-5.187,-23.559,7.934,1
3.82641,0.782,0.528,-0.069,-12.817,-23.071,7.995,1
3.833451,0.801,0.551,-0.047,-18.31,-22.46,7.446,1
3.841143,0.804,0.564,-0.049,-21.057,-22.277,6.53,1
3.849126,0.794,0.579,-0.022,-19.714,-22.033,5.249,1
3.857767,0.794,0.58,-0.022,-16.601,-22.277,4.577,1
3.865781,0.798,0.574,-0.006,-14.587,-22.46,3.906,1
3.872577,0.804,0.566,0.002,-14.404,-22.46,3.417,1
3.880018,0.822,0.566,0.018,-14.404,-22.277,3.051,1
3.887981,0.85,0.554,0.028,-14.282,-21.667,2.99,1
3.895912,0.85,0.547,0.041,-14.099,-21.057,2.502,1
3.902764,0.879,0.532,0.041,-14.587,-20.08,2.38,1
3.911649,0.895,0.524,0.049,-18.127,-19.104,2.197,1
3.918321,0.915,0.52,0.053,-23.559,-17.272,2.441,1
3.925801,0.931,0.52,0.053,-27.465,-16.296,2.441,1
3.934218,0.94,0.522,0.047,-29.968,-14.282,2.563,1
3.940913,0.956,0.512,0.036,-34.79,-13.244,2.441,1
3.948931,0.971,0.517,0.036,-40.344,-11.718,2.38,1
3.955917,0.969,0.531,0.034,-43.701,-11.23,2.502,1
3.964351,0.963,0.546,0.04,-44.311,-10.498,2.38,1
3.970562,0.96,0.552,0.039,-43.823,-9.948,2.38,1
3.978578,0.959,0.56,0.041,-43.457,-8.911,2.441,1
3.985192,0.965,0.571,0.028,-43.334,-7.995,1.953,1
3.993469,0.97,0.588,0.025,-44.372,-6.591,1.464,1
4.000303,0.976,0.599,0.009,-43.64,-5.371,0.671,1
4.008109,0.98,0.607,-0.023,-43.945,-4.577,0.671,1
4.015153,0.98,0.608,-0.044,-43.884,-3.356,-0.427,1
4.02335,0.978,0.607,-0.09,-47.119,-2.746,-1.586,1
4.031936,0.975,0.604,-0.12,-53.405,-1.281,-2.807,1
4.038621,0.995,0.619,-0.147,-56.762,-1.342,-3.723,1
4.047009,1.005,0.633,-0.154,-54.565,-2.075,-4.882,1
4.053646,1.008,0.636,-0.163,-48.156,-3.356,-5.493,1
4.061836,1.006,0.632,-0.168,-42.236,-3.967,-6.225,1
4.069804,0.998,0.629,-0.18,-38.269,-5.187,-6.835,1
4.077541,1.011,0.631,-0.183,-35.095,-5.249,-7.385,1
4.084673,1.015,0.628,-0.185,-33.813,-5.126,-7.995,1
4.093043,1.012,0.63,-0.19,-35.339,-5.004,-8.361,1
4.099871,1.008,0.642,-0.195,-38.452,-4.516,-8.605,1
4.108378,1.006,0.644,-0.206,-43.579,-3.662,-9.338,1
4.115165,1.009,0.645,-0.221,-50.354,-2.624,-10.009,1
4.123603,1.005,0.652,-0.249,-61.34,-0.854,-11.108,1
4.130649,1.0,0.657,-0.272,-71.655,0.122,-11.962,1
4.138643,1.007,0.673,-0.297,-81.359,0.854,-13.061,1
4.145212,1.031,0.69,-0.311,-88.256,1.22,-13.977,1
4.15228,1.032,0.699,-0.318,-91.491,1.281,-14.648,1
4.160353,1.033,0.721,-0.333,-91.003,0.488,-15.441,1
4.166757,1.038,0.729,-0.342,-88.562,0.122,-16.479,1
4.17491,1.035,0.73,-0.353,-86.73,-0.366,-17.333,1
4.181854,1.028,0.738,-0.359,-84.289,-0.732,-18.249,1
4.190323,1.022,0.739,-0.376,-83.374,-0.976,-19.531,1
4.197271,1.02,0.741,-0.392,-83.679,-1.037,-20.629,1
4.205767,1.001,0.735,-0.407,-85.388,-1.525,-21.606,1
4.213936,0.993,0.73,-0.429,-89.965,-1.831,-22.949,1
4.220848,1.015,0.726,-0.447,-95.092,-2.38,-24.353,1
4.228922,1.032,0.714,-0.475,-101.257,-3.051,-25.573,1
4.237159,1.074,0.702,-0.498,-108.032,-5.187,-27.587,1
4.244734,1.123,0.693,-0.515,-109.313,-7.141,-29.357,1
4.253035,1.174,0.668,-0.527,-106.262,-10.314,-31.005,1
4.261162,1.226,0.64,-0.533,-99.304,-13.122,-32.409,1
4.269427,1.278,0.593,-0.522,-88.5,-16.052,-34.545,1
4.276273,1.32,0.551,-0.529,-80.444,-17.639,-36.132,1
4.285172,1.362,0.514,-0.534,-76.538,-17.883,-38.33,1
4.292465,1.373,0.482,-0.556,-81.481,-17.883,-40.344,1
4.298993,1.363,0.456,-0.574,-94.421,-17.272,-42.419,1
4.307095,1.362,0.442,-0.599,-110.595,-16.418,-44.555,1
4.314408,1.362,0.44,-0.603,-124.572,-16.967,-46.142,1
4.32301,1.333,0.44,-0.598,-133.056,-17.089,-47.18,1
4.329456,1.297,0.435,-0.586,-135.864,-18.615,-47.485,1
4.337725,1.225,0.437,-0.563,-134.094,-20.019,-47.18,1
4.345383,1.156,0.437,-0.542,-130.981,-21.972,-46.081,1
4.352465,1.098,0.436,-0.508,-128.967,-23.986,-44.25,1
4.36033,1.033,0.456,-0.471,-127.868,-25.146,-42.297,1
4.368609,0.978,0.473,-0.444,-129.577,-26.672,-39.428,1
4.376398,0.881,0.522,-0.43,-134.521,-27.587,-36.987,1
4.385108,0.774,0.578,-0.416,-139.587,-28.869,-34.912,1
4.391521,0.683,0.634,-0.407,-142.089,-30.578,-33.142,1
4.399727,0.613,0.684,-0.396,-140.014,-33.02,-31.982,1
4.408208,0.547,0.722,-0.397,-136.474,-36.01,-31.433,1
4.414741,0.482,0.761,-0.391,-131.774,-38.94,-30.456,1
4.423059,0.443,0.782,-0.372,-125.61,-42.846,-30.273,1
4.430016,0.415,0.811,-0.353,-119.934,-45.471,-30.761,1
4.438362,0.387,0.826,-0.326,-113.952,-48.278,-31.249,1
4.444988,0.362,0.835,-0.312,-111.328,-50.659,-32.226,1
4.452913,0.341,0.835,-0.303,-112.731,-52.429,-33.569,1
4.461033,0.334,0.84,-0.291,-116.271,-54.26,-35.217,1
4.469487,0.333,0.835,-0.286,-119.628,-56.152,-37.17,1
4.477266,0.337,0.835,-0.272,-120.483,-58.532,-39.55,1
4.484316,0.34,0.828,-0.263,-116.76,-60.791,-41.687,1
4.491873,0.339,0.811,-0.258,-112.976,-62.805,-43.64,1
4.499685,0.331,0.799,-0.258,-108.337,-65.49,-45.715,1
4.508456,0.317,0.787,-0.255,-103.698,-68.908,-48.706,1
4.516357,0.283,0.766,-0.255,-100.28,-71.472,-51.025,1
4.52328,0.266,0.741,-0.253,-99.365,-74.707,-54.138,1
4.531714,0.251,0.711,-0.243,-98.51,-77.697,-57.434,1
4.538596,0.24,0.673,-0.238,-97.656,-80.81,-60.729,1
4.546746,0.241,0.626,-0.217,-98.205,-84.228,-64.514,1
4.554949,0.247,0.576,-0.213,-99.365,-87.219,-67.504,1
4.562231,0.254,0.533,-0.198,-100.524,-90.209,-70.556,1
4.56939,0.255,0.487,-0.194,-101.867,-92.956,-73.242,1
4.577291,0.237,0.44,-0.191,-104.37,-95.886,-75.561,1
4.585144,0.223,0.395,-0.198,-109.313,-98.693,-77.453,1
4.59195,0.208,0.356,-0.206,-117.126,-101.745,-79.406,1
4.599974,0.187,0.316,-0.206,-129.394,-103.82,-80.566,1
4.60697,0.173,0.282,-0.207,-145.507,-106.933,-81.176,1
4.615087,0.169,0.255,-0.191,-158.691,-109.985,-81.176,1
4.623238,0.179,0.237,-0.173,-163.757,-113.647,-81.115,1
4.630988,0.183,0.204,-0.159,-165.1,-118.225,-81.848,1
4.639209,0.197,0.167,-0.139,-159.851,-121.948,-81.359,1
4.647473,0.194,0.141,-0.125,-147.644,-127.868,-81.42,1
4.6558,0.181,0.112,-0.115,-135.192,-132.385,-80.871,1
4.663825,0.16,0.075,-0.094,-125.061,-138.0,-80.444,1
4.670772,0.136,0.052,-0.076,-119.812,-142.395,-79.528,1
4.679038,0.111,0.043,-0.053,-115.234,-147.155,-78.186,1
4.687755,0.094,0.039,-0.024,-108.215,-151.855,-76.293,1
4.694283,0.068,0.047,0.01,-99.67,-156.921,-75.317,1
4.702629,0.054,0.044,0.03,-87.524,-162.963,-74.096,1
4.710343,0.024,0.055,0.052,-76.354,-168.09,-73.547,1
4.719043,-0.021,0.057,0.069,-64.575,-173.278,-73.364,1
4.726916,-0.086,0.055,0.083,-55.053,-178.283,-73.669,1
4.733445,-0.144,0.068,0.094,-45.532,-183.105,-74.646,1
4.741816,-0.241,0.031,0.09,-41.687,-186.95,-75.866,1
4.748391,-0.325,0.0,0.096,-44.921,-190.124,-76.538,1
4.756918,-0.381,-0.029,0.096,-52.062,-192.016,-76.965,1
4.76415,-0.431,-0.06,0.096,-66.65,-193.786,-76.904,1
4.772417,-0.458,-0.09,0.094,-86.059,-195.007,-76.11,1
4.780646,-0.534,-0.101,0.092,-108.154,-197.265,-74.951,1
4.787301,-0.671,-0.112,0.1,-129.577,-199.218,-73.059,1
4.795397,-0.8,-0.142,0.088,-154.602,-201.354,-69.152,1
4.803547,-0.894,-0.133,0.09,-181.701,-204.528,-63.842,1
4.810923,-0.993,-0.129,0.091,-199.218,-208.74,-58.837,1
4.819304,-1.15,-0.144,0.086,-211.914,-213.684,-52.429,1
4.827294,-1.288,-0.152,0.096,-220.214,-219.482,-45.654,1
4.834144,-1.426,-0.155,0.087,-225.891,-226.135,-38.269,1
4.8419,-1.622,-0.188,0.105,-230.712,-233.032,-29.296,1
4.849725,-1.738,-0.212,0.112,-237.426,-239.318,-19.348,1
4.856606,-1.844,-0.236,0.14,-244.934,-246.093,-8.117,1
4.863623,-1.963,-0.229,0.162,-249.511,-251.159,4.211,1
4.87125,-2.136,-0.264,0.185,-259.704,-256.164,20.202,1
4.87855,-2.374,-0.336,0.222,-278.747,-258.667,39.611,1
4.886946,-2.592,-0.398,0.268,-301.147,-259.826,58.227,1
4.893389,-2.804,-0.478,0.328,-331.542,-257.873,83.312,1
4.901822,-2.92,-0.604,0.394,-368.103,-254.699,113.159,1
4.908302,-3.006,-0.736,0.51,-411.621,-246.459,146.484,1
4.915619,-3.184,-0.822,0.645,-447.143,-235.9,182.495,1
4.924011,-3.406,-0.886,0.83,-467.651,-221.252,221.374,1
4.930484,-3.619,-0.957,1.035,-467.59,-204.895,262.878,1
4.938675,-3.865,-1.026,1.277,-449.401,-184.57,305.542,1
4.945369,-4.245,-1.062,1.516,-422.18,-164.733,340.881,1
4.953679,-4.576,-1.132,1.729,-385.803,-137.695,384.033,1
4.961303,-4.944,-1.232,1.928,-359.008,-104.431,427.978,1
4.967721,-5.202,-1.526,2.165,-376.708,-65.551,474.853,1
4.97555,-5.361,-1.828,2.439,-448.303,-6.713,524.475,1
4.982437,-6.002,-1.864,2.636,-534.24,61.645,573.059,1
4.99063,-6.898,-1.671,2.792,-577.575,139.099,619.934,1
4.997455,-7.873,-1.385,2.793,-567.016,212.89,662.17,1
5.005179,-8.864,-1.129,2.706,-535.339,272.521,693.481,1
5.013431,-9.902,-0.889,2.524,-500.183,339.538,726.196,1
5.019903,-10.808,-0.636,2.353,-476.196,402.893,752.563,1
5.027761,-11.956,-0.255,2.165,-439.392,459.96,772.155,1
5.034613,-13.009,0.134,1.943,-377.685,508.483,785.827,1
5.042859,-14.2,0.532,1.722,-310.974,547.546,796.081,1
5.049338,-15.21,0.887,1.474,-255.798,575.866,802.246,1
5.057601,-15.999,1.114,1.238,-231.75,603.576,807.739,1
5.064598,-15.999,1.628,1.099,-213.806,634.582,808.654,1
5.071221,-15.999,1.896,0.917,-176.94,658.874,806.091,1
5.079284,-15.999,2.066,0.788,-145.019,676.696,803.039,1
5.087674,-15.999,2.006,0.471,-173.339,693.908,798.706,1
5.094103,-15.999,1.975,0.282,-248.779,720.275,792.907,1
5.102,-15.999,2.041,-0.116,-289.978,744.689,781.616,1
5.110272,-15.999,2.05,-0.073,-278.625,761.535,765.991,1
5.11831,-15.999,2.204,-0.232,-203.979,773.925,755.92,1
5.12604,-15.999,2.327,-0.433,-117.004,762.878,746.459,1
5.134096,-15.999,2.397,-0.98,-78.125,749.023,735.534,1
5.140705,-15.999,2.399,-1.063,-127.624,720.581,712.097,1
5.148797,-15.999,2.627,-1.291,-205.017,726.135,682.922,1
5.15571,-15.999,2.987,-1.625,-343.749,724.548,630.493,1
5.164177,-15.999,3.167,-2.024,-501.647,751.037,563.476,1
5.171194,-14.594,3.434,-2.932,-783.813,770.385,466.857,1
5.178591,-11.461,3.721,-3.983,-1141.174,854.614,347.839,1
5.185379,-10.0,3.534,-5.277,-1421.691,836.364,217.956,1
5.192789,-9.54,3.004,-3.868,-1538.879,853.027,50.781,1
5.200624,-8.723,1.743,-3.806,-1452.148,834.472,-84.533,1
5.208889,-8.436,1.313,-3.325,-1302.001,749.938,-206.298,1
5.21693,-7.458,0.95,-2.845,-1021.24,670.288,-290.283,1
5.223849,-6.252,0.732,-2.547,-661.254,559.143,-346.679,1
5.232233,-5.79,0.292,-2.446,-242.37,471.618,-371.948,1
5.239206,-5.62,-0.331,-2.877,-84.655,410.705,-371.032,1
5.247853,-5.132,-0.786,-3.068,-93.688,374.084,-362.67,1
5.254426,-4.624,-0.963,-3.095,-153.747,338.623,-355.651,1
5.262044,-4.298,-1.006,-2.852,-181.457,307.739,-349.792,1
5.270622,-4.066,-1.092,-2.706,-174.56,276.733,-342.224,1
5.2772,-3.625,-1.286,-2.614,-171.691,247.68,-332.336,1
5.285658,-3.076,-1.496,-2.49,-197.998,222.412,-320.922,1
5.293988,-2.613,-1.618,-2.28,-243.774,201.477,-309.631,1
5.301112,-2.252,-1.63,-2.083,-306.884,176.94,-296.203,1
5.309241,-1.976,-1.549,-1.845,-338.012,155.761,-285.217,1
5.317915,-1.785,-1.498,-1.74,-343.933,130.31,-271.911,1
5.326026,-1.572,-1.374,-1.551,-294.372,103.271,-257.629,1
5.333611,-1.39,-1.368,-1.49,-186.157,70.8,-240.478,1
5.341736,-1.245,-1.428,-1.437,-95.336,49.682,-224.426,1
5.348136,-1.169,-1.468,-1.441,-39.733,31.799,-207.824,1
5.356358,-1.088,-1.473,-1.398,-12.939,19.775,-191.467,1
5.364633,-0.986,-1.454,-1.367,1.342,9.826,-175.842,1
5.371163,-0.854,-1.431,-1.312,7.934,1.708,-161.132,1
5.378937,-0.717,-1.36,-1.269,13.244,-5.126,-147.644,1
5.387101,-0.587,-1.334,-1.218,-3.54,-11.291,-134.643,1
5.39564,-0.474,-1.259,-1.135,-26.428,-15.502,-122.375,1
5.404217,-0.361,-1.167,-1.064,-39.978,-21.911,-109.252,1
5.412361,-0.268,-1.067,-1.013,-45.288,-27.16,-98.754,1
5.420656,-0.226,-0.971,-0.963,-45.776,-35.4,-87.463,1
5.42893,-0.246,-0.873,-0.884,-57.556,-41.87,-76.965,1
5.436827,-0.191,-0.81,-0.834,-61.767,-45.41,-68.359,1
5.444036,-0.168,-0.721,-0.762,-60.913,-50.781,-60.485,1
5.451973,-0.123,-0.659,-0.729,-55.297,-52.917,-52.062,1
5.459829,-0.104,-0.57,-0.645,-48.034,-56.579,-44.372,1
5.466441,-0.081,-0.499,-0.607,-37.841,-57.922,-37.841,1
5.475097,-0.05,-0.447,-0.556,-29.052,-58.593,-32.104,1
5.481815,0.026,-0.407,-0.515,-24.108,-58.471,-26.977,1
5.490526,0.096,-0.371,-0.469,-24.353,-57.678,-21.484,1
5.497066,0.181,-0.335,-0.436,-27.832,-55.969,-16.784,1
5.505424,0.287,-0.295,-0.416,-34.362,-54.321,-10.742,1
5.512266,0.388,-0.25,-0.4,-42.785,-52.185,-4.516,1
5.520186,0.447,-0.207,-0.388,-57.556,-50.109,2.014,1
5.528106,0.486,-0.136,-0.367,-66.223,-47.485,6.591,1
5.534531,0.525,-0.081,-0.373,-73.974,-46.02,10.986,1
5.542747,0.524,-0.013,-0.353,-77.331,-44.738,15.38,1
5.549719,0.515,0.033,-0.353,-76.354,-43.884,19.287,1
5.558228,0.51,0.073,-0.345,-71.899,-43.09,21.667,1
5.564827,0.521,0.106,-0.356,-64.636,-42.541,23.681,1
5.573089,0.544,0.133,-0.362,-56.396,-41.076,25.207,1
5.580464,0.538,0.148,-0.366,-46.142,-40.405,26.855,1
5.588848,0.603,0.152,-0.383,-37.902,-39.306,28.32,1
5.59549,0.578,0.15,-0.368,-31.921,-38.574,29.541,1
5.603855,0.616,0.134,-0.365,-30.944,-36.254,30.334,1
5.611371,0.634,0.11,-0.359,-36.621,-34.667,31.738,1
5.619691,0.648,0.104,-0.346,-48.217,-31.005,33.752,1
5.626439,0.627,0.107,-0.332,-58.898,-28.869,35.522,1
5.634256,0.603,0.109,-0.307,-70.068,-25.878,36.865,1
5.641992,0.666,0.113,-0.326,-79.162,-23.193,38.94,1
5.650026,0.729,0.124,-0.316,-85.937,-19.836,40.405,1
5.657677,0.751,0.148,-0.342,-92.163,-16.418,41.992,1
5.664487,0.823,0.175,-0.374,-99.121,-13.061,43.151,1
5.672507,0.843,0.199,-0.41,-107.482,-9.521,43.395,1
5.68026,0.812,0.214,-0.439,-118.957,-6.408,43.579,1
5.688613,0.792,0.21,-0.457,-136.474,-2.99,45.043,1
5.695172,0.779,0.203,-0.465,-160.034,0.854,45.593,1
5.704101,0.767,0.222,-0.449,-185.119,4.272,47.363,1
5.710388,0.787,0.217,-0.426,-208.19,7.141,49.499,1
5.717485,0.829,0.216,-0.4,-227.172,9.277,51.452,1
5.725139,0.873,0.2,-0.376,-239.868,10.62,53.588,1
5.73309,0.914,0.174,-0.356,-247.741,12.451,55.725,1
5.740045,0.962,0.143,-0.351,-252.807,13.854,57.739,1
5.747048,1.002,0.121,-0.336,-252.624,16.235,59.143,1
5.755131,1.062,0.105,-0.34,-248.962,17.639,59.631,1
5.761754,1.057,0.1,-0.331,-239.135,19.165,60.058,1
5.769949,0.958,0.091,-0.325,-224.731,20.69,60.424,1
5.777385,0.925,0.087,-0.308,-209.777,22.888,61.218,1
5.784122,0.883,0.076,-0.311,-194.58,23.803,61.645,1
5.792103,0.909,0.078,-0.273,-177.673,26.0,61.584,1
5.79885,0.913,0.078,-0.281,-161.254,26.123,61.584,1
5.806033,0.995,0.091,-0.228,-135.131,26.672,61.096,1
5.813935,1.061,0.088,-0.249,-106.079,24.902,60.302,1
5.822094,1.187,0.059,-0.226,-75.195,24.658,59.631,1
5.828517,1.232,0.049,-0.242,-49.926,24.047,59.082,1
5.835271,1.307,0.01,-0.248,-30.334,26.0,60.974,1
5.843218,1.311,-0.04,-0.263,-20.629,26.55,63.598,1
5.850738,1.333,-0.09,-0.3,-15.014,31.127,68.847,1
5.858658,1.252,-0.134,-0.386,-22.521,35.278,73.181,1
5.866417,1.081,-0.145,-0.417,-37.597,40.832,76.538,1
5.873161,0.922,-0.126,-0.502,-57.678,44.738,78.552,1
5.881581,0.839,-0.07,-0.503,-75.378,48.339,80.139,1
5.890225,0.814,-0.02,-0.562,-92.529,50.72,80.444,1
5.898657,0.771,0.026,-0.574,-101.318,51.818,80.2,1
5.9053,0.685,0.075,-0.64,-104.248,51.147,79.04,1
5.913262,0.596,0.125,-0.673,-95.153,49.072,77.636,1
5.920393,0.565,0.145,-0.723,-79.65,44.921,76.354,1
5.928123,0.576,0.154,-0.73,-60.852,40.954,74.462,1
5.936138,0.634,0.161,-0.789,-36.376,36.499,73.425,1
5.944865,0.607,0.177,-0.775,-17.272,32.47,73.242,1
5.951599,0.642,0.205,-0.855,4.455,26.672,72.753,1
5.959204,0.63,0.233,-0.868,24.841,22.033,72.387,1
5.967107,0.65,0.253,-0.916,38.818,16.906,72.448,1
5.973821,0.65,0.273,-0.928,46.02,12.451,72.326,1
5.981802,0.651,0.285,-0.954,46.142,9.155,72.937,1
5.988595,0.632,0.306,-0.945,39.611,5.249,73.608,1
5.997101,0.636,0.324,-0.94,33.569,1.647,74.401,1
6.0037,0.663,0.353,-0.918,32.165,-1.647,74.584,1
6.01143,0.687,0.375,-0.907,34.79,-3.784,74.89,1
6.0184,0.733,0.398,-0.905,38.879,-6.53,75.134,1
6.025978,0.731,0.417,-0.91,39.916,-8.85,74.768,1
6.033738,0.71,0.436,-0.916,36.499,-11.169,74.035,1
6.040562,0.676,0.446,-0.927,29.113,-13.305,73.425,1
6.048662,0.643,0.46,-0.923,21.545,-14.526,72.692,1
6.055352,0.598,0.466,-0.903,10.925,-15.258,71.594,1
6.063475,0.565,0.459,-0.88,-2.075,-15.502,70.678,1
6.071642,0.582,0.45,-0.843,-16.906,-15.686,70.068,1
6.078658,0.606,0.444,-0.803,-32.714,-15.319,69.458,1
6.086685,0.623,0.427,-0.77,-42.724,-15.38,69.519,1
6.094351,0.643,0.406,-0.725,-48.645,-15.747,69.885,1
6.102512,0.614,0.392,-0.686,-49.316,-16.357,69.885,1
6.110237,0.61,0.38,-0.614,-43.029,-16.54,70.495,1
6.117971,0.594,0.316,-0.625,-36.682,-18.432,70.922,1
6.125012,0.544,0.264,-0.549,-31.005,-18.188,71.228,1
6.132668,0.503,0.217,-0.532,-27.954,-18.493,72.265,1
6.141223,0.46,0.185,-0.45,-24.658,-17.639,73.73,1
6.147776,0.437,0.171,-0.441,-20.751,-16.113,75.012,1
6.155511,0.441,0.159,-0.407,-16.357,-14.953,76.416,1
6.163255,0.38,0.167,-0.404,-11.291,-12.817,78.247,1
6.171642,0.395,0.167,-0.394,-2.197,-11.718,80.078,1
6.179056,0.422,0.15,-0.381,2.868,-8.544,82.702,1
6.187268,0.472,0.123,-0.387,2.319,-5.432,85.632,1
6.194961,0.533,0.122,-0.391,-4.455,-1.464,88.684,1
6.201343,0.541,0.13,-0.404,-16.174,2.014,91.552,1
6.209052,0.538,0.167,-0.414,-28.503,5.249,94.726,1
6.216191,0.52,0.208,-0.445,-40.039,6.652,97.839,1
6.224392,0.545,0.267,-0.458,-46.936,8.361,100.524,1
6.231339,0.542,0.333,-0.495,-50.17,7.507,101.989,1
6.238259,0.513,0.4,-0.525,-49.621,7.69,103.82,1
6.246889,0.487,0.452,-0.569,-45.41,6.347,105.041,1
6.253361,0.418,0.529,-0.622,-36.804,4.333,105.773,1
6.260655,0.312,0.606,-0.672,-24.23,1.281,105.895,1
6.268772,0.223,0.672,-0.709,-7.08,-2.441,104.98,1
6.276321,0.204,0.722,-0.727,11.962,-7.08,103.515,1
6.283234,0.272,0.741,-0.732,33.02,-11.84,101.806,1
6.291707,0.32,0.77,-0.662,51.452,-18.615,100.28,1
6.298174,0.442,0.752,-0.697,74.707,-19.897,98.449,1
6.306402,0.498,0.73,-0.721,79.895,-25.573,96.191,1
6.313265,0.491,0.729,-0.66,75.012,-28.442,94.543,1
6.32167,0.547,0.722,-0.711,64.086,-28.869,93.322,1
6.329895,0.577,0.743,-0.717,49.56,-31.555,91.552,1
6.336456,0.583,0.783,-0.732,32.592,-31.555,89.721,1
6.344864,0.577,0.834,-0.735,19.836,-32.958,88.745,1
6.352694,0.589,0.855,-0.719,7.873,-32.958,87.158,1
6.359165,0.585,0.875,-0.692,1.892,-33.874,86.242,1
6.36742,0.607,0.893,-0.667,2.014,-33.813,85.083,1
6.375351,0.626,0.915,-0.642,7.995,-35.095,83.557,1
6.381824,0.624,0.93,-0.628,20.08,-36.071,81.359,1
6.390022,0.602,0.949,-0.617,31.494,-37.231,79.833,1
6.3982,0.618,0.968,-0.618,44.128,-38.513,77.148,1
6.404662,0.629,0.987,-0.623,48.339,-39.428,74.646,1
6.413621,0.632,1.01,-0.637,45.837,-40.283,72.143,1
6.420258,0.636,1.033,-0.629,40.161,-40.71,69.702,1
6.428181,0.628,1.044,-0.625,35.461,-41.748,67.321,1
6.436505,0.609,1.051,-0.606,32.775,-42.358,64.453,1
6.443805,0.6,1.056,-0.592,33.02,-43.395,62.011,1
6.450268,0.587,1.055,-0.581,34.484,-44.799,59.509,1
6.458349,0.579,1.046,-0.562,35.888,-45.715,57.128,1
6.465278,0.591,1.015,-0.553,35.766,-46.203,55.236,1
6.472354,0.595,0.983,-0.541,29.785,-46.386,53.588,1
6.480394,0.622,0.99,-0.523,22.705,-46.02,51.94,1
6.488635,0.589,0.998,-0.512,21.667,-46.508,49.682,1
6.496272,0.569,1.0,-0.496,25.878,-46.752,47.729,1
6.504471,0.584,0.989,-0.488,30.395,-47.363,45.898,1
6.51077,0.604,0.966,-0.469,32.836,-47.119,43.945,1
6.518714,0.596,0.964,-0.476,31.066,-46.447,41.625,1
6.526285,0.568,0.97,-0.465,28.503,-45.471,40.161,1
6.533108,0.554,0.979,-0.465,23.01,-44.494,38.146,1
6.541704,0.546,0.987,-0.447,17.578,-43.64,36.315,1
6.548879,0.541,0.993,-0.429,13.488,-42.48,34.423,1
6.55537,0.52,1.001,-0.411,12.39,-41.625,32.47,1
6.563283,0.5,1.002,-0.391,12.939,-40.649,30.7,1
6.569773,0.488,0.992,-0.365,13.488,-39.794,29.052,1
6.578305,0.479,0.974,-0.351,11.535,-38.513,27.404,1
6.584694,0.483,0.972,-0.331,8.789,-36.743,25.268,1
6.592614,0.464,0.98,-0.3,7.568,-35.461,23.437,1
6.600818,0.457,0.976,-0.286,7.934,-33.63,21.545,1
6.607202,0.463,0.969,-0.28,5.798,-32.104,19.775,1
6.615322,0.479,0.959,-0.28,0.793,-29.907,18.31,1
6.622263,0.493,0.961,-0.278,-5.31,-28.686,16.723,1
6.630171,0.497,0.966,-0.267,-9.216,-27.038,15.808,1
6.637091,0.494,0.98,-0.258,-11.169,-25.939,14.77,1
6.64497,0.498,0.98,-0.258,-11.474,-25.268,13.671,1
6.653173,0.497,0.979,-0.251,-11.23,-24.353,12.512,1
6.659872,0.504,0.965,-0.249,-12.084,-22.888,10.925,1
6.666772,0.515,0.952,-0.242,-13.671,-22.033,10.07,1
6.674258,0.508,0.949,-0.235,-14.709,-20.874,8.728,1
6.681983,0.498,0.935,-0.236,-16.052,-19.226,7.751,1
6.689066,0.49,0.925,-0.234,-17.517,-17.883,6.53,1
6.696935,0.489,0.915,-0.239,-19.47,-17.028,5.554,1
6.705245,0.488,0.906,-0.237,-20.263,-15.991,4.638,1
6.711878,0.495,0.894,-0.237,-18.92,-14.831,3.662,1
6.720216,0.497,0.876,-0.239,-16.54,-14.343,3.295,1
6.728237,0.501,0.864,-0.242,-15.136,-13.549,2.746,1
6.735959,0.509,0.849,-0.243,-13.732,-12.39,2.258,1
6.743763,0.52,0.839,-0.245,-12.756,-11.596,1.403,1
6.751944,0.53,0.834,-0.242,-11.169,-10.864,1.342,1
6.76025,0.529,0.819,-0.239,-9.521,-9.704,0.976,1
6.76825,0.529,0.804,-0.236,-8.911,-8.239,0.915,1
6.775024,0.522,0.796,-0.235,-10.07,-7.019,0.793,1
6.783547,0.523,0.79,-0.23,-11.047,-5.981,0.61,1
6.79005,0.52,0.775,-0.235,-11.657,-4.882,0.976,1
6.798384,0.511,0.776,-0.245,-13.244,-3.356,0.671,1
6.806261,0.499,0.775,-0.267,-15.014,-2.38,0.549,1
6.812935,0.492,0.773,-0.278,-16.357,-1.464,0.366,1
6.821275,0.479,0.787,-0.29,-13.732,-0.549,0.061,1
6.829005,0.495,0.781,-0.296,-7.629,-0.427,-0.061,1
6.835961,0.488,0.768,-0.313,-3.601,0.427,-0.305,1
6.843963,0.481,0.772,-0.337,-2.258,0.671,-0.305,1
6.85186,0.486,0.785,-0.349,-0.671,1.281,-0.549,1
6.859868,0.498,0.784,-0.38,-1.037,1.586,-0.61,1
6.867673,0.492,0.786,-0.398,-2.563,2.014,-0.976,1
6.874471,0.501,0.789,-0.409,-2.502,1.831,-1.037,1
6.882323,0.478,0.787,-0.43,-4.089,2.319,-0.732,1
6.890522,0.478,0.786,-0.431,-4.821,1.831,-0.915,1
6.899398,0.497,0.782,-0.437,-3.051,1.892,-0.854,1
6.906028,0.496,0.782,-0.466,-4.15,2.258,-1.159,1
6.914595,0.485,0.784,-0.479,-7.812,2.075,-1.22,1
6.921064,0.482,0.794,-0.492,-10.925,2.197,-1.525,1
6.929114,0.481,0.807,-0.505,-11.352,1.77,-1.77,1
6.935889,0.49,0.811,-0.518,-10.375,1.342,-1.953,1
6.943831,0.51,0.811,-0.541,-10.681,0.793,-2.197,1
6.950762,0.505,0.823,-0.558,-14.404,0.61,-2.868,1
6.958716,0.512,0.845,-0.599,-16.418,-0.244,-3.112,1
6.967478,0.529,0.855,-0.619,-17.089,-1.831,-3.601,1
6.97545,0.52,0.861,-0.656,-15.991,-2.441,-4.211,1
6.983909,0.517,0.87,-0.675,-13.061,-5.187,-4.943,1
6.991885,0.507,0.856,-0.691,-9.155,-6.469,-5.432,1
6.999853,0.496,0.84,-0.719,-10.925,-8.3,-5.981,1
7.009357,0.5,0.827,-0.728,-15.502,-8.911,-6.164,1
7.017644,0.5,0.829,-0.745,-21.728,-10.131,-6.896,1
7.024141,0.517,0.843,-0.772,-26.367,-10.559,-7.446,1
7.032843,0.522,0.859,-0.799,-33.63,-11.23,-7.812,1
7.041121,0.54,0.894,-0.842,-38.696,-12.39,-8.605,1
7.04789,0.56,0.938,-0.882,-37.963,-14.465,-9.216,1
7.055692,0.575,0.984,-0.947,-33.569,-17.15,-10.131,1
7.064035,0.584,1.015,-0.995,-29.663,-20.263,-11.23,1
7.071726,0.603,1.039,-1.028,-27.099,-23.01,-12.939,1
7.079023,0.64,1.074,-1.075,-26.733,-26.0,-14.709,1
7.085672,0.675,1.09,-1.1,-28.015,-28.137,-16.662,1
7.094829,0.706,1.106,-1.12,-33.386,-30.151,-18.737,1
7.101202,0.771,1.146,-1.132,-36.193,-32.287,-21.423,1
7.109246,0.711,1.179,-1.165,-44.677,-33.02,-23.437,1
7.117572,0.649,1.224,-1.209,-63.842,-34.24,-26.0,1
7.125193,0.612,1.281,-1.252,-82.458,-35.461,-28.564,1
7.132115,0.596,1.34,-1.29,-95.886,-37.78,-32.348,1
7.139915,0.572,1.385,-1.323,-101.867,-40.893,-35.705,1
7.148596,0.568,1.412,-1.355,-101.928,-45.043,-39.611,1
7.155086,0.575,1.403,-1.384,-102.233,-49.133,-43.762,1
7.164099,0.585,1.379,-1.396,-105.407,-53.161,-47.607,1
7.171944,0.59,1.354,-1.392,-112.182,-57.25,-52.001,1
7.179485,0.603,1.331,-1.369,-119.873,-60.302,-55.297,1
7.187825,0.6,1.311,-1.328,-126.22,-63.354,-58.288,1
7.194211,0.597,1.285,-1.279,-130.798,-66.467,-60.729,1
7.202599,0.585,1.25,-1.209,-135.803,-69.458,-62.499,1
7.210494,0.567,1.215,-1.139,-144.653,-71.289,-64.147,1
7.216925,0.536,1.174,-1.08,-156.494,-72.631,-65.307,1
7.225407,0.512,1.152,-1.022,-167.48,-73.791,-65.979,1
7.232344,0.5,1.133,-0.964,-173.645,-74.89,-66.467,1
7.240039,0.479,1.11,-0.925,-175.231,-75.805,-66.65,1
7.248814,0.443,1.076,-0.872,-174.011,-77.941,-67.199,1
7.255438,0.416,1.042,-0.825,-171.203,-79.04,-67.138,1
7.262583,0.388,1.001,-0.778,-165.222,-80.444,-67.199,1
7.270892,0.365,0.967,-0.735,-159.179,-81.726,-67.016,1
7.277479,0.336,0.919,-0.679,-153.808,-82.824,-66.772,1
7.285833,0.317,0.888,-0.615,-143.554,-84.472,-66.345,1
7.294187,0.333,0.849,-0.548,-131.591,-85.449,-65.979,1
7.300746,0.326,0.814,-0.5,-115.966,-86.181,-65.368,1
7.308805,0.327,0.771,-0.458,-104.858,-86.12,-64.88,1
7.315548,0.317,0.739,-0.437,-95.764,-85.937,-64.453,1
7.323126,0.311,0.703,-0.409,-90.82,-85.083,-63.72,1
7.330459,0.261,0.601,-0.404,-93.017,-84.411,-61.523,1
7.337869,0.342,0.539,-0.359,-107.482,-80.871,-56.396,1
7.345595,0.413,0.524,-0.396,-119.995,-79.65,-54.931,1
7.355163,0.397,0.522,-0.32,-128.723,-78.308,-52.612,1
7.363012,0.359,0.507,-0.333,-127.319,-77.697,-49.56,1
7.369872,0.445,0.475,-0.277,-122.558,-76.416,-47.546,1
7.377895,0.455,0.464,-0.269,-119.201,-75.317,-45.166,1
7.386164,0.567,0.466,-0.225,-114.746,-74.646,-43.334,1
7.393901,0.589,0.473,-0.216,-110.961,-74.401,-41.809,1
7.400883,0.609,0.476,-0.195,-105.041,-73.974,-40.527,1
7.408573,0.602,0.477,-0.195,-100.463,-74.096,-39.245,1
7.416244,0.612,0.487,-0.184,-95.581,-73.852,-37.536,1
7.425073,0.671,0.491,-0.189,-91.796,-74.035,-36.926,1
7.431594,0.706,0.512,-0.168,-88.5,-73.181,-36.499,1
7.439989,0.732,0.51,-0.16,-86.791,-71.96,-36.01,1
7.44703,0.778,0.542,-0.127,-85.571,-69.824,-36.193,1
7.455315,0.798,0.604,-0.085,-80.688,-68.237,-36.865,1
7.463444,0.847,0.661,-0.024,-68.664,-67.687,-37.658,1
7.470281,0.902,0.692,0.051,-50.476,-68.664,-38.391,1
7.478578,0.89,0.668,0.112,-38.513,-68.42,-38.696,1
7.48685,0.897,0.652,0.132,-34.851,-66.406,-39.794,1
7.495065,0.868,0.66,0.147,-38.818,-63.964,-42.297,1
7.501927,0.863,0.666,0.123,-53.222,-59.204,-45.166,1
7.509543,0.879,0.692,0.125,-70.19,-55.114,-47.485,1
7.5178,0.91,0.726,0.11,-95.947,-48.522,-50.964,1
7.525151,0.934,0.767,0.115,-126.586,-42.602,-55.603,1
7.531608,0.939,0.794,0.153,-155.7,-36.071,-59.814,1
7.54003,0.917,0.823,0.175,-179.565,-31.005,-64.147,1
7.546872,0.878,0.836,0.206,-192.993,-26.428,-68.298,1
7.554794,0.825,0.83,0.207,-197.387,-23.62,-72.082,1
7.561528,0.767,0.796,0.208,-197.387,-21.972,-76.171,1
7.569662,0.714,0.739,0.201,-195.373,-20.568,-80.139,1
7.577255,0.668,0.679,0.198,-190.429,-19.897,-83.801,1
7.584702,0.623,0.617,0.199,-183.41,-19.714,-86.791,1
7.591013,0.591,0.546,0.208,-171.569,-19.958,-90.087,1
7.59919,0.56,0.482,0.215,-158.874,-20.263,-93.078,1
7.605927,0.548,0.401,0.215,-147.888,-20.446,-95.52,1
7.614137,0.528,0.341,0.204,-138.0,-20.996,-97.656,1
7.621204,0.505,0.275,0.178,-127.38,-22.033,-99.121,1
7.629032,0.541,0.211,0.15,-114.868,-23.986,-100.524,1
7.635641,0.572,0.161,0.125,-104.553,-25.39,-101.379,1
7.644403,0.564,0.086,0.102,-93.322,-26.855,-102.172,1
7.65097,0.52,0.015,0.088,-83.557,-28.198,-103.332,1
7.659263,0.508,-0.039,0.09,-75.805,-28.137,-103.82,1
7.666403,0.544,-0.109,0.089,-70.251,-29.052,-103.637,1
7.674422,0.567,-0.179,0.104,-65.246,-29.113,-103.332,1
7.680878,0.566,-0.245,0.088,-67.932,-28.869,-102.722,1
7.690098,0.573,-0.292,0.089,-76.965,-28.808,-101.928,1
7.696835,0.592,-0.336,0.102,-86.73,-28.991,-100.402,1
7.703405,0.628,-0.36,0.139,-91.064,-28.869,-99.182,1
7.711373,0.643,-0.392,0.167,-89.904,-29.785,-97.656,1
7.718283,0.628,-0.432,0.219,-85.083,-29.968,-95.825,1
7.727025,0.597,-0.486,0.245,-83.129,-29.296,-93.749,1
7.734017,0.568,-0.534,0.268,-88.378,-27.893,-91.247,1
7.740767,0.533,-0.583,0.282,-101.135,-25.878,-88.745,1
7.748827,0.532,-0.606,0.306,-114.013,-23.681,-86.181,1
7.756802,0.506,-0.616,0.319,-118.652,-22.155,-84.289,1
7.763339,0.487,-0.629,0.311,-118.225,-20.019,-81.726,1
7.771667,0.418,-0.633,0.278,-118.041,-18.676,-79.406,1
7.779114,0.333,-0.639,0.235,-122.68,-17.7,-77.331,1
7.787377,0.234,-0.645,0.164,-131.652,-17.028,-75.195,1
7.793956,0.139,-0.652,0.105,-140.747,-16.845,-73.73,1
7.802275,0.002,-0.669,0.036,-149.047,-17.7,-72.692,1
7.809914,-0.064,-0.699,-0.03,-153.015,-20.446,-70.556,1
7.817757,-0.113,-0.753,-0.078,-149.353,-26.062,-68.42,1
7.82544,-0.177,-0.812,-0.125,-147.094,-31.066,-65.612,1
7.832377,-0.228,-0.875,-0.154,-145.935,-36.56,-61.889,1
7.841017,-0.356,-0.931,-0.196,-147.888,-41.503,-57.495,1
7.848234,-0.473,-0.996,-0.262,-153.503,-47.241,-52.185,1
7.856452,-0.572,-1.083,-0.33,-161.743,-53.955,-45.959,1
7.864963,-0.612,-1.157,-0.411,-168.701,-62.072,-37.17,1
7.871458,-0.663,-1.232,-0.468,-166.442,-71.655,-29.052,1
7.879037,-0.758,-1.328,-0.534,-157.897,-82.824,-19.897,1
7.886867,-0.828,-1.425,-0.585,-145.69,-94.97,-9.46,1
7.89493,-0.895,-1.523,-0.655,-129.699,-107.604,2.136,1
7.902087,-1.009,-1.606,-0.709,-113.708,-121.154,14.343,1
7.910222,-1.13,-1.661,-0.758,-98.388,-134.399,27.221,1
7.917158,-1.283,-1.723,-0.804,-89.477,-148.193,41.015,1
7.925429,-1.449,-1.784,-0.842,-89.965,-160.766,55.358,1
7.93249,-1.585,-1.846,-0.899,-95.153,-173.95,70.129,1
7.94085,-1.721,-1.878,-0.908,-89.599,-188.476,85.632,1
7.94865,-1.891,-1.932,-0.923,-69.58,-204.956,101.745,1
7.955602,-2.063,-2.0,-0.925,-43.151,-222.656,118.164,1
7.963462,-2.232,-2.133,-0.963,-25.39,-240.6,136.596,1
7.970307,-2.348,-2.284,-0.975,-34.118,-258.3,158.813,1
7.978279,-2.475,-2.467,-0.991,-58.105,-273.681,185.546,1
7.98655,-2.596,-2.436,-0.807,-73.852,-285.156,213.806,1
7.992954,-3.174,-2.278,-0.741,-67.932,-302.246,240.173,1
8.000561,-3.415,-2.097,-0.587,-33.02,-318.908,266.357,1
8.010033,-3.834,-1.996,-0.568,11.291,-339.66,291.687,1
8.016482,-4.219,-1.977,-0.465,22.338,-360.961,319.763,1
8.024999,-4.604,-1.969,-0.42,-27.832,-375.061,345.275,1
8.031836,-4.987,-1.853,-0.23,-90.332,-382.873,375.244,1
8.039977,-5.559,-1.797,-0.088,-149.658,-387.573,411.682,1
8.047164,-5.947,-1.667,0.099,-203.796,-385.07,452.087,1
8.055481,-6.507,-1.417,0.288,-249.999,-381.103,494.75,1
8.062079,-7.1,-1.204,0.442,-274.719,-369.995,539.428,1
8.069901,-7.749,-1.043,0.564,-301.818,-360.107,584.96,1
8.078003,-8.409,-0.928,0.778,-331.603,-338.928,632.812,1
8.085413,-9.075,-0.698,0.899,-353.576,-317.26,679.748,1
8.093139,-9.943,-0.385,1.105,-340.637,-291.931,723.327,1
8.101614,-10.803,-0.107,1.277,-307.8,-269.104,762.573,1
8.108348,-12.126,0.209,1.456,-268.981,-244.995,798.522,1
8.116188,-13.012,0.453,1.56,-242.37,-220.397,831.909,1
8.124641,-14.013,0.725,1.647,-231.262,-193.542,863.525,1
8.131692,-15.051,0.994,1.711,-230.163,-162.536,894.592,1
8.140078,-15.869,1.245,1.738,-244.567,-121.765,929.748,1
8.148196,-15.997,1.476,1.742,-259.521,-79.895,960.144,1
8.155982,-15.999,1.703,1.743,-277.648,-35.644,987.915,1
8.163048,-15.999,1.869,1.717,-292.846,16.54,1011.901,1
8.169781,-15.999,2.053,1.529,-309.265,64.086,1030.395,1
8.177817,-15.999,2.182,1.521,-378.173,123.413,1044.067,1
8.18568,-15.999,2.372,1.267,-485.778,197.692,1050.476,1
8.193852,-15.999,2.639,1.097,-583.313,278.869,1046.63,1
8.20087,-15.999,2.902,0.837,-636.413,369.079,1036.01,1
8.207261,-15.999,2.949,0.609,-665.832,458.557,1018.981,1
8.215924,-15.999,3.026,0.107,-710.998,552.795,994.689,1
8.222942,-15.999,3.145,-0.219,-767.456,644.897,955.444,1
8.23126,-15.999,3.285,-0.603,-789.977,732.91,897.949,1
8.237641,-15.999,3.295,-1.079,-816.955,806.884,821.105,1
8.245692,-15.999,3.329,-1.672,-880.126,868.164,722.045,1
8.252579,-15.999,3.675,-2.416,-955.749,913.696,599.914,1
8.260871,-15.999,3.479,-3.007,-1049.133,931.091,486.145,1
8.26821,-15.999,3.263,-3.776,-1155.395,978.942,341.247,1
8.275218,-15.556,3.043,-5.049,-1258.239,966.796,187.805,1
8.28357,-14.174,3.063,-4.329,-1270.874,917.48,24.841,1
8.291478,-12.293,2.274,-3.612,-1051.574,876.708,-127.319,1
8.299696,-11.729,1.574,-3.121,-844.116,816.65,-215.637,1
8.307753,-10.261,0.96,-3.184,-691.589,756.652,-272.827,1
8.315769,-9.38,0.69,-2.986,-553.466,682.983,-315.612,1
8.323074,-8.759,0.56,-2.955,-343.017,613.098,-343.872,1
8.33125,-7.961,0.361,-3.022,-183.715,548.095,-353.332,1
8.337558,-7.315,0.061,-3.028,-98.205,505.554,-351.318,1
8.347359,-6.4,-0.195,-3.219,-95.214,466.918,-345.336,1
8.353681,-5.709,-0.383,-3.184,-145.874,434.509,-340.209,1
8.361514,-4.957,-0.489,-3.089,-213.745,403.442,-337.646,1
8.370103,-4.445,-0.508,-2.886,-268.676,363.037,-338.195,1
8.378053,-4.007,-0.543,-2.699,-281.25,327.087,-338.561,1
8.386283,-3.605,-0.608,-2.476,-275.39,290.71,-337.402,1
8.393954,-3.192,-0.697,-2.246,-261.718,258.117,-332.946,1
8.402236,-2.891,-0.797,-2.127,-240.539,221.679,-323.608,1
8.408611,-2.69,-0.809,-2.076,-217.224,191.528,-313.537,1
8.416439,-2.594,-0.774,-2.007,-179.87,161.437,-302.917,1
8.425171,-2.514,-0.741,-1.937,-131.713,135.131,-292.358,1
8.432968,-2.353,-0.742,-1.868,-84.716,110.473,-281.555,1
8.439929,-2.162,-0.769,-1.771,-50.109,91.247,-270.751,1
8.448057,-2.001,-0.794,-1.679,-27.099,72.753,-258.239,1
8.456359,-1.847,-0.82,-1.604,-18.92,60.913,-247.558,1
8.464581,-1.648,-0.842,-1.535,-20.324,50.231,-236.999,1
8.470747,-1.541,-0.854,-1.466,-25.207,41.442,-227.111,1
8.479021,-1.393,-0.882,-1.416,-36.315,32.592,-217.529,1
8.486019,-1.239,-0.885,-1.366,-48.767,25.329,-207.397,1
8.495313,-1.108,-0.888,-1.329,-54.748,15.991,-197.143,1
8.503548,-0.973,-0.873,-1.26,-46.264,5.859,-185.058,1
8.511517,-0.916,-0.896,-1.227,-34.301,-2.929,-173.828,1
8.518031,-0.803,-0.914,-1.154,-19.714,-11.901,-160.583,1
8.526118,-0.667,-0.923,-1.096,-7.263,-18.554,-149.475,1
8.534377,-0.557,-0.934,-1.024,0.183,-23.132,-138.916,1
8.542109,-0.448,-0.942,-0.97,-2.197,-26.0,-128.234,1
8.550655,-0.328,-0.917,-0.905,-13.305,-27.709,-118.225,1
8.557365,-0.228,-0.863,-0.833,-24.963,-29.174,-108.764,1
8.565662,-0.175,-0.833,-0.785,-39.184,-30.517,-98.266,1
8.573564,-0.101,-0.798,-0.753,-53.894,-32.043,-89.355,1
8.581604,-0.057,-0.708,-0.696,-61.706,-33.508,-81.176,1
8.589857,-0.045,-0.63,-0.653,-56.152,-36.254,-73.059,1
8.598339,0.002,-0.562,-0.632,-44.555,-38.635,-67.138,1
8.606559,0.044,-0.519,-0.62,-32.653,-41.259,-59.997,1
8.61492,0.12,-0.503,-0.611,-27.526,-43.09,-54.016,1
8.622751,0.13,-0.455,-0.585,-29.052,-44.189,-46.997,1
8.631016,0.172,-0.41,-0.568,-31.188,-44.677,-41.503,1
8.637945,0.211,-0.356,-0.533,-31.188,-45.349,-36.621,1
8.645657,0.245,-0.32,-0.516,-28.869,-45.349,-31.677,1
8.652977,0.284,-0.301,-0.499,-29.541,-45.043,-26.794,1
8.66165,0.331,-0.266,-0.484,-31.005,-44.555,-21.85,1
8.668706,0.375,-0.211,-0.462,-31.494,-44.616,-17.089,1
8.67816,0.41,-0.18,-0.448,-31.127,-44.25,-12.329,1
8.684879,0.435,-0.161,-0.428,-31.86,-43.884,-7.873,1
8.692961,0.493,-0.138,-0.415,-30.456,-43.334,-3.295,1
8.699933,0.57,-0.16,-0.421,-35.095,-41.931,2.502,1
8.708035,0.628,-0.165,-0.425,-43.151,-39.978,7.324,1
8.716437,0.686,-0.156,-0.432,-57.739,-37.292,14.831,1
8.725021,0.711,-0.145,-0.442,-70.495,-35.522,21.545,1
8.731911,0.736,-0.126,-0.452,-83.251,-33.508,28.076,1
8.738794,0.763,-0.093,-0.462,-92.651,-31.555,33.996,1
8.746711,0.78,-0.069,-0.46,-98.937,-30.273,39.855,1
8.754917,0.756,-0.041,-0.455,-102.966,-28.625,45.166,1
8.762178,0.743,-0.01,-0.458,-105.651,-26.794,49.621,1
8.770716,0.719,0.019,-0.458,-108.032,-25.268,53.588,1
8.777206,0.729,0.052,-0.474,-111.755,-22.949,56.945,1
8.785317,0.706,0.086,-0.496,-117.614,-20.812,60.058,1
8.792216,0.701,0.134,-0.517,-120.788,-19.531,62.011,1
8.800473,0.712,0.173,-0.528,-120.605,-19.47,63.537,1
8.808629,0.684,0.198,-0.534,-115.722,-19.287,65.246,1
8.815582,0.722,0.223,-0.534,-106.567,-19.104,67.565,1
8.822555,0.723,0.236,-0.545,-98.449,-19.531,69.091,1
8.829943,0.713,0.258,-0.556,-92.529,-19.897,70.434,1
8.838293,0.731,0.267,-0.559,-86.914,-20.08,72.143,1
8.844942,0.75,0.284,-0.566,-84.472,-21.057,73.852,1
8.853255,0.76,0.31,-0.558,-84.106,-21.545,75.622,1
8.859727,0.77,0.359,-0.544,-84.228,-21.667,76.782,1
8.868059,0.76,0.375,-0.539,-89.782,-22.705,77.575,1
8.875785,0.688,0.372,-0.521,-98.327,-23.254,78.063,1
8.882657,0.685,0.365,-0.519,-110.351,-21.789,79.406,1
8.890521,0.693,0.359,-0.514,-126.22,-20.812,80.017,1
8.896927,0.699,0.352,-0.512,-141.357,-19.165,81.054,1
8.90534,0.693,0.353,-0.509,-156.433,-17.15,82.214,1
8.911818,0.693,0.354,-0.495,-166.381,-15.502,82.641,1
8.919742,0.704,0.361,-0.484,-168.945,-14.16,83.74,1
8.927477,0.724,0.372,-0.495,-161.193,-13.671,84.35,1
8.935788,0.749,0.371,-0.48,-150.268,-15.014,85.388,1
8.942074,0.779,0.344,-0.456,-137.695,-15.441,86.73,1
8.950134,0.815,0.324,-0.422,-127.685,-17.822,88.012,1
8.956898,0.86,0.295,-0.376,-116.943,-18.798,90.27,1
8.964659,0.893,0.285,-0.345,-106.201,-20.263,93.078,1
8.972509,0.919,0.279,-0.326,-98.205,-21.362,95.458,1
8.979117,0.942,0.29,-0.315,-90.454,-22.46,98.205,1
8.986276,0.923,0.295,-0.32,-86.303,-22.949,100.83,1
8.994173,0.886,0.296,-0.327,-88.867,-21.789,103.332,1
9.002189,0.82,0.311,-0.338,-99.121,-21.545,104.736,1
9.01059,0.784,0.318,-0.343,-111.633,-19.531,106.689,1
9.016498,0.768,0.351,-0.344,-123.413,-19.653,107.727,1
9.024579,0.762,0.376,-0.35,-129.272,-17.211,109.069,1
9.032012,0.788,0.415,-0.383,-131.042,-17.456,109.619,1
9.039513,0.774,0.455,-0.382,-129.15,-17.822,110.107,1
9.046143,0.776,0.461,-0.436,-121.52,-16.845,110.656,1
9.053092,0.752,0.483,-0.503,-114.318,-17.089,110.351,1
9.060682,0.729,0.512,-0.524,-104.858,-16.723,109.802,1
9.068888,0.695,0.543,-0.557,-93.2,-17.089,109.252,1
9.074993,0.663,0.568,-0.561,-82.031,-17.028,108.459,1
9.082814,0.716,0.543,-0.577,-68.664,-18.371,108.581,1
9.091969,0.668,0.553,-0.59,-60.546,-18.92,107.666,1
9.100101,0.685,0.581,-0.605,-61.401,-19.531,106.567,1
9.107244,0.651,0.611,-0.611,-64.941,-19.104,105.285,1
9.114828,0.638,0.643,-0.614,-67.626,-19.714,104.064,1
9.121265,0.615,0.671,-0.615,-66.528,-20.08,102.233,1
9.129588,0.59,0.689,-0.609,-62.683,-20.996,100.28,1
9.136607,0.591,0.697,-0.601,-57.189,-22.216,98.205,1
9.143981,0.58,0.7,-0.593,-52.49,-23.62,96.13,1
9.151664,0.58,0.699,-0.579,-46.691,-24.902,93.933,1
9.158997,0.583,0.701,-0.576,-40.161,-26.794,91.918,1
9.167396,0.565,0.694,-0.57,-33.386,-28.625,89.965,1
9.173802,0.548,0.689,-0.569,-28.747,-29.846,88.378,1
9.181994,0.547,0.697,-0.577,-23.559,-31.188,86.73,1
9.189011,0.556,0.702,-0.578,-18.493,-33.142,84.594,1
9.196581,0.565,0.716,-0.571,-12.512,-34.667,82.458,1
9.204214,0.56,0.721,-0.56,-6.347,-36.315,80.017,1
9.212443,0.567,0.715,-0.559,-0.366,-37.536,77.819,1
9.219093,0.573,0.706,-0.555,2.99,-38.818,75.5,1
9.22713,0.594,0.702,-0.545,4.089,-39.611,73.181,1
9.233883,0.609,0.705,-0.549,4.638,-40.527,70.861,1
9.242204,0.634,0.717,-0.547,8.239,-41.442,68.481,1
9.248661,0.647,0.72,-0.546,12.817,-41.992,66.345,1
9.257196,0.663,0.723,-0.54,19.531,-43.029,64.331,1
9.264587,0.698,0.728,-0.54,28.442,-43.884,62.133,1
9.271096,0.667,0.736,-0.542,35.583,-44.555,59.509,1
9.279311,0.682,0.724,-0.538,34.667,-45.227,56.762,1
9.285827,0.743,0.749,-0.483,38.757,-43.823,55.053,1
9.293121,0.808,0.788,-0.485,44.677,-45.349,52.673,1
9.301104,0.813,0.791,-0.461,49.926,-45.41,50.354,1
9.308969,0.842,0.768,-0.457,47.607,-45.593,48.339,1
9.315644,0.86,0.758,-0.448,41.32,-44.616,46.63,1
9.324058,0.883,0.764,-0.452,31.555,-43.212,44.555,1
9.330353,0.904,0.777,-0.447,23.193,-41.931,42.48,1
9.338037,0.904,0.787,-0.448,17.761,-40.466,40.588,1
9.346391,0.947,0.809,-0.435,14.831,-39.489,38.757,1
9.352951,0.946,0.82,-0.445,13.183,-38.757,36.865,1
9.360274,0.952,0.832,-0.434,10.559,-38.208,35.095,1
9.368434,0.91,0.83,-0.446,6.652,-37.048,33.63,1
9.376356,0.887,0.836,-0.422,1.586,-37.231,32.104,1
9.383021,0.916,0.856,-0.395,-3.417,-35.4,31.311,1
9.389534,0.914,0.859,-0.404,-8.239,-35.278,29.968,1
9.397524,0.904,0.87,-0.357,-11.047,-34.24,29.113,1
9.404982,0.884,0.887,-0.364,-10.559,-33.935,28.198,1
9.412815,0.876,0.91,-0.344,-7.934,-34.301,26.977,1
9.419341,0.913,0.93,-0.326,-2.075,-34.057,26.245,1
9.427588,0.929,0.952,-0.324,5.432,-34.667,24.719,1
9.433978,0.92,0.965,-0.304,14.648,-34.729,23.01,1
9.4418,0.87,0.969,-0.297,22.399,-34.912,21.057,1
9.449092,0.839,0.958,-0.271,28.991,-34.545,19.042,1
9.45613,0.774,0.95,-0.254,32.592,-33.447,16.601,1
9.463279,0.756,0.93,-0.214,34.24,-33.386,14.282,1
9.471643,0.686,0.884,-0.191,32.836,-31.311,13.122,1
9.477854,0.637,0.822,-0.195,20.751,-29.296,11.779,1
9.485956,0.629,0.766,-0.165,0.549,-25.634,11.169,1
9.492936,0.676,0.772,-0.131,-15.93,-23.437,12.329,1
9.501221,0.758,0.764,-0.106,-19.47,-21.24,13.061,1
9.508136,0.793,0.704,-0.111,-18.249,-20.69,13.549,1
9.517079,0.655,0.621,-0.116,-22.46,-17.211,14.465,1
9.522861,0.591,0.575,-0.12,-28.259,-16.235,15.747,1
9.531687,0.535,0.554,-0.08,-28.991,-13.671,17.456,1
9.53811,0.523,0.538,-0.073,-22.521,-12.39,18.981,1
9.545787,0.541,0.541,-0.079,-13.244,-10.314,20.568,1
9.55273,0.541,0.56,-0.081,-6.469,-10.742,21.667,1
9.560691,0.534,0.587,-0.043,1.525,-9.033,22.521,1
9.567558,0.544,0.607,-0.054,6.652,-9.582,23.498,1
9.575519,0.492,0.615,-0.04,9.765,-8.911,23.498,1
9.582304,0.45,0.606,-0.055,8.544,-8.422,23.742,1
9.591005,0.365,0.585,-0.057,3.356,-7.995,23.742,1
9.598504,0.201,0.539,-0.082,-5.004,-6.286,23.864,1
9.604951,0.22,0.513,-0.081,-14.892,-4.821,23.925,1
9.613323,0.242,0.475,-0.079,-20.935,-3.601,24.291,1
9.620226,0.289,0.491,-0.076,-22.827,-3.173,25.207,1
9.628499,0.319,0.501,-0.073,-17.7,-3.784,26.367,1
9.635525,0.337,0.508,-0.084,-6.042,-4.394,28.198,1
9.643147,0.344,0.504,-0.11,2.685,-4.943,29.541,1
9.651519,0.332,0.491,-0.14,10.742,-5.371,31.188,1
9.657876,0.323,0.467,-0.169,14.709,-5.554,33.264,1
9.666012,0.321,0.449,-0.183,13.916,-5.676,35.339,1
9.674611,0.317,0.415,-0.192,9.094,-5.187,37.78,1
9.681582,0.32,0.396,-0.199,0.854,-4.394,40.466,1
9.688487,0.332,0.377,-0.199,-9.094,-3.784,43.212,1
9.696688,0.348,0.355,-0.197,-17.944,-2.99,46.264,1
9.70452,0.351,0.339,-0.193,-23.742,-2.807,49.56,1
9.712304,0.349,0.322,-0.185,-26.123,-2.38,53.527,1
9.720524,0.346,0.31,-0.182,-26.123,-2.38,57.556,1
9.728847,0.34,0.305,-0.184,-25.024,-1.953,61.584,1
9.735621,0.326,0.306,-0.191,-21.179,-2.258,66.406,1
9.743656,0.318,0.31,-0.189,-15.747,-2.563,70.251,1
9.750724,0.312,0.317,-0.201,-9.765,-3.234,74.096,1
9.758623,0.304,0.32,-0.208,-4.394,-3.479,78.063,1
9.766892,0.287,0.336,-0.216,-0.732,-4.211,81.481,1
9.773924,0.266,0.343,-0.221,1.098,-4.76,84.777,1
9.780744,0.229,0.346,-0.217,2.014,-5.432,87.707,1
9.788848,0.21,0.349,-0.209,4.272,-6.103,91.003,1
9.79705,0.204,0.366,-0.207,8.544,-6.225,94.238,1
9.80359,0.202,0.387,-0.211,12.512,-6.958,97.778,1
9.811617,0.19,0.401,-0.214,13.732,-6.958,100.891,1
9.818324,0.16,0.424,-0.222,10.986,-7.08,103.759,1
9.826018,0.14,0.456,-0.231,5.859,-6.652,106.567,1
9.833304,0.118,0.491,-0.237,-0.61,-6.408,109.008,1
9.842114,0.096,0.523,-0.233,-6.225,-5.798,111.633,1
9.848657,0.077,0.549,-0.23,-10.803,-5.371,113.586,1
9.855795,0.051,0.568,-0.226,-13.061,-4.699,115.173,1
9.863888,0.033,0.596,-0.226,-12.756,-4.638,117.187,1
9.871082,0.017,0.622,-0.217,-11.291,-4.272,119.14,1
9.880028,0.012,0.658,-0.219,-13.183,-3.051,120.605,1
9.887069,-0.017,0.687,-0.211,-21.362,-1.586,122.131,1
9.895005,-0.031,0.74,-0.229,-36.804,1.525,123.352,1
9.90373,-0.038,0.799,-0.231,-52.917,4.211,123.779,1
9.910966,-0.06,0.858,-0.24,-69.458,7.629,124.267,1
9.917817,-0.08,0.914,-0.249,-83.801,10.681,123.962,1
9.925925,-0.099,0.973,-0.251,-92.529,13.61,123.718,1
9.932444,-0.104,1.024,-0.262,-94.299,15.686,123.168,1
9.940628,-0.114,1.093,-0.289,-93.627,17.578,121.948,1
9.948769,-0.149,1.16,-0.328,-93.933,19.042,120.422,1
9.955651,-0.168,1.211,-0.354,-94.36,20.08,118.286,1
9.963589,-0.178,1.251,-0.372,-90.698,20.263,116.027,1
9.970659,-0.176,1.27,-0.382,-78.308,19.836,113.342,1
9.977602,-0.154,1.268,-0.386,-65.612,18.798,111.694,1
9.986396,-0.142,1.249,-0.391,-48.156,17.333,110.046,1
9.994232,-0.123,1.217,-0.389,-31.921,15.869,108.764,1
