timestamp_s,ax,ay,az,gx,gy,gz,label
0.004649,0.666,0.487,-0.555,0.549,-1.037,1.953,1
0.013009,0.662,0.495,-0.544,0.305,-0.854,2.136,1
0.01976,0.659,0.487,-0.539,-0.183,-0.549,2.136,1
0.028452,0.661,0.492,-0.537,-0.366,-0.427,2.38,1
0.036137,0.655,0.494,-0.537,-0.854,-0.244,2.441,1
0.04352,0.655,0.483,-0.536,-0.915,0.0,2.563,1
0.051694,0.655,0.483,-0.543,-1.586,0.244,2.685,1
0.059395,0.66,0.484,-0.548,-2.075,0.488,2.807,1
0.068197,0.663,0.485,-0.552,-2.441,0.671,2.807,1
0.075431,0.66,0.486,-0.56,-2.99,0.793,3.051,1
0.084318,0.657,0.492,-0.567,-3.173,0.488,3.173,1
0.091042,0.659,0.493,-0.571,-3.173,0.61,3.479,1
0.099197,0.664,0.489,-0.572,-2.685,0.183,3.356,1
0.10796,0.667,0.499,-0.568,-1.464,0.183,3.662,1
0.115103,0.661,0.507,-0.566,0.0,-0.305,3.784,1
0.123334,0.661,0.516,-0.566,1.037,-0.183,3.723,1
0.130476,0.662,0.524,-0.565,1.831,-0.244,3.845,1
0.137839,0.658,0.534,-0.562,1.892,-0.305,3.601,1
0.146601,0.664,0.526,-0.563,1.525,-0.366,3.479,1
0.153573,0.665,0.533,-0.56,0.732,-0.183,3.295,1
0.162603,0.665,0.536,-0.559,0.305,0.0,3.112,1
0.169631,0.667,0.54,-0.553,0.244,-0.244,3.112,1
0.177066,0.669,0.538,-0.552,0.488,-0.183,2.746,1
0.185106,0.667,0.537,-0.552,0.854,-0.183,2.563,1
0.194144,0.664,0.54,-0.542,1.342,-0.061,2.563,1
0.20157,0.664,0.543,-0.547,1.403,0.0,2.502,1
0.208504,0.662,0.544,-0.545,1.464,0.061,2.258,1
0.217988,0.661,0.549,-0.544,1.281,0.305,1.892,1
0.224792,0.659,0.548,-0.55,0.976,0.427,1.831,1
0.23158,0.662,0.551,-0.551,0.122,0.366,1.281,1
0.240463,0.654,0.55,-0.546,-0.183,0.305,1.22,1
0.248047,0.659,0.549,-0.55,-0.366,0.366,1.098,1
0.256908,0.663,0.547,-0.547,-0.061,0.488,0.671,1
0.263122,0.661,0.547,-0.547,0.061,0.488,0.732,1
0.272072,0.665,0.545,-0.549,0.61,0.488,0.549,1
0.27838,0.662,0.538,-0.554,0.122,0.549,0.305,1
0.286653,0.665,0.541,-0.557,-0.244,0.732,0.488,1
0.295239,0.664,0.537,-0.56,-0.793,0.793,-0.061,1
0.302686,0.667,0.532,-0.56,-0.976,0.732,0.0,1
0.312148,0.671,0.534,-0.565,-0.488,0.732,-0.305,1
0.318952,0.667,0.536,-0.563,-0.244,0.671,-0.244,1
0.326723,0.662,0.534,-0.567,0.183,0.671,-0.61,1
0.334225,0.663,0.527,-0.571,0.305,0.427,-0.305,1
0.342599,0.657,0.527,-0.568,0.122,0.671,-0.427,1
0.350101,0.653,0.523,-0.571,-0.183,0.549,-0.427,1
0.357961,0.651,0.52,-0.571,-0.488,0.427,-0.61,1
0.365374,0.651,0.522,-0.576,-0.488,0.549,-0.549,1
0.374865,0.65,0.525,-0.578,-0.122,0.122,-0.488,1
0.382577,0.651,0.527,-0.58,0.366,0.122,-0.305,1
0.390249,0.655,0.527,-0.58,0.732,-0.183,-0.549,1
0.397948,0.658,0.528,-0.578,0.549,-0.122,-0.671,1
0.407196,0.663,0.522,-0.581,0.671,-0.366,-0.732,1
0.414222,0.66,0.53,-0.578,0.427,-0.427,-0.793,1
0.420681,0.657,0.525,-0.576,0.549,-0.671,-1.037,1
0.42816,0.656,0.516,-0.574,0.549,-0.732,-0.976,1
0.436716,0.659,0.518,-0.569,-0.122,-0.488,-0.915,1
0.445711,0.664,0.514,-0.569,-0.061,-0.732,-0.854,1
0.454332,0.664,0.529,-0.561,0.732,-0.793,-1.037,1
0.463239,0.661,0.529,-0.558,1.098,-0.793,-0.976,1
0.46998,0.659,0.53,-0.556,0.854,-0.976,-1.281,1
0.478676,0.657,0.522,-0.556,-0.061,-0.732,-1.281,1
0.485528,0.653,0.523,-0.549,-0.427,-0.671,-1.281,1
0.494356,0.651,0.516,-0.548,-0.549,-0.61,-1.281,1
0.502732,0.652,0.514,-0.544,-0.549,-0.61,-1.464,1
0.511224,0.659,0.512,-0.548,-0.915,-0.488,-1.281,1
0.518176,0.666,0.517,-0.549,-0.61,-0.305,-1.098,1
0.526984,0.667,0.525,-0.558,-0.183,-0.305,-1.098,1
0.533959,0.665,0.521,-0.563,0.244,-0.305,-1.159,1
0.543196,0.663,0.522,-0.565,-0.488,-0.305,-1.342,1
0.550353,0.656,0.523,-0.565,-0.366,-0.366,-1.22,1
0.55912,0.654,0.516,-0.566,-0.244,-0.488,-1.403,1
0.56739,0.653,0.514,-0.563,-0.427,-0.549,-1.403,1
0.5752,0.656,0.498,-0.561,-0.854,-0.549,-1.098,1
0.584258,0.656,0.498,-0.561,-1.098,-0.549,-1.159,1
0.592527,0.664,0.499,-0.564,-0.793,-0.183,-1.342,1
0.599455,0.663,0.509,-0.567,0.366,-0.549,-1.098,1
0.608192,0.664,0.51,-0.564,0.793,-0.732,-1.098,1
0.615677,0.665,0.51,-0.563,0.61,-0.671,-0.854,1
0.623672,0.662,0.51,-0.562,-0.061,-0.61,-1.037,1
0.630997,0.663,0.504,-0.559,-0.061,-0.488,-0.976,1
0.640357,0.661,0.501,-0.557,-0.244,-0.671,-0.915,1
0.647184,0.66,0.494,-0.55,-0.366,-0.671,-0.976,1
0.655919,0.66,0.497,-0.545,-0.366,-0.549,-0.793,1
0.663034,0.659,0.491,-0.539,0.488,-0.854,-0.549,1
0.671469,0.662,0.5,-0.54,0.61,-0.305,-0.61,1
0.679171,0.659,0.504,-0.54,0.549,-0.305,-0.549,1
0.687765,0.661,0.499,-0.543,0.488,-0.183,-0.305,1
0.696209,0.655,0.497,-0.542,0.061,0.0,-0.183,1
0.702634,0.656,0.499,-0.547,-0.183,0.061,-0.305,1
0.711456,0.655,0.492,-0.543,0.061,0.0,-0.061,1
0.719404,0.658,0.492,-0.545,0.244,0.183,0.122,1
0.725795,0.66,0.495,-0.549,0.793,0.305,0.366,1
0.734602,0.661,0.506,-0.547,0.976,0.305,0.366,1
0.741435,0.665,0.509,-0.552,1.098,0.305,0.244,1
0.748507,0.663,0.516,-0.553,1.342,0.366,0.549,1
0.757041,0.666,0.519,-0.553,0.854,0.488,0.549,1
0.765772,0.664,0.514,-0.56,0.488,0.488,0.366,1
0.773407,0.661,0.516,-0.565,0.122,0.61,0.305,1
0.780938,0.659,0.508,-0.565,0.0,0.732,0.183,1
0.788591,0.666,0.508,-0.569,-0.183,0.305,0.244,1
0.79782,0.659,0.514,-0.567,0.549,0.305,0.305,1
0.804819,0.662,0.521,-0.571,1.281,0.122,0.427,1
0.811903,0.66,0.523,-0.573,1.708,-0.122,0.488,1
0.820393,0.662,0.526,-0.572,1.22,-0.061,0.427,1
0.828088,0.66,0.528,-0.571,0.122,-0.122,0.427,1
0.836107,0.658,0.527,-0.57,-0.61,-0.122,-0.122,1
0.843381,0.661,0.525,-0.564,-0.427,-0.244,-0.061,1
0.851274,0.659,0.516,-0.568,0.0,-0.549,-0.244,1
0.859222,0.657,0.515,-0.563,0.244,-0.366,-0.183,1
0.867078,0.663,0.518,-0.561,0.305,-0.488,-0.122,1
0.875172,0.661,0.521,-0.557,0.488,-0.427,-0.183,1
0.884693,0.666,0.527,-0.558,1.098,-0.427,-0.183,1
0.89148,0.663,0.531,-0.557,1.159,-0.549,-0.183,1
0.899824,0.664,0.526,-0.552,0.671,-0.549,-0.122,1
0.906845,0.659,0.526,-0.556,0.427,-0.366,-0.427,1
0.915569,0.66,0.519,-0.554,0.183,-0.305,-0.427,1
0.924632,0.657,0.509,-0.551,0.122,-0.366,-0.244,1
0.931668,0.658,0.507,-0.547,0.305,-0.122,-0.183,1
0.939477,0.664,0.507,-0.545,0.305,0.0,-0.305,1
0.947978,0.662,0.512,-0.55,0.732,0.061,-0.183,1
0.954788,0.661,0.516,-0.551,0.671,0.0,-0.183,1
0.961623,0.662,0.516,-0.555,0.61,0.183,0.183,1
0.969521,0.659,0.518,-0.561,0.183,0.244,-0.061,1
0.977331,0.658,0.519,-0.562,0.183,-0.061,-0.122,1
0.984248,0.664,0.516,-0.561,0.0,0.183,-0.183,1
0.992683,0.659,0.517,-0.564,0.122,-0.061,-0.488,1
1.000207,0.659,0.518,-0.567,0.122,-0.061,-0.305,1
1.008571,0.66,0.524,-0.567,0.488,-0.183,-0.488,1
1.01623,0.661,0.524,-0.567,1.647,-0.366,-0.366,1
1.024589,0.659,0.523,-0.562,2.014,-0.549,-0.549,1
1.033067,0.658,0.519,-0.565,1.77,-0.488,-0.549,1
1.040987,0.66,0.517,-0.558,1.281,-0.61,-0.427,1
1.049285,0.657,0.515,-0.558,0.732,-0.305,-0.61,1
1.057269,0.661,0.507,-0.556,0.732,-0.427,-0.61,1
1.064026,0.662,0.508,-0.554,0.854,-0.488,-0.488,1
1.07243,0.663,0.512,-0.549,1.159,-0.427,-0.366,1
1.082061,0.665,0.514,-0.55,1.281,-0.183,-0.244,1
1.088555,0.66,0.517,-0.547,1.586,-0.427,-0.366,1
1.097957,0.656,0.516,-0.547,1.281,-0.183,-0.549,1
1.105065,0.657,0.515,-0.552,0.793,-0.244,-0.427,1
1.113701,0.656,0.507,-0.554,-0.183,0.122,-0.427,1
1.121485,0.658,0.506,-0.559,-0.122,-0.061,-0.183,1
1.130109,0.656,0.502,-0.555,0.061,0.0,-0.122,1
1.137189,0.658,0.502,-0.557,0.305,0.0,-0.122,1
1.144893,0.665,0.508,-0.555,0.488,0.0,-0.122,1
1.15364,0.669,0.517,-0.558,0.915,0.183,-0.061,1
1.159944,0.667,0.523,-0.558,1.525,-0.122,0.061,1
1.168792,0.668,0.522,-0.56,1.159,0.061,0.305,1
1.175604,0.664,0.526,-0.562,0.244,0.122,0.0,1
1.18362,0.662,0.53,-0.563,-0.244,-0.061,-0.183,1
1.191968,0.657,0.524,-0.567,0.0,-0.244,-0.183,1
1.200254,0.66,0.519,-0.567,-0.122,-0.366,-0.427,1
1.208628,0.66,0.515,-0.562,-0.244,-0.122,-0.549,1
1.217714,0.665,0.52,-0.559,-0.122,-0.427,-0.427,1
1.226681,0.662,0.529,-0.562,0.488,-0.366,-0.488,1
1.233334,0.667,0.53,-0.559,1.098,-0.671,-0.671,1
1.241715,0.662,0.532,-0.56,1.281,-0.549,-0.732,1
1.249767,0.66,0.529,-0.553,0.793,-0.427,-0.976,1
1.258085,0.656,0.526,-0.551,0.366,-0.427,-0.976,1
1.265945,0.657,0.512,-0.549,-0.183,-0.427,-0.915,1
1.274679,0.658,0.507,-0.55,-0.366,-0.183,-0.976,1
1.281817,0.662,0.503,-0.549,-0.305,-0.366,-0.976,1
1.290667,0.664,0.51,-0.545,0.427,-0.183,-0.732,1
1.298314,0.667,0.509,-0.546,0.854,-0.305,-0.61,1
1.307232,0.667,0.508,-0.55,0.915,-0.122,-0.61,1
1.315107,0.663,0.503,-0.55,0.0,-0.061,-0.671,1
1.324669,0.657,0.508,-0.552,-0.671,0.183,-0.366,1
1.331851,0.662,0.508,-0.556,-0.427,0.183,-0.122,1
1.341168,0.658,0.508,-0.554,0.122,0.0,-0.305,1
1.348176,0.661,0.512,-0.555,0.488,-0.061,-0.366,1
1.356723,0.663,0.51,-0.555,0.732,0.061,-0.366,1
1.364858,0.666,0.511,-0.553,1.098,0.0,-0.183,1
1.372434,0.663,0.511,-0.555,1.098,-0.183,-0.122,1
1.379641,0.665,0.515,-0.556,1.22,-0.183,-0.366,1
1.389173,0.658,0.512,-0.558,0.671,-0.122,-0.427,1
1.396245,0.66,0.509,-0.557,0.427,0.122,-0.488,1
1.404275,0.66,0.509,-0.557,0.244,-0.061,-0.122,1
1.411492,0.657,0.504,-0.556,0.549,0.0,-0.183,1
1.420119,0.657,0.503,-0.551,0.854,0.0,-0.122,1
1.427443,0.659,0.503,-0.55,0.793,0.061,0.0,1
1.436505,0.662,0.511,-0.551,0.732,-0.061,0.305,1
1.443331,0.66,0.518,-0.551,0.671,0.0,0.122,1
1.452182,0.661,0.514,-0.554,0.549,0.061,0.183,1
1.45974,0.657,0.517,-0.555,0.488,0.0,0.183,1
1.465756,0.664,0.514,-0.554,0.244,0.183,0.0,1
1.472799,0.656,0.519,-0.558,0.183,0.0,0.061,1
1.481134,0.66,0.514,-0.553,0.183,0.0,-0.183,1
1.49004,0.659,0.515,-0.556,0.915,-0.183,0.061,1
1.496515,0.666,0.518,-0.554,0.915,0.122,-0.305,1
1.503522,0.668,0.515,-0.554,1.525,0.183,0.122,1
1.511149,0.67,0.52,-0.557,1.159,0.122,0.122,1
1.519316,0.662,0.526,-0.562,0.549,0.244,-0.061,1
1.527849,0.667,0.523,-0.561,0.0,0.0,-0.061,1
1.534446,0.666,0.519,-0.562,0.122,0.0,-0.183,1
1.542678,0.666,0.516,-0.56,0.122,0.061,-0.244,1
1.551483,0.665,0.517,-0.561,0.488,0.0,-0.122,1
1.558394,0.663,0.514,-0.557,0.488,-0.183,-0.183,1
1.566519,0.66,0.514,-0.563,0.976,-0.244,-0.244,1
1.573751,0.666,0.518,-0.558,1.098,0.0,-0.183,1
1.580902,0.666,0.524,-0.557,1.464,0.061,-0.122,1
1.589989,0.665,0.526,-0.56,1.342,0.061,-0.061,1
1.596565,0.666,0.532,-0.556,0.854,-0.122,-0.305,1
1.6047,0.66,0.531,-0.558,0.061,-0.061,-0.732,1
1.612486,0.66,0.526,-0.558,0.244,-0.183,-0.549,1
1.620512,0.66,0.525,-0.552,-0.183,-0.122,-0.732,1
1.628417,0.659,0.522,-0.548,0.0,-0.122,-0.793,1
1.636125,0.663,0.518,-0.555,0.61,-0.305,-0.854,1
1.644542,0.662,0.521,-0.553,0.854,-0.366,-0.854,1
1.651041,0.666,0.519,-0.549,1.281,-0.122,-0.793,1
1.659063,0.666,0.52,-0.551,0.915,-0.366,-0.793,1
1.667125,0.665,0.519,-0.55,0.61,-0.366,-0.976,1
1.675015,0.665,0.519,-0.553,0.305,-0.244,-0.549,1
1.683153,0.657,0.523,-0.552,0.427,-0.122,-0.488,1
1.691842,0.661,0.523,-0.551,1.525,-0.183,-0.793,1
1.699384,0.66,0.526,-0.551,2.258,-0.183,-0.732,1
1.707589,0.666,0.525,-0.557,2.929,-0.183,-0.732,1
1.716035,0.67,0.524,-0.556,3.479,-0.183,-0.61,1
1.722668,0.665,0.527,-0.564,3.784,-0.427,-0.732,1
1.731602,0.665,0.532,-0.567,4.272,-0.488,-0.854,1
1.740479,0.659,0.534,-0.564,3.784,-0.244,-0.854,1
1.747504,0.657,0.534,-0.566,3.417,-0.854,-0.793,1
1.755495,0.655,0.539,-0.563,3.295,-0.61,-1.098,1
1.763065,0.645,0.54,-0.559,3.54,-0.854,-1.098,1
1.772214,0.649,0.543,-0.562,4.15,-0.732,-1.342,1
1.779193,0.656,0.552,-0.586,4.211,-0.671,-1.281,1
1.786499,0.671,0.553,-0.6,3.662,-0.915,-2.014,1
1.795058,0.67,0.557,-0.61,3.784,-1.281,-2.38,1
1.802946,0.676,0.558,-0.603,4.638,-2.014,-2.624,1
1.811946,0.684,0.556,-0.597,5.432,-2.441,-2.99,1
1.817641,0.689,0.554,-0.587,5.554,-2.624,-3.723,1
1.827199,0.693,0.543,-0.564,6.53,-3.112,-3.601,1
1.834045,0.687,0.54,-0.547,8.3,-3.295,-3.723,1
1.842963,0.69,0.542,-0.532,10.314,-3.112,-3.906,1
1.849148,0.69,0.541,-0.512,12.756,-3.173,-3.906,1
1.857681,0.69,0.533,-0.492,14.465,-2.868,-4.089,1
1.867815,0.692,0.535,-0.474,15.136,-2.563,-4.394,1
1.876027,0.687,0.528,-0.452,15.808,-1.77,-4.394,1
1.882812,0.679,0.527,-0.432,16.784,-1.159,-4.272,1
1.890298,0.684,0.53,-0.424,18.249,-0.427,-4.455,1
1.898748,0.685,0.53,-0.415,19.592,-0.122,-4.577,1
1.905986,0.682,0.527,-0.402,20.751,0.305,-4.638,1
1.914104,0.68,0.532,-0.391,20.69,1.159,-4.699,1
1.923213,0.691,0.532,-0.367,20.141,1.586,-4.699,1
1.930191,0.711,0.541,-0.344,18.981,2.807,-4.699,1
1.939029,0.723,0.555,-0.315,18.432,3.967,-4.821,1
1.946183,0.746,0.568,-0.296,20.629,5.737,-4.943,1
1.95454,0.765,0.576,-0.282,23.193,7.385,-5.004,1
1.962323,0.767,0.605,-0.271,26.611,9.033,-5.432,1
1.970288,0.776,0.618,-0.267,33.874,10.925,-5.554,1
1.977968,0.775,0.641,-0.267,41.748,12.634,-6.286,1
1.984896,0.772,0.657,-0.273,51.391,13.854,-6.896,1
1.992203,0.794,0.668,-0.268,62.805,15.502,-7.934,1
2.000277,0.806,0.674,-0.27,71.899,16.906,-8.85,1
2.008998,0.801,0.685,-0.27,75.927,18.798,-9.643,1
2.016291,0.783,0.706,-0.273,75.256,20.874,-10.62,1
2.025124,0.768,0.731,-0.263,71.044,23.01,-11.657,1
2.032034,0.772,0.754,-0.26,63.415,25.756,-12.939,1
2.039801,0.761,0.78,-0.245,55.541,28.442,-14.709,1
2.047654,0.763,0.799,-0.234,47.912,31.249,-16.601,1
2.057099,0.759,0.831,-0.221,41.198,33.63,-18.432,1
2.064766,0.744,0.855,-0.22,35.034,36.621,-20.935,1
2.073024,0.722,0.891,-0.214,32.104,38.818,-24.108,1
2.082393,0.706,0.922,-0.227,33.935,41.137,-27.099,1
2.089832,0.696,0.931,-0.231,36.621,43.457,-30.761,1
2.098663,0.691,0.925,-0.239,36.987,45.532,-33.569,1
2.105358,0.678,0.915,-0.254,34.118,47.79,-36.865,1
2.113775,0.663,0.908,-0.267,31.066,50.72,-40.71,1
2.120719,0.658,0.88,-0.288,29.052,52.795,-43.762,1
2.128004,0.653,0.839,-0.29,28.198,55.053,-46.63,1
2.137306,0.645,0.793,-0.295,29.785,57.434,-48.95,1
2.145659,0.625,0.727,-0.301,32.409,59.448,-50.842,1
2.153459,0.583,0.67,-0.323,34.79,62.683,-52.307,1
2.161276,0.558,0.608,-0.342,36.743,64.453,-53.161,1
2.168285,0.508,0.535,-0.385,37.353,67.138,-53.222,1
2.176347,0.457,0.468,-0.432,31.616,70.19,-52.734,1
2.184556,0.409,0.405,-0.486,25.451,72.998,-52.124,1
2.192605,0.372,0.348,-0.559,21.362,74.951,-50.842,1
2.199451,0.326,0.28,-0.633,20.141,76.354,-48.828,1
2.20798,0.251,0.194,-0.742,17.211,77.819,-45.776,1
2.215559,0.213,0.091,-0.843,8.483,78.796,-42.663,1
2.224707,0.164,0.009,-0.957,-4.516,79.65,-38.696,1
2.233177,0.062,-0.08,-1.122,-15.869,79.467,-34.24,1
2.240235,0.007,-0.155,-1.279,-18.859,76.66,-27.709,1
2.249175,-0.066,-0.271,-1.486,-17.517,71.838,-19.653,1
2.257091,-0.113,-0.409,-1.719,-20.263,66.101,-11.718,1
2.266408,-0.175,-0.514,-1.92,-24.658,57.922,-1.037,1
2.274656,-0.223,-0.636,-2.15,-29.052,48.889,9.399,1
2.28141,-0.259,-0.738,-2.343,-32.104,37.536,23.132,1
2.289771,-0.287,-0.847,-2.588,-39.062,25.756,36.56,1
2.298746,-0.323,-0.923,-2.796,-51.086,10.253,53.466,1
2.306816,-0.343,-0.985,-3.015,-66.101,-7.141,71.716,1
2.316012,-0.384,-1.002,-3.187,-75.5,-23.742,88.378,1
2.324722,-0.456,-1.012,-3.362,-86.364,-45.41,108.154,1
2.332052,-0.538,-0.958,-3.454,-92.407,-66.284,125.061,1
2.341255,-0.602,-0.848,-3.518,-82.031,-92.224,143.371,1
2.350119,-0.713,-0.731,-3.572,-63.476,-117.187,157.897,1
2.357526,-0.792,-0.609,-3.569,-49.865,-144.165,173.522,1
2.365715,-0.933,-0.402,-3.563,-47.79,-168.64,185.058,1
2.37302,-1.089,-0.195,-3.478,-47.668,-193.786,195.8,1
2.381789,-1.239,0.022,-3.384,-53.649,-215.148,203.918,1
2.389296,-1.398,0.245,-3.226,-57.678,-237.915,210.937,1
2.397171,-1.549,0.509,-3.052,-59.875,-257.629,215.515,1
2.405743,-1.689,0.764,-2.847,-59.814,-279.418,218.688,1
2.41385,-1.857,1.067,-2.616,-56.64,-295.593,219.726,1
2.422465,-2.0,1.291,-2.387,-57.617,-313.293,218.2,1
2.429888,-2.086,1.52,-2.15,-62.194,-325.622,215.82,1
2.438078,-2.165,1.776,-1.886,-65.124,-338.684,210.51,1
2.44819,-2.209,2.004,-1.657,-67.26,-348.205,205.566,1
2.454679,-2.281,2.266,-1.409,-59.448,-358.947,197.082,1
2.463278,-2.316,2.433,-1.229,-47.729,-367.98,188.171,1
2.472274,-2.315,2.632,-0.985,-41.992,-377.441,177.734,1
2.47895,-2.344,2.868,-0.655,-26.306,-384.948,164.428,1
2.488163,-2.334,3.033,-0.399,-20.568,-390.502,149.902,1
2.496655,-2.308,3.117,-0.098,-29.541,-390.686,131.896,1
2.504256,-2.248,3.125,0.124,-47.424,-386.962,113.647,1
2.511276,-2.092,3.071,0.279,-62.011,-385.07,98.266,1
2.519076,-1.865,3.195,0.885,-84.35,-383.483,81.359,1
2.5267,-1.689,3.229,1.639,-85.754,-361.145,66.223,1
2.535028,-1.509,3.076,2.029,-82.641,-340.576,50.048,1
2.544694,-1.194,2.826,2.019,-78.125,-316.467,33.691,1
2.551758,-1.06,2.659,2.07,-94.482,-297.607,22.521,1
2.558875,-0.858,2.557,2.118,-104.553,-277.465,14.465,1
2.567263,-0.676,2.434,2.051,-108.642,-258.239,7.69,1
2.576287,-0.468,2.402,1.979,-101.989,-244.873,3.051,1
2.585046,-0.289,2.379,1.922,-88.5,-231.323,-2.868,1
2.59133,-0.174,2.344,1.868,-83.74,-219.665,-8.239,1
2.60026,-0.049,2.302,1.799,-79.711,-208.435,-14.221,1
2.609161,0.066,2.229,1.717,-72.387,-197.082,-22.949,1
2.616229,0.221,2.103,1.656,-66.833,-188.72,-31.188,1
2.624073,0.41,1.893,1.642,-62.255,-180.053,-41.381,1
2.633363,0.531,1.618,1.687,-62.194,-173.156,-49.011,1
2.641794,0.445,1.308,1.768,-62.499,-161.743,-54.199,1
2.648917,0.367,1.071,1.782,-60.791,-150.695,-55.725,1
2.656605,0.271,0.846,1.737,-55.541,-139.831,-55.419,1
2.665331,0.237,0.659,1.667,-52.001,-126.22,-53.466,1
2.672956,0.284,0.511,1.527,-58.898,-114.013,-51.025,1
2.682122,0.301,0.418,1.355,-63.842,-104.248,-47.729,1
2.690071,0.297,0.38,1.225,-57.495,-98.022,-43.823,1
2.697053,0.273,0.349,1.066,-51.147,-92.041,-40.161,1
2.706111,0.257,0.334,0.95,-48.461,-87.768,-35.888,1
2.71305,0.301,0.337,0.9,-42.419,-83.679,-32.226,1
2.71997,0.341,0.343,0.828,-34.667,-81.604,-29.174,1
2.729275,0.38,0.331,0.804,-30.822,-79.589,-26.245,1
2.737149,0.424,0.34,0.77,-27.954,-77.026,-23.071,1
2.745371,0.462,0.352,0.774,-24.108,-75.622,-20.202,1
2.752723,0.493,0.341,0.798,-17.395,-73.974,-17.456,1
2.760568,0.531,0.329,0.856,-10.07,-70.617,-14.343,1
2.768304,0.543,0.333,0.88,-8.666,-66.406,-11.657,1
2.776536,0.565,0.36,0.9,-11.169,-61.462,-8.911,1
2.785215,0.579,0.379,0.885,-13.549,-56.518,-6.225,1
2.792888,0.592,0.416,0.906,-11.901,-50.842,-4.089,1
2.801334,0.586,0.453,0.852,-14.77,-45.959,-2.441,1
2.808578,0.595,0.509,0.832,-18.737,-39.672,-0.854,1
2.816392,0.594,0.556,0.812,-19.348,-34.851,0.183,1
2.824754,0.591,0.568,0.783,-19.348,-30.822,1.586,1
2.831819,0.591,0.566,0.754,-22.338,-25.939,2.685,1
2.839801,0.594,0.578,0.711,-26.184,-20.935,4.089,1
2.847327,0.59,0.595,0.65,-26.794,-17.578,5.493,1
2.856173,0.594,0.607,0.592,-23.071,-15.014,6.591,1
2.863726,0.592,0.609,0.534,-19.104,-12.817,7.69,1
2.872259,0.614,0.607,0.47,-15.319,-10.925,8.911,1
2.879399,0.635,0.601,0.418,-11.413,-9.338,9.704,1
2.887646,0.654,0.6,0.373,-7.751,-8.239,10.742,1
2.896545,0.671,0.595,0.321,-7.141,-7.507,11.901,1
2.902819,0.683,0.604,0.277,-9.033,-7.019,12.39,1
2.910531,0.696,0.614,0.241,-10.742,-6.896,13.305,1
2.919466,0.697,0.629,0.21,-11.718,-7.202,13.916,1
2.926602,0.699,0.643,0.192,-13.488,-6.958,14.77,1
2.935129,0.706,0.66,0.19,-12.756,-7.263,15.502,1
2.942351,0.711,0.685,0.19,-10.009,-6.835,16.235,1
2.951961,0.705,0.712,0.185,-7.507,-6.835,16.479,1
2.958602,0.702,0.739,0.179,-5.065,-6.591,16.54,1
2.966883,0.705,0.762,0.171,-3.967,-6.164,16.418,1
2.976117,0.727,0.79,0.15,-2.075,-5.92,15.991,1
2.982946,0.741,0.806,0.135,-0.549,-6.042,15.441,1
2.992441,0.748,0.824,0.116,0.0,-6.042,14.953,1
2.999118,0.764,0.845,0.1,-1.77,-6.225,14.343,1
3.006518,0.774,0.869,0.086,-4.882,-6.164,13.549,1
3.015774,0.782,0.899,0.078,-7.446,-6.958,12.145,1
3.021581,0.782,0.923,0.082,-8.239,-7.263,10.986,1
3.029609,0.776,0.942,0.084,-7.751,-7.751,9.704,1
3.036314,0.765,0.962,0.09,-8.178,-7.629,7.934,1
3.043912,0.759,0.968,0.089,-10.131,-7.568,6.469,1
3.053091,0.736,0.99,0.089,-12.268,-7.873,4.76,1
3.060245,0.722,1.008,0.095,-11.596,-7.934,2.746,1
3.069579,0.702,1.018,0.107,-8.056,-8.178,0.671,1
3.077626,0.68,1.007,0.122,-5.065,-8.789,-1.525,1
3.086158,0.673,0.99,0.133,-5.31,-8.544,-3.417,1
3.093379,0.674,0.962,0.14,-7.019,-8.178,-5.249,1
3.101998,0.678,0.941,0.145,-7.507,-8.361,-6.774,1
3.110304,0.682,0.912,0.147,-6.103,-8.117,-7.69,1
3.117204,0.698,0.87,0.147,-5.126,-7.751,-8.728,1
3.125593,0.706,0.845,0.146,-5.981,-7.629,-9.46,1
3.134639,0.716,0.816,0.15,-5.92,-7.324,-10.314,1
3.142112,0.722,0.781,0.156,-5.493,-7.202,-10.681,1
3.151136,0.731,0.753,0.176,-4.699,-6.958,-10.803,1
3.158005,0.733,0.739,0.188,-3.54,-6.408,-10.62,1
3.167242,0.732,0.718,0.192,-3.784,-5.737,-10.314,1
3.175912,0.733,0.711,0.191,-4.516,-5.126,-10.253,1
3.182759,0.719,0.703,0.189,-3.967,-4.577,-10.437,1
3.190518,0.713,0.696,0.183,-2.624,-4.15,-10.253,1
3.199006,0.699,0.683,0.167,-1.647,-3.906,-10.253,1
3.207046,0.693,0.68,0.161,-1.037,-3.967,-10.253,1
3.215272,0.688,0.671,0.162,0.061,-3.784,-9.704,1
3.222906,0.672,0.668,0.155,-0.244,-3.601,-9.948,1
3.230811,0.673,0.65,0.159,0.0,-3.601,-9.582,1
3.237497,0.664,0.636,0.158,0.61,-3.295,-9.399,1
3.247344,0.663,0.627,0.167,-0.061,-3.295,-8.911,1
3.255804,0.657,0.626,0.166,-0.427,-2.99,-8.178,1
3.261865,0.653,0.629,0.162,1.342,-2.563,-7.629,1
3.270428,0.661,0.618,0.155,2.014,-2.563,-6.958,1
3.277387,0.659,0.619,0.158,2.197,-2.563,-5.92,1
3.285985,0.648,0.621,0.149,1.586,-2.563,-5.249,1
3.294203,0.661,0.634,0.15,1.464,-2.136,-4.638,1
3.300639,0.651,0.637,0.149,1.953,-2.624,-4.333,1
3.30962,0.656,0.634,0.159,2.441,-2.502,-3.906,1
3.318223,0.661,0.628,0.176,3.295,-2.38,-3.173,1
3.32623,0.668,0.622,0.202,5.31,-2.075,-2.319,1
3.333374,0.676,0.604,0.217,5.859,-1.831,-1.525,1
3.340245,0.681,0.593,0.236,4.821,-1.159,-0.549,1
3.348829,0.692,0.59,0.251,3.234,0.244,0.732,1
3.355854,0.687,0.597,0.249,3.295,1.281,1.525,1
3.362931,0.687,0.605,0.24,3.54,2.014,2.441,1
3.371269,0.687,0.612,0.232,3.784,2.868,2.868,1
3.378401,0.691,0.622,0.224,4.699,3.417,3.906,1
3.386132,0.689,0.633,0.212,5.493,4.089,4.76,1
3.395055,0.689,0.642,0.194,5.493,4.638,5.187,1
3.401095,0.691,0.653,0.184,4.455,4.943,5.615,1
3.410089,0.69,0.664,0.173,3.662,5.31,6.042,1
3.417251,0.691,0.677,0.16,3.784,5.493,6.286,1
3.4247,0.687,0.69,0.142,3.662,5.493,6.591,1
3.432921,0.694,0.702,0.128,3.845,5.493,6.835,1
3.442017,0.693,0.716,0.107,3.967,5.065,7.019,1
3.448931,0.691,0.729,0.095,4.394,4.455,7.019,1
3.45697,0.693,0.736,0.083,5.065,3.845,7.202,1
3.464066,0.684,0.749,0.078,4.943,3.112,7.08,1
3.471512,0.676,0.763,0.079,5.065,2.502,6.896,1
3.478967,0.671,0.77,0.082,5.798,2.014,6.591,1
3.487849,0.666,0.773,0.086,6.774,1.281,6.347,1
3.494846,0.663,0.774,0.095,7.08,0.732,5.798,1
3.502233,0.674,0.77,0.101,6.896,0.915,5.371,1
3.511422,0.68,0.763,0.108,5.371,0.549,5.249,1
3.518398,0.691,0.756,0.111,4.211,0.793,4.882,1
3.526844,0.695,0.759,0.106,3.295,0.854,4.699,1
3.533939,0.698,0.764,0.102,2.746,0.915,4.394,1
3.54063,0.699,0.768,0.086,2.136,0.915,4.577,1
3.547155,0.704,0.777,0.079,2.502,0.366,4.455,1
3.555886,0.706,0.793,0.075,3.784,-0.183,4.15,1
3.562188,0.701,0.801,0.073,4.516,-0.427,3.784,1
3.57113,0.694,0.804,0.074,3.845,-0.976,3.417,1
3.579001,0.687,0.8,0.076,2.136,-1.037,2.685,1
3.587014,0.692,0.802,0.081,1.403,-1.647,2.014,1
3.594088,0.689,0.795,0.079,1.708,-1.708,1.464,1
3.602957,0.69,0.784,0.079,2.258,-2.136,0.976,1
3.610921,0.693,0.77,0.079,1.708,-2.38,0.732,1
3.619301,0.698,0.765,0.078,0.0,-2.99,0.305,1
3.626413,0.695,0.761,0.076,-1.098,-3.234,0.244,1
3.635356,0.696,0.761,0.083,-1.342,-3.295,0.244,1
3.642222,0.689,0.755,0.086,-0.549,-4.089,0.0,1
3.65126,0.689,0.75,0.1,0.61,-4.455,-0.305,1
3.659627,0.681,0.747,0.113,0.976,-4.76,-0.244,1
3.666211,0.679,0.74,0.128,0.671,-4.638,-0.244,1
3.675206,0.676,0.737,0.143,0.0,-4.516,-0.305,1
3.683429,0.68,0.732,0.158,0.183,-4.516,-0.305,1
3.690429,0.679,0.727,0.17,0.183,-4.211,-0.427,1
3.69833,0.681,0.712,0.173,-0.183,-3.601,-0.427,1
3.706927,0.682,0.711,0.176,-1.098,-3.356,-0.122,1
3.714145,0.69,0.709,0.175,-0.976,-2.624,0.0,1
3.723332,0.686,0.713,0.171,-0.61,-2.258,0.305,1
3.730523,0.69,0.718,0.17,-0.183,-2.319,0.671,1
3.739378,0.689,0.726,0.173,-1.098,-1.953,0.61,1
3.746534,0.686,0.731,0.171,-2.075,-1.831,0.427,1
3.7557,0.684,0.741,0.167,-1.586,-1.708,0.366,1
3.762659,0.678,0.74,0.172,-0.488,-1.77,0.183,1
3.771363,0.676,0.736,0.177,1.22,-1.708,-0.183,1
3.779024,0.675,0.727,0.177,1.037,-1.525,-0.244,1
3.788249,0.674,0.727,0.172,0.061,-1.037,-0.061,1
3.794981,0.675,0.728,0.166,-1.586,-0.61,-0.122,1
3.802966,0.682,0.731,0.164,-1.647,-0.671,0.0,1
3.811301,0.687,0.733,0.157,-0.122,-0.976,-0.122,1
3.820006,0.69,0.738,0.157,0.671,-1.037,-0.061,1
3.827075,0.691,0.738,0.158,0.732,-0.976,0.183,1
3.835031,0.693,0.745,0.155,0.366,-0.732,0.061,1
3.84446,0.696,0.75,0.16,-0.061,-0.671,0.244,1
3.851706,0.696,0.751,0.161,0.061,-0.854,0.0,1
3.858891,0.689,0.752,0.164,-0.671,-0.549,-0.366,1
3.868298,0.687,0.753,0.162,-1.525,-0.61,-0.488,1
3.8772,0.68,0.759,0.165,-1.22,-0.488,-0.793,1
3.885033,0.681,0.752,0.168,0.305,-0.732,-0.549,1
3.892405,0.689,0.741,0.174,1.525,-0.488,-0.732,1
3.900348,0.694,0.725,0.183,4.211,-0.366,-0.488,1
3.908382,0.695,0.714,0.182,5.432,-0.122,-0.244,1
3.916196,0.693,0.707,0.176,5.065,0.244,-0.122,1
3.925058,0.698,0.696,0.172,4.516,0.488,0.183,1
3.931413,0.69,0.69,0.165,3.54,0.732,0.427,1
3.939626,0.686,0.693,0.152,2.319,0.793,0.854,1
3.948658,0.683,0.693,0.145,1.159,0.793,1.098,1
3.955589,0.676,0.69,0.141,0.183,0.61,1.281,1
3.964399,0.667,0.694,0.141,-0.366,0.427,1.647,1
3.971242,0.66,0.692,0.134,-0.366,0.183,1.708,1
3.9796,0.664,0.69,0.121,-0.244,0.061,1.831,1
3.988473,0.672,0.69,0.127,0.427,-0.427,2.075,1
3.995957,0.672,0.681,0.136,2.99,-0.488,2.319,1
4.003882,0.682,0.667,0.142,4.394,-0.671,2.624,1
4.010831,0.665,0.669,0.144,3.906,-0.549,2.929,1
4.017641,0.668,0.671,0.143,1.708,-0.61,3.54,1
4.026736,0.669,0.677,0.143,-1.464,-0.488,4.089,1
4.034416,0.672,0.686,0.139,-3.112,-0.427,3.906,1
4.042554,0.672,0.69,0.145,-3.662,-0.244,4.394,1
4.04994,0.674,0.696,0.151,-1.647,-0.61,4.882,1
4.058451,0.661,0.694,0.157,0.976,-0.671,4.943,1
4.066977,0.662,0.688,0.164,3.662,-0.549,5.554,1
4.07433,0.651,0.692,0.159,6.103,-0.549,5.676,1
4.080822,0.645,0.701,0.166,7.568,-0.061,5.92,1
4.088788,0.646,0.708,0.154,7.263,0.122,6.164,1
4.097105,0.651,0.708,0.146,4.821,0.427,6.408,1
4.104397,0.653,0.717,0.143,3.051,0.366,6.53,1
4.112376,0.658,0.721,0.139,2.807,0.366,6.713,1
4.1191,0.657,0.722,0.138,3.051,0.305,6.835,1
4.126943,0.66,0.724,0.14,2.319,0.122,6.896,1
4.134443,0.663,0.731,0.14,1.037,0.427,7.141,1
4.143656,0.67,0.742,0.135,0.854,0.183,7.141,1
4.15137,0.678,0.75,0.138,1.892,0.122,7.385,1
4.158012,0.683,0.758,0.147,4.028,-0.183,7.446,1
4.167138,0.678,0.767,0.147,4.943,-0.366,7.263,1
4.175116,0.686,0.774,0.152,4.211,-0.244,7.263,1
4.182734,0.677,0.788,0.157,3.112,0.0,7.141,1
4.190106,0.677,0.798,0.158,2.807,0.244,6.774,1
4.198167,0.68,0.805,0.153,2.38,0.549,5.859,1
4.205901,0.683,0.814,0.151,2.014,0.366,5.493,1
4.214063,0.676,0.817,0.148,1.403,0.549,5.126,1
4.221329,0.679,0.821,0.144,1.037,0.549,4.577,1
4.228427,0.675,0.822,0.145,0.976,0.366,4.15,1
4.235697,0.679,0.823,0.144,1.953,0.244,3.417,1
4.243407,0.679,0.828,0.145,2.563,0.122,3.295,1
4.250382,0.681,0.826,0.141,2.319,-0.244,3.173,1
4.257847,0.687,0.829,0.135,1.77,0.0,2.319,1
4.266536,0.689,0.834,0.128,2.014,0.0,1.953,1
4.274532,0.691,0.835,0.115,2.075,-0.366,1.22,1
4.280793,0.691,0.832,0.104,2.38,-0.732,0.61,1
4.289266,0.686,0.831,0.093,2.441,-1.464,0.244,1
4.297133,0.679,0.83,0.092,2.38,-1.892,-0.488,1
4.306468,0.671,0.827,0.088,2.685,-2.685,-1.037,1
4.312778,0.673,0.812,0.093,2.685,-3.601,-1.708,1
4.319941,0.669,0.8,0.1,2.075,-4.028,-2.197,1
4.328766,0.676,0.785,0.116,2.502,-4.577,-2.563,1
4.335487,0.677,0.776,0.13,3.967,-4.882,-2.624,1
4.344678,0.676,0.764,0.143,4.943,-5.126,-2.868,1
4.351692,0.682,0.754,0.154,5.065,-4.882,-2.624,1
4.361096,0.683,0.75,0.17,5.126,-4.638,-2.563,1
4.368368,0.679,0.748,0.18,4.943,-4.15,-2.441,1
4.375293,0.676,0.75,0.182,3.845,-3.54,-2.075,1
4.383941,0.669,0.757,0.189,2.502,-3.845,-2.258,1
4.392698,0.672,0.759,0.19,2.136,-3.234,-2.258,1
4.399953,0.664,0.761,0.2,2.38,-2.99,-2.441,1
4.407697,0.659,0.759,0.199,3.173,-2.685,-2.746,1
4.417237,0.662,0.755,0.201,3.234,-2.319,-2.868,1
4.424946,0.661,0.751,0.206,4.455,-2.075,-2.807,1
4.432088,0.666,0.743,0.214,6.408,-1.831,-2.868,1
4.440766,0.671,0.74,0.213,7.202,-1.525,-2.624,1
4.448567,0.669,0.734,0.213,6.042,-0.915,-2.624,1
4.456667,0.666,0.739,0.201,3.906,-0.305,-2.38,1
4.464113,0.66,0.74,0.188,1.281,-0.061,-2.38,1
4.47311,0.663,0.743,0.176,-0.061,0.183,-2.197,1
4.480559,0.651,0.748,0.168,-0.061,0.305,-2.38,1
4.488921,0.645,0.75,0.158,0.0,0.183,-2.502,1
4.497614,0.645,0.75,0.154,-0.427,-0.061,-2.624,1
4.505496,0.647,0.748,0.149,-0.427,-0.244,-2.563,1
4.513956,0.647,0.748,0.157,0.854,-0.305,-2.441,1
4.521645,0.656,0.741,0.166,2.563,-0.366,-2.502,1
4.529283,0.655,0.731,0.161,2.075,-0.671,-2.319,1
4.537315,0.66,0.723,0.168,0.122,-0.305,-2.136,1
4.545034,0.656,0.727,0.167,-3.967,-0.183,-2.014,1
4.553271,0.657,0.731,0.165,-5.859,0.0,-2.014,1
4.560981,0.678,0.743,0.154,-5.676,-0.183,-2.197,1
4.568126,0.683,0.748,0.137,-4.577,-0.61,-2.258,1
4.577627,0.69,0.75,0.115,-3.967,-1.159,-2.319,1
4.585609,0.691,0.748,0.098,-3.479,-1.77,-2.624,1
4.59406,0.694,0.746,0.088,-2.197,-2.685,-2.563,1
4.601729,0.694,0.742,0.082,-0.61,-3.54,-2.807,1
4.610581,0.696,0.739,0.08,1.281,-4.272,-2.807,1
4.616948,0.693,0.745,0.084,2.929,-5.004,-2.807,1
4.62545,0.686,0.746,0.086,4.394,-5.371,-2.685,1
4.634564,0.669,0.749,0.092,4.089,-6.042,-2.868,1
4.64021,0.666,0.75,0.097,1.342,-6.164,-3.112,1
4.649138,0.656,0.755,0.101,-0.671,-6.408,-3.417,1
4.657056,0.662,0.75,0.113,-1.342,-6.713,-3.784,1
4.665182,0.666,0.739,0.119,-0.244,-7.202,-3.845,1
4.672084,0.658,0.731,0.13,1.281,-7.446,-4.15,1
4.680094,0.657,0.722,0.136,2.319,-7.995,-3.723,1
4.68922,0.654,0.71,0.144,4.028,-8.361,-4.089,1
4.696656,0.654,0.707,0.155,6.896,-8.666,-3.601,1
4.703903,0.656,0.697,0.154,8.3,-8.666,-3.295,1
4.711521,0.644,0.691,0.161,7.751,-9.277,-3.112,1
4.719371,0.652,0.68,0.174,6.713,-8.911,-2.685,1
4.727169,0.665,0.663,0.181,4.76,-8.789,-2.502,1
4.734841,0.667,0.66,0.199,2.868,-8.605,-1.708,1
4.743556,0.663,0.663,0.204,2.014,-8.422,-1.281,1
4.750623,0.669,0.665,0.202,1.281,-8.239,-0.61,1
4.759482,0.676,0.681,0.189,0.793,-8.239,-0.122,1
4.766491,0.663,0.695,0.17,1.098,-9.094,0.183,1
4.774566,0.657,0.708,0.187,2.014,-8.728,0.549,1
4.78332,0.656,0.716,0.18,3.417,-9.155,0.793,1
4.790074,0.665,0.726,0.205,7.507,-9.46,1.037,1
4.798112,0.672,0.725,0.209,12.695,-9.704,1.098,1
4.806362,0.667,0.722,0.221,15.686,-9.46,1.281,1
4.813791,0.652,0.723,0.223,15.624,-9.704,1.281,1
4.82179,0.656,0.727,0.238,16.235,-9.094,1.22,1
4.829426,0.666,0.731,0.244,15.624,-8.605,1.342,1
4.836873,0.668,0.742,0.238,15.38,-8.239,1.22,1
4.84524,0.666,0.743,0.234,16.174,-7.995,1.037,1
4.853691,0.659,0.745,0.242,15.014,-7.873,1.037,1
4.860698,0.658,0.743,0.25,11.535,-6.835,0.671,1
4.867417,0.648,0.742,0.265,6.713,-6.408,0.915,1
4.876891,0.646,0.746,0.302,0.732,-5.554,0.793,1
4.884193,0.66,0.751,0.324,-3.356,-4.455,0.732,1
4.892797,0.682,0.756,0.345,-6.774,-2.685,0.488,1
4.900422,0.696,0.77,0.35,-8.178,-1.403,0.427,1
4.907605,0.701,0.778,0.352,-7.202,-0.244,0.061,1
4.916212,0.701,0.789,0.34,-4.943,0.732,-0.244,1
4.92316,0.7,0.799,0.317,-2.99,1.586,-0.671,1
4.930712,0.697,0.803,0.304,-0.671,1.892,-1.464,1
4.938772,0.688,0.799,0.287,0.793,2.075,-1.586,1
4.946735,0.67,0.797,0.29,2.624,2.136,-2.075,1
4.954371,0.658,0.786,0.286,4.76,2.136,-2.502,1
4.961479,0.656,0.768,0.284,6.164,2.38,-2.929,1
4.969039,0.653,0.752,0.274,5.798,3.051,-3.479,1
4.977617,0.65,0.739,0.258,2.441,3.54,-3.295,1
4.98537,0.645,0.735,0.25,-2.319,3.906,-3.356,1
4.992966,0.644,0.731,0.253,-3.173,4.577,-3.54,1
5.000965,0.649,0.724,0.249,-1.647,4.455,-3.479,1
5.008514,0.657,0.718,0.239,1.464,4.699,-3.356,1
5.015709,0.666,0.702,0.225,4.455,4.577,-3.356,1
5.023191,0.666,0.688,0.201,5.92,4.272,-2.868,1
5.030746,0.666,0.68,0.192,5.798,4.089,-2.685,1
5.038565,0.673,0.667,0.188,4.394,4.15,-2.136,1
5.046246,0.67,0.664,0.184,3.601,3.967,-1.892,1
5.053971,0.668,0.66,0.183,3.417,3.54,-1.342,1
5.063138,0.662,0.656,0.185,2.258,3.54,-0.549,1
5.070285,0.657,0.66,0.19,0.732,3.295,-0.183,1
5.077879,0.668,0.66,0.196,-0.061,3.479,0.0,1
5.085643,0.658,0.662,0.193,-1.586,3.479,0.854,1
5.093071,0.666,0.666,0.187,-3.234,3.723,1.342,1
5.100934,0.67,0.675,0.168,-2.868,3.417,1.525,1
5.108512,0.676,0.683,0.152,-1.037,2.929,1.708,1
5.117191,0.674,0.69,0.144,1.892,2.563,2.136,1
5.123665,0.672,0.692,0.135,3.845,1.647,2.258,1
5.131171,0.662,0.697,0.135,2.807,1.159,2.563,1
5.139346,0.655,0.706,0.135,0.793,0.854,2.685,1
5.147089,0.658,0.717,0.144,0.244,0.183,2.99,1
5.154468,0.655,0.727,0.149,1.647,-0.183,3.051,1
5.161986,0.657,0.721,0.16,3.723,-0.793,3.173,1
5.169338,0.66,0.712,0.169,4.699,-0.793,2.929,1
5.176864,0.665,0.716,0.169,4.821,-0.976,2.868,1
5.184277,0.669,0.711,0.166,4.272,-1.22,2.868,1
5.193342,0.679,0.709,0.162,2.99,-1.22,3.173,1
5.202062,0.68,0.713,0.149,1.22,-1.22,3.356,1
5.210118,0.683,0.727,0.145,0.366,-1.831,3.479,1
5.217238,0.683,0.737,0.148,1.342,-2.136,3.662,1
5.22436,0.679,0.738,0.15,2.685,-2.99,3.234,1
5.233082,0.673,0.742,0.162,3.051,-3.479,3.417,1
5.239901,0.664,0.744,0.168,1.342,-3.662,3.173,1
5.247994,0.665,0.751,0.172,-0.549,-3.417,3.112,1
5.255008,0.657,0.76,0.174,-1.586,-3.784,2.929,1
5.263185,0.65,0.768,0.18,-1.464,-3.784,2.685,1
5.270303,0.66,0.77,0.183,0.122,-3.845,2.258,1
5.278241,0.665,0.765,0.186,1.953,-3.967,2.075,1
5.287081,0.669,0.758,0.187,3.173,-4.272,1.708,1
5.294133,0.673,0.753,0.188,3.845,-4.333,1.77,1
5.301554,0.683,0.744,0.196,3.479,-4.455,1.464,1
5.310449,0.68,0.739,0.205,3.112,-4.699,1.464,1
5.31702,0.673,0.742,0.206,3.54,-5.065,1.525,1
5.324711,0.669,0.733,0.218,4.028,-4.76,1.342,1
5.33215,0.669,0.736,0.215,3.234,-4.699,1.647,1
5.341025,0.674,0.736,0.22,2.38,-4.699,1.403,1
5.347647,0.667,0.74,0.217,2.319,-4.577,1.586,1
5.356263,0.663,0.744,0.218,2.075,-4.699,1.77,1
5.363229,0.668,0.747,0.214,1.342,-4.76,1.77,1
5.37062,0.662,0.752,0.218,1.098,-4.76,1.647,1
5.379532,0.656,0.753,0.224,0.244,-4.577,1.22,1
5.386917,0.656,0.741,0.224,-0.427,-4.272,1.342,1
5.395005,0.657,0.738,0.224,-0.793,-4.455,0.976,1
5.404419,0.658,0.735,0.225,-0.732,-4.394,0.854,1
5.41136,0.661,0.733,0.223,0.366,-4.699,1.22,1
5.420123,0.663,0.73,0.222,1.403,-4.577,1.098,1
5.427094,0.654,0.735,0.218,1.525,-4.76,1.098,1
5.436361,0.658,0.736,0.219,1.831,-4.638,1.037,1
5.442941,0.662,0.741,0.213,2.197,-5.126,1.037,1
5.450452,0.668,0.741,0.217,3.234,-4.821,1.037,1
5.459564,0.667,0.739,0.22,3.784,-5.249,1.037,1
5.466764,0.668,0.73,0.229,3.906,-5.187,0.793,1
5.473867,0.667,0.724,0.238,3.356,-5.126,0.915,1
5.481478,0.666,0.725,0.246,1.77,-4.821,1.098,1
5.49019,0.663,0.724,0.252,0.427,-4.516,1.281,1
5.497396,0.66,0.733,0.254,-0.671,-4.272,1.098,1
5.505731,0.655,0.739,0.255,-0.305,-3.906,1.281,1
5.512999,0.654,0.744,0.25,0.122,-3.662,1.22,1
5.520952,0.657,0.745,0.232,-0.366,-3.479,1.098,1
5.530083,0.652,0.748,0.223,-1.464,-3.723,1.037,1
5.536944,0.657,0.751,0.22,-0.793,-3.723,0.854,1
5.547297,0.656,0.75,0.218,-0.61,-3.845,0.793,1
5.553482,0.65,0.745,0.214,-0.427,-3.967,0.549,1
5.562284,0.655,0.74,0.215,0.122,-4.211,0.305,1
5.568988,0.658,0.731,0.21,0.976,-4.455,0.427,1
5.577136,0.656,0.724,0.212,1.831,-4.76,0.549,1
5.584823,0.662,0.712,0.208,2.441,-5.004,0.61,1
5.593602,0.661,0.701,0.202,1.831,-5.065,0.854,1
5.602584,0.664,0.699,0.187,0.427,-5.249,1.037,1
5.608432,0.654,0.709,0.162,-0.549,-5.249,1.098,1
5.617422,0.656,0.712,0.159,-0.61,-6.408,1.098,1
5.625592,0.664,0.709,0.155,1.77,-6.774,0.854,1
5.632165,0.662,0.7,0.138,2.38,-7.995,0.854,1
5.640551,0.659,0.698,0.145,2.014,-8.483,1.037,1
5.64772,0.657,0.69,0.153,1.586,-9.521,1.281,1
5.656868,0.663,0.679,0.146,0.366,-9.948,1.708,1
5.664326,0.665,0.679,0.141,-0.854,-10.803,1.892,1
5.672965,0.673,0.666,0.148,-0.732,-11.901,2.258,1
5.679209,0.661,0.662,0.128,-0.732,-11.84,2.868,1
5.686599,0.649,0.667,0.145,-2.868,-13.732,3.112,1
5.694514,0.641,0.668,0.158,-3.051,-14.587,3.662,1
5.703942,0.634,0.672,0.158,-3.112,-16.418,3.784,1
5.711699,0.631,0.65,0.181,-2.868,-17.395,4.211,1
5.719219,0.627,0.626,0.188,-7.507,-19.409,4.821,1
5.726665,0.603,0.616,0.222,-10.437,-20.385,5.676,1
5.734403,0.577,0.617,0.263,-11.718,-22.827,6.958,1
5.743381,0.568,0.613,0.349,-8.422,-24.719,7.568,1
5.750842,0.555,0.623,0.474,-1.708,-27.832,8.483,1
5.758207,0.53,0.613,0.639,10.192,-30.578,9.277,1
5.765797,0.503,0.586,0.888,16.54,-31.86,10.07,1
5.775187,0.454,0.572,1.233,21.911,-30.395,10.681,1
5.782131,0.336,0.555,1.691,33.02,-27.282,11.657,1
5.789594,0.288,0.522,2.164,51.452,-21.911,12.756,1
5.797403,0.247,0.458,2.661,80.81,-11.108,14.343,1
5.805134,0.23,0.366,3.196,106.384,2.807,16.601,1
5.813222,0.201,0.257,3.704,122.436,21.362,20.446,1
5.821291,0.184,0.129,4.208,125.427,44.738,25.024,1
5.828958,0.144,0.013,4.616,117.919,72.998,31.372,1
5.836796,0.067,-0.054,4.955,101.806,104.614,39.367,1
5.844441,0.0,-0.07,5.195,85.388,143.005,49.316,1
5.851582,-0.129,-0.032,5.299,79.406,175.903,57.861,1
5.860336,-0.334,0.037,5.328,80.2,207.946,66.04,1
5.868159,-0.639,0.147,5.277,83.129,244.75,75.378,1
5.875376,-0.947,0.254,5.138,82.58,271.179,81.481,1
5.883596,-1.29,0.395,4.947,81.542,301.147,88.256,1
5.892029,-1.651,0.56,4.727,89.355,333.251,95.947,1
5.899879,-2.043,0.736,4.476,101.684,358.886,101.928,1
5.906976,-2.439,0.941,4.187,113.525,382.507,108.093,1
5.914313,-2.869,1.184,3.793,119.14,404.663,112.854,1
5.922302,-3.195,1.437,3.456,116.027,427.368,117.614,1
5.92957,-3.53,1.707,3.132,119.506,444.824,119.812,1
5.938048,-3.807,1.947,2.772,124.633,457.641,120.605,1
5.945268,-4.038,2.155,2.358,131.286,473.693,121.276,1
5.95287,-4.241,2.337,1.875,136.169,484.619,121.276,1
5.961777,-4.376,2.52,1.337,129.821,493.103,119.628,1
5.968152,-4.384,2.664,0.84,107.666,493.103,116.76,1
5.97682,-4.484,2.979,0.354,115.844,503.906,111.206,1
5.985377,-4.478,3.134,-0.328,80.383,498.229,100.646,1
5.992302,-4.457,3.463,-0.65,36.865,505.615,83.496,1
5.999944,-4.29,3.695,-1.159,12.939,499.084,61.828,1
6.008737,-4.206,3.874,-1.554,-1.098,493.103,32.775,1
6.015897,-3.981,3.913,-2.032,-2.929,479.797,6.225,1
6.025136,-3.789,3.85,-2.389,3.479,464.477,-19.836,1
6.033717,-3.52,3.657,-2.842,12.329,442.321,-47.607,1
6.042401,-3.3,3.397,-3.188,11.23,420.715,-68.298,1
6.049681,-2.98,3.026,-3.57,-10.742,394.775,-88.989,1
6.058519,-2.659,2.783,-3.783,-26.0,369.384,-103.454,1
6.065446,-2.268,2.506,-3.918,-4.882,335.571,-116.21,1
6.07274,-1.986,2.19,-3.965,19.165,305.908,-122.619,1
6.080873,-1.722,1.87,-3.948,29.479,278.442,-125.488,1
6.090049,-1.435,1.537,-3.911,29.846,252.868,-125.793,1
6.097896,-1.234,1.312,-3.811,29.296,222.961,-124.267,1
6.106659,-1.045,1.111,-3.678,34.118,198.974,-121.337,1
6.113308,-0.859,0.887,-3.516,40.161,171.997,-116.333,1
6.121091,-0.703,0.705,-3.41,37.414,150.695,-111.816,1
6.12843,-0.572,0.579,-3.277,31.738,129.638,-106.75,1
6.137791,-0.457,0.491,-3.112,29.907,110.168,-101.623,1
6.145547,-0.346,0.429,-2.895,33.325,90.332,-96.313,1
6.152364,-0.26,0.379,-2.697,39.489,72.631,-91.613,1
6.161102,-0.195,0.345,-2.52,40.283,54.748,-86.791,1
6.170259,-0.135,0.303,-2.325,33.752,39.306,-82.641,1
6.177808,-0.076,0.297,-2.158,30.029,26.855,-79.223,1
6.18459,-0.028,0.296,-1.948,33.264,15.38,-76.049,1
6.19414,0.009,0.28,-1.786,38.574,5.126,-72.631,1
6.201602,0.041,0.259,-1.654,41.931,-4.577,-68.298,1
6.20881,0.085,0.234,-1.524,40.466,-11.657,-64.88,1
6.218025,0.123,0.234,-1.41,38.635,-17.7,-60.913,1
6.225243,0.158,0.235,-1.307,35.705,-23.315,-56.213,1
6.232969,0.202,0.247,-1.195,32.47,-27.282,-51.696,1
6.241748,0.224,0.279,-1.105,30.395,-31.616,-46.813,1
6.251265,0.261,0.327,-1.004,31.433,-35.034,-42.541,1
6.25869,0.266,0.369,-0.943,31.372,-37.78,-38.452,1
6.265983,0.283,0.414,-0.862,28.625,-39.978,-34.912,1
6.274748,0.296,0.462,-0.798,25.024,-42.175,-31.433,1
6.284557,0.308,0.514,-0.727,24.23,-43.64,-28.686,1
6.291216,0.301,0.539,-0.677,22.033,-44.311,-26.855,1
6.300331,0.326,0.551,-0.633,17.456,-44.799,-24.719,1
6.307522,0.348,0.576,-0.585,15.075,-45.227,-23.132,1
6.316749,0.375,0.603,-0.524,15.014,-45.227,-21.789,1
6.32399,0.392,0.629,-0.479,17.944,-45.349,-20.141,1
6.332335,0.414,0.64,-0.459,19.714,-45.471,-19.531,1
6.34106,0.425,0.645,-0.451,17.7,-45.166,-18.92,1
6.348591,0.443,0.665,-0.436,12.939,-44.982,-18.554,1
6.357261,0.468,0.674,-0.411,10.009,-44.372,-18.432,1
6.365078,0.487,0.681,-0.387,8.361,-44.494,-18.493,1
6.371251,0.484,0.686,-0.351,7.507,-44.067,-18.371,1
6.379019,0.503,0.685,-0.333,6.347,-43.395,-18.31,1
6.386985,0.512,0.678,-0.313,4.516,-42.602,-18.188,1
6.395308,0.515,0.675,-0.291,2.319,-41.381,-17.944,1
6.401692,0.541,0.667,-0.27,1.281,-40.1,-17.761,1
6.409763,0.562,0.657,-0.24,-0.244,-38.391,-17.456,1
6.417823,0.58,0.64,-0.21,-2.563,-36.499,-16.601,1
6.426678,0.612,0.635,-0.191,-7.324,-34.179,-15.624,1
6.435347,0.642,0.648,-0.151,-8.972,-31.982,-14.16,1
6.444071,0.648,0.661,-0.129,-7.934,-30.029,-13.122,1
6.451027,0.652,0.672,-0.115,-7.629,-27.954,-11.962,1
6.46029,0.66,0.667,-0.106,-10.009,-25.085,-10.925,1
6.468687,0.659,0.675,-0.115,-15.197,-22.033,-10.131,1
6.477782,0.658,0.677,-0.113,-19.104,-19.47,-9.216,1
6.484657,0.662,0.675,-0.119,-20.019,-16.54,-8.483,1
6.493212,0.664,0.668,-0.135,-19.104,-14.587,-8.178,1
6.500573,0.665,0.664,-0.148,-16.967,-12.817,-7.446,1
6.508693,0.67,0.662,-0.155,-14.953,-11.23,-7.019,1
6.518151,0.669,0.662,-0.159,-12.329,-9.765,-6.469,1
6.527032,0.674,0.662,-0.174,-10.986,-8.605,-5.859,1
6.535444,0.671,0.655,-0.191,-12.39,-7.202,-5.554,1
6.543784,0.669,0.647,-0.208,-14.77,-5.737,-5.31,1
6.551947,0.671,0.648,-0.229,-16.723,-5.004,-4.943,1
6.558961,0.671,0.647,-0.245,-16.601,-4.638,-4.882,1
6.567852,0.666,0.639,-0.269,-15.38,-4.394,-4.882,1
6.576617,0.664,0.638,-0.284,-13.916,-4.577,-4.699,1
6.583512,0.653,0.637,-0.297,-10.681,-5.126,-4.516,1
6.592682,0.648,0.629,-0.307,-7.934,-5.432,-4.15,1
6.599882,0.644,0.624,-0.322,-6.469,-6.286,-3.601,1
6.608641,0.639,0.611,-0.335,-7.019,-6.53,-3.295,1
6.617404,0.627,0.6,-0.347,-8.3,-7.202,-2.746,1
6.624945,0.626,0.593,-0.351,-9.46,-7.507,-2.258,1
6.633747,0.626,0.584,-0.347,-10.314,-8.422,-1.77,1
6.640541,0.626,0.58,-0.337,-11.108,-8.85,-1.22,1
6.650045,0.634,0.575,-0.333,-10.62,-9.887,-0.427,1
6.656628,0.64,0.579,-0.316,-9.277,-10.864,0.305,1
6.664783,0.647,0.584,-0.299,-7.08,-11.718,1.22,1
6.672699,0.648,0.588,-0.282,-5.004,-12.451,2.014,1
6.682691,0.642,0.595,-0.263,-3.356,-12.939,2.746,1
6.689792,0.635,0.595,-0.245,-2.319,-13.366,3.601,1
6.697165,0.648,0.591,-0.237,-2.197,-13.061,4.272,1
6.705059,0.638,0.597,-0.218,-3.051,-12.695,5.126,1
6.713845,0.652,0.602,-0.199,-1.647,-12.634,5.859,1
6.72145,0.655,0.606,-0.181,-0.061,-11.84,6.53,1
6.729108,0.664,0.617,-0.171,2.38,-11.23,7.629,1
6.736913,0.674,0.631,-0.159,4.638,-10.375,8.483,1
6.745311,0.688,0.646,-0.158,4.821,-9.399,8.972,1
6.753001,0.689,0.672,-0.159,3.295,-8.85,9.338,1
6.761252,0.684,0.685,-0.154,0.732,-7.568,9.643,1
6.769048,0.678,0.705,-0.159,-1.159,-6.652,9.094,1
6.775822,0.677,0.712,-0.161,-2.563,-5.798,8.728,1
6.784684,0.676,0.725,-0.16,-3.784,-5.249,8.483,1
6.792146,0.67,0.729,-0.165,-4.333,-4.455,8.117,1
6.799963,0.671,0.734,-0.165,-4.516,-3.601,7.629,1
6.808532,0.673,0.73,-0.165,-3.967,-2.99,7.202,1
6.816766,0.684,0.735,-0.172,-2.685,-2.014,6.713,1
6.823973,0.687,0.734,-0.171,-1.892,-1.342,6.713,1
6.831813,0.684,0.73,-0.177,-1.647,-0.854,6.53,1
6.840723,0.684,0.733,-0.183,-0.976,-0.061,6.225,1
6.847257,0.687,0.744,-0.189,-1.098,0.976,5.981,1
6.856662,0.684,0.754,-0.196,-0.244,1.22,5.859,1
6.863025,0.688,0.765,-0.211,1.281,1.77,5.493,1
6.870767,0.691,0.772,-0.228,1.281,1.892,4.821,1
6.878569,0.691,0.774,-0.24,0.183,2.136,4.028,1
6.886866,0.689,0.776,-0.25,-1.708,2.319,3.601,1
6.894432,0.685,0.772,-0.266,-3.356,2.624,3.051,1
6.902432,0.682,0.775,-0.27,-5.126,2.624,2.746,1
6.909581,0.68,0.774,-0.276,-6.042,2.38,2.014,1
6.918654,0.676,0.776,-0.276,-5.981,2.258,1.708,1
6.92779,0.67,0.776,-0.271,-4.089,2.136,1.403,1
6.935175,0.671,0.783,-0.262,0.305,1.708,1.037,1
6.942924,0.684,0.781,-0.259,4.15,1.464,0.305,1
6.950465,0.689,0.774,-0.259,4.943,1.77,-0.061,1
6.95815,0.691,0.771,-0.256,3.784,1.892,-0.61,1
6.965861,0.687,0.769,-0.252,1.77,2.258,-1.22,1
6.973523,0.679,0.771,-0.252,0.549,2.685,-1.464,1
6.982957,0.673,0.763,-0.261,-0.122,2.807,-1.892,1
6.990038,0.668,0.753,-0.258,-0.732,3.234,-2.38,1
6.996809,0.664,0.748,-0.257,-1.403,3.417,-2.746,1
7.004521,0.666,0.738,-0.255,-1.037,3.54,-2.746,1
7.012318,0.659,0.738,-0.254,-0.061,3.845,-2.868,1
7.020502,0.664,0.733,-0.254,1.342,4.15,-3.051,1
7.02974,0.661,0.726,-0.257,2.258,4.028,-3.417,1
7.037681,0.662,0.721,-0.256,2.319,4.15,-3.295,1
7.044752,0.657,0.709,-0.259,2.441,4.577,-3.723,1
7.053985,0.65,0.702,-0.271,2.014,4.76,-3.662,1
7.061791,0.647,0.695,-0.273,1.037,4.943,-3.356,1
7.069264,0.645,0.684,-0.278,0.915,5.432,-3.173,1
7.076248,0.635,0.678,-0.286,2.319,5.432,-2.99,1
7.084883,0.629,0.681,-0.29,4.882,5.676,-2.563,1
7.092027,0.64,0.676,-0.296,8.239,5.004,-2.38,1
7.100288,0.643,0.67,-0.301,12.145,4.882,-1.953,1
7.1082,0.655,0.675,-0.303,14.343,4.455,-1.647,1
7.116253,0.653,0.671,-0.308,14.099,4.638,-1.647,1
7.12366,0.648,0.668,-0.315,12.145,4.699,-1.281,1
7.133006,0.64,0.669,-0.317,8.85,4.699,-1.098,1
7.139885,0.639,0.67,-0.322,6.774,4.394,-0.915,1
7.148472,0.637,0.673,-0.317,6.225,3.967,-0.549,1
7.156417,0.64,0.669,-0.316,6.225,3.54,-0.61,1
7.163167,0.644,0.671,-0.313,6.164,3.295,0.0,1
7.170264,0.645,0.667,-0.316,5.065,3.479,0.061,1
7.178294,0.65,0.66,-0.32,3.112,3.173,0.732,1
7.185256,0.656,0.666,-0.322,0.671,3.112,0.854,1
7.19349,0.65,0.673,-0.321,-0.854,3.173,1.464,1
7.202072,0.649,0.681,-0.322,-0.976,2.685,1.77,1
7.210229,0.649,0.682,-0.322,-0.244,2.502,1.892,1
7.21803,0.654,0.686,-0.323,0.915,2.075,2.258,1
7.226245,0.653,0.689,-0.319,1.342,1.77,2.319,1
7.233009,0.658,0.688,-0.314,1.586,1.586,2.563,1
7.240617,0.653,0.703,-0.308,1.831,1.525,2.746,1
7.248209,0.653,0.716,-0.305,0.915,1.098,2.868,1
7.257296,0.648,0.719,-0.307,-0.488,0.976,2.624,1
7.264264,0.651,0.724,-0.299,-1.586,0.976,2.38,1
7.273472,0.648,0.721,-0.297,-2.868,0.976,2.197,1
7.28144,0.647,0.722,-0.291,-3.601,0.854,2.014,1
7.290394,0.639,0.72,-0.29,-3.723,0.915,1.892,1
7.297588,0.64,0.725,-0.285,-3.173,0.915,1.953,1
7.305124,0.641,0.728,-0.284,-2.319,0.793,2.014,1
7.314642,0.641,0.739,-0.279,-0.732,0.915,1.831,1
7.322066,0.648,0.76,-0.284,1.647,0.488,1.831,1
7.329028,0.65,0.765,-0.285,3.051,0.549,1.159,1
7.336967,0.658,0.762,-0.29,2.258,0.671,1.037,1
7.345918,0.663,0.753,-0.292,-0.061,0.854,0.488,1
7.354642,0.662,0.75,-0.298,-2.685,1.098,0.305,1
7.361699,0.657,0.748,-0.301,-4.272,1.098,0.0,1
7.369078,0.659,0.741,-0.302,-5.554,1.098,0.061,1
7.376982,0.656,0.741,-0.311,-5.981,1.281,-0.122,1
7.386061,0.656,0.743,-0.322,-6.652,1.281,-0.366,1
7.393063,0.658,0.753,-0.334,-6.896,1.037,-0.427,1
7.402227,0.662,0.76,-0.337,-7.141,0.854,-0.671,1
7.410839,0.666,0.767,-0.344,-6.225,0.61,-1.22,1
7.418078,0.663,0.768,-0.344,-5.187,-0.061,-1.464,1
7.426155,0.654,0.761,-0.343,-2.502,-0.732,-2.136,1
7.433738,0.652,0.751,-0.334,-0.671,-1.464,-2.685,1
7.442253,0.657,0.725,-0.334,-1.098,-1.525,-3.051,1
7.451532,0.66,0.713,-0.332,-2.075,-1.953,-3.051,1
7.460043,0.66,0.708,-0.328,-2.99,-1.953,-3.051,1
7.468604,0.668,0.708,-0.331,-2.685,-2.319,-2.746,1
7.476793,0.674,0.709,-0.334,-1.892,-2.563,-2.685,1
7.485664,0.672,0.715,-0.336,-1.281,-3.234,-2.746,1
7.494121,0.676,0.71,-0.34,-1.098,-3.479,-3.112,1
7.502664,0.674,0.706,-0.339,-2.014,-4.211,-3.173,1
7.510376,0.669,0.7,-0.331,-2.99,-4.333,-3.051,1
7.518624,0.654,0.689,-0.319,-3.662,-4.821,-3.051,1
7.526657,0.66,0.686,-0.306,-3.295,-5.126,-2.746,1
7.535019,0.66,0.687,-0.291,-1.098,-5.493,-2.624,1
7.542416,0.657,0.687,-0.279,2.075,-5.615,-2.38,1
7.551544,0.664,0.683,-0.268,3.295,-5.554,-2.197,1
7.558559,0.668,0.675,-0.255,2.868,-5.187,-2.075,1
7.567736,0.665,0.665,-0.251,1.403,-4.821,-1.77,1
7.57684,0.666,0.657,-0.243,-0.976,-4.272,-1.464,1
7.585424,0.658,0.66,-0.236,-2.746,-3.784,-1.037,1
7.59417,0.655,0.671,-0.235,-2.258,-3.356,-0.427,1
7.602787,0.648,0.684,-0.229,-0.061,-3.173,-0.183,1
7.609591,0.65,0.698,-0.231,1.892,-2.807,0.122,1
7.618689,0.642,0.701,-0.233,3.234,-2.502,-0.122,1
7.625494,0.645,0.705,-0.233,3.601,-1.953,0.244,1
7.634813,0.644,0.699,-0.234,2.258,-1.708,0.061,1
7.643418,0.641,0.7,-0.234,0.305,-1.037,-0.244,1
7.650039,0.638,0.699,-0.235,-0.915,-0.61,-0.122,1
7.659087,0.641,0.696,-0.23,-0.854,-0.305,-0.061,1
7.667597,0.641,0.693,-0.222,-0.122,0.061,-0.061,1
7.674972,0.638,0.691,-0.228,0.427,0.427,0.0,1
7.682004,0.637,0.705,-0.225,1.586,0.854,0.305,1
7.690741,0.64,0.708,-0.226,2.746,1.22,0.366,1
7.697477,0.638,0.711,-0.227,2.685,1.586,0.366,1
7.704869,0.63,0.722,-0.23,2.258,2.197,0.122,1
7.713702,0.633,0.725,-0.24,0.671,2.624,-0.061,1
7.72144,0.63,0.723,-0.248,-0.61,2.99,-0.183,1
7.729746,0.631,0.718,-0.251,-2.075,3.417,-0.244,1
7.737062,0.638,0.712,-0.26,-2.99,3.54,-0.793,1
7.744718,0.643,0.711,-0.262,-2.746,3.417,-0.915,1
7.752372,0.648,0.713,-0.262,-2.197,3.54,-1.098,1
7.760773,0.65,0.715,-0.27,-0.732,3.601,-1.159,1
7.770622,0.666,0.713,-0.272,-0.366,3.417,-1.098,1
7.776547,0.666,0.716,-0.28,-0.671,3.723,-1.037,1
7.786035,0.673,0.712,-0.29,-1.586,3.662,-1.281,1
7.793177,0.672,0.711,-0.29,-2.441,3.845,-1.037,1
7.80107,0.673,0.708,-0.297,-3.173,3.967,-0.793,1
7.808755,0.672,0.709,-0.301,-3.845,3.967,-0.61,1
7.816415,0.672,0.71,-0.307,-3.601,3.845,-0.366,1
7.824155,0.665,0.712,-0.312,-2.868,3.784,-0.549,1
7.831844,0.665,0.716,-0.32,-2.258,3.662,-0.732,1
7.839335,0.665,0.721,-0.33,-1.525,3.662,-0.854,1
7.847134,0.671,0.723,-0.337,-0.61,2.929,-0.61,1
7.856357,0.677,0.72,-0.343,-0.244,2.624,-1.22,1
7.865108,0.683,0.719,-0.341,-0.183,2.441,-1.525,1
7.872364,0.678,0.715,-0.335,-1.22,1.708,-1.586,1
7.879606,0.681,0.711,-0.33,-2.38,1.708,-1.647,1
7.888792,0.678,0.708,-0.318,-2.99,1.464,-1.77,1
7.896862,0.671,0.711,-0.309,-3.601,1.586,-1.892,1
7.905475,0.668,0.708,-0.298,-3.784,1.281,-2.197,1
7.912718,0.668,0.705,-0.287,-3.173,1.22,-2.075,1
7.921708,0.66,0.712,-0.275,-1.953,1.464,-2.197,1
7.928601,0.661,0.716,-0.265,0.976,1.403,-2.075,1
7.93606,0.656,0.72,-0.26,3.356,1.831,-2.319,1
7.94499,0.653,0.72,-0.262,4.211,1.953,-2.624,1
7.952705,0.663,0.709,-0.263,3.234,2.563,-2.929,1
7.959329,0.661,0.699,-0.264,1.77,2.685,-3.173,1
7.966805,0.663,0.695,-0.269,0.671,2.807,-3.051,1
7.975553,0.667,0.688,-0.275,0.0,3.051,-3.112,1
7.982213,0.668,0.683,-0.277,-0.427,3.356,-3.356,1
7.991113,0.668,0.67,-0.28,-1.098,2.99,-3.417,1
7.997798,0.674,0.662,-0.28,-1.953,3.051,-3.295,1
8.006451,0.672,0.656,-0.283,-2.014,3.234,-3.234,1
8.013985,0.681,0.653,-0.287,-0.915,3.173,-3.112,1
8.021461,0.678,0.654,-0.293,0.732,2.868,-2.685,1
8.02934,0.69,0.651,-0.292,2.502,2.929,-2.014,1
8.038647,0.689,0.651,-0.296,5.065,2.746,-1.953,1
8.045461,0.694,0.653,-0.291,7.751,2.319,-1.708,1
8.054055,0.691,0.657,-0.283,11.108,1.953,-1.037,1
8.061933,0.689,0.67,-0.272,13.671,1.831,-0.671,1
8.068806,0.675,0.683,-0.256,15.808,1.586,-0.061,1
8.078481,0.662,0.688,-0.244,16.113,1.77,0.183,1
8.085905,0.643,0.696,-0.233,14.404,2.075,0.366,1
8.093486,0.636,0.696,-0.225,11.352,2.99,0.671,1
8.102435,0.631,0.698,-0.215,8.789,3.479,0.61,1
8.110802,0.622,0.7,-0.211,6.53,4.211,0.793,1
8.11689,0.616,0.7,-0.215,5.615,4.943,0.61,1
8.124996,0.619,0.705,-0.216,5.004,5.371,0.366,1
8.132718,0.617,0.709,-0.224,4.76,5.92,0.488,1
8.139946,0.624,0.711,-0.23,4.333,6.103,0.549,1
8.148844,0.622,0.709,-0.236,4.028,6.591,0.122,1
8.156274,0.619,0.708,-0.235,3.356,6.774,0.366,1
8.163953,0.626,0.701,-0.236,3.662,7.385,0.305,1
8.171083,0.632,0.695,-0.244,3.417,7.751,0.549,1
8.178575,0.635,0.687,-0.244,3.356,8.239,0.427,1
8.186883,0.637,0.689,-0.246,3.479,8.361,1.098,1
8.194208,0.645,0.689,-0.258,3.54,8.972,1.159,1
8.202963,0.65,0.692,-0.267,2.99,9.338,0.976,1
8.211222,0.658,0.689,-0.277,2.197,9.46,1.403,1
8.217643,0.661,0.69,-0.29,0.976,9.948,1.22,1
8.226556,0.653,0.691,-0.294,0.0,9.826,1.464,1
8.233095,0.654,0.689,-0.304,-1.037,9.948,1.892,1
8.240391,0.653,0.686,-0.318,-1.525,10.253,2.014,1
8.248955,0.647,0.686,-0.317,-1.098,10.192,2.258,1
8.258111,0.645,0.685,-0.331,0.183,9.948,2.502,1
8.265567,0.647,0.684,-0.344,1.098,10.009,2.624,1
8.27219,0.648,0.685,-0.36,2.258,9.521,2.868,1
8.280535,0.644,0.684,-0.376,2.441,9.338,2.99,1
8.289385,0.64,0.682,-0.394,2.868,8.972,3.417,1
8.297228,0.642,0.685,-0.412,2.929,8.544,3.173,1
8.304256,0.642,0.686,-0.426,3.54,7.873,3.173,1
8.313067,0.636,0.676,-0.441,4.028,7.08,3.601,1
8.320847,0.626,0.674,-0.449,3.356,6.652,3.723,1
8.328718,0.625,0.662,-0.461,2.258,6.103,3.845,1
8.337089,0.617,0.662,-0.476,1.098,5.187,4.15,1
8.344404,0.611,0.656,-0.492,0.854,4.821,4.638,1
8.351477,0.607,0.653,-0.505,0.854,3.662,5.126,1
8.361046,0.603,0.645,-0.524,1.77,3.112,5.371,1
8.368482,0.601,0.635,-0.541,1.953,2.319,5.981,1
8.376226,0.599,0.63,-0.553,1.22,1.647,6.469,1
8.384479,0.596,0.62,-0.569,-0.061,0.732,7.202,1
8.39152,0.582,0.622,-0.584,-1.037,-0.366,8.056,1
8.399457,0.578,0.615,-0.604,-1.831,-1.342,9.155,1
8.408635,0.564,0.612,-0.615,-1.892,-2.441,10.192,1
8.415372,0.545,0.605,-0.63,-2.075,-3.906,11.535,1
8.424783,0.526,0.599,-0.638,-2.868,-5.065,12.695,1
8.431363,0.51,0.588,-0.645,-4.821,-5.981,14.099,1
8.440301,0.498,0.573,-0.654,-7.751,-7.263,15.747,1
8.447686,0.489,0.572,-0.667,-12.084,-8.544,17.639,1
8.457027,0.467,0.568,-0.681,-14.892,-9.46,19.287,1
8.46381,0.458,0.573,-0.695,-18.127,-10.742,21.362,1
8.472921,0.445,0.572,-0.718,-20.446,-11.962,22.888,1
8.481823,0.445,0.57,-0.749,-21.057,-13.732,24.414,1
8.48861,0.432,0.572,-0.773,-19.409,-16.052,26.184,1
8.497564,0.422,0.573,-0.813,-19.226,-18.005,28.381,1
8.506341,0.411,0.575,-0.86,-22.155,-19.836,29.907,1
8.513387,0.393,0.602,-0.924,-28.503,-22.094,31.921,1
8.522903,0.363,0.631,-1.002,-35.522,-23.864,33.447,1
8.529584,0.326,0.651,-1.093,-45.654,-27.099,35.034,1
8.53751,0.276,0.661,-1.173,-56.64,-29.907,35.827,1
8.545966,0.234,0.652,-1.281,-76.171,-33.996,37.719,1
8.55533,0.212,0.643,-1.339,-96.74,-37.963,39.733,1
8.563378,0.177,0.646,-1.396,-113.708,-42.541,42.114,1
8.570488,0.169,0.657,-1.437,-119.75,-49.621,45.837,1
8.579792,0.15,0.682,-1.482,-111.816,-56.701,48.95,1
8.588796,0.104,0.71,-1.539,-95.092,-66.345,52.124,1
8.596099,0.083,0.709,-1.584,-86.242,-74.89,54.809,1
8.603545,0.047,0.72,-1.621,-85.388,-84.411,57.678,1
8.612286,0.01,0.726,-1.647,-92.285,-93.933,60.424,1
8.622153,-0.019,0.732,-1.659,-101.623,-101.013,62.561,1
8.630958,-0.03,0.742,-1.662,-111.755,-110.412,65.979,1
8.638114,-0.062,0.754,-1.645,-112.487,-120.727,69.824,1
8.645579,-0.07,0.766,-1.627,-103.637,-130.31,73.425,1
8.654602,-0.102,0.778,-1.604,-90.576,-141.723,78.002,1
8.663289,-0.143,0.778,-1.591,-86.242,-153.137,82.214,1
8.670566,-0.203,0.781,-1.558,-92.163,-161.437,85.815,1
8.678256,-0.255,0.799,-1.515,-103.576,-169.311,89.721,1
8.687048,-0.324,0.849,-1.422,-115.173,-177.856,94.36,1
8.69631,-0.375,0.905,-1.335,-119.628,-185.607,99.121,1
8.704814,-0.41,0.969,-1.28,-114.562,-192.077,103.088,1
8.712201,-0.491,1.059,-1.233,-92.773,-201.293,106.384,1
8.721209,-0.562,1.118,-1.187,-67.504,-209.96,107.91,1
8.728313,-0.616,1.139,-1.153,-44.433,-219.909,108.154,1
8.736764,-0.649,1.162,-1.108,-32.958,-227.478,107.788,1
8.746165,-0.678,1.182,-1.066,-28.076,-235.595,106.384,1
8.752689,-0.724,1.225,-1.001,-29.479,-242.126,104.919,1
8.762052,-0.764,1.283,-0.922,-34.484,-249.755,102.905,1
8.770496,-0.812,1.348,-0.818,-40.283,-255.676,101.196,1
8.777904,-0.846,1.437,-0.674,-42.48,-261.413,99.853,1
8.786777,-0.842,1.532,-0.558,-43.823,-267.089,96.374,1
8.793864,-0.848,1.634,-0.393,-48.828,-270.813,91.857,1
8.802989,-0.792,1.853,-0.113,-69.213,-270.019,83.618,1
8.810017,-0.783,2.033,0.136,-91.552,-264.038,75.622,1
8.819172,-0.692,2.174,0.352,-102.111,-258.483,65.185,1
8.826312,-0.485,2.206,0.54,-92.407,-250.305,53.894,1
8.835587,-0.418,2.246,0.638,-91.369,-244.873,44.006,1
8.843077,-0.474,2.281,0.777,-75.927,-235.839,32.836,1
8.851074,-0.341,2.214,0.787,-69.213,-229.98,23.01,1
8.85904,-0.262,2.169,0.818,-72.509,-224.304,14.587,1
8.866738,-0.256,2.123,0.856,-75.073,-216.064,5.798,1
8.875003,-0.187,2.071,0.871,-74.768,-210.571,-0.427,1
8.883309,-0.11,2.001,0.864,-72.814,-204.956,-6.042,1
8.892295,-0.066,1.939,0.873,-67.81,-199.89,-10.803,1
8.900481,-0.026,1.884,0.872,-58.532,-193.664,-15.747,1
8.907836,-0.009,1.838,0.873,-51.33,-188.293,-20.629,1
8.916489,-0.024,1.805,0.917,-43.212,-183.288,-25.39,1
8.925618,-0.038,1.767,0.944,-33.813,-177.307,-30.578,1
8.93317,-0.038,1.705,0.961,-29.174,-171.63,-35.156,1
8.942463,-0.029,1.619,0.963,-28.808,-164.55,-39.916,1
8.950601,-0.016,1.525,0.956,-33.874,-157.104,-44.738,1
8.957085,-0.01,1.445,0.943,-38.94,-151.245,-48.339,1
8.964583,0.0,1.357,0.927,-42.297,-145.446,-51.391,1
8.97233,0.024,1.26,0.906,-43.457,-140.075,-54.016,1
8.980295,0.053,1.161,0.887,-42.785,-135.253,-55.908,1
8.989194,0.085,1.052,0.856,-41.564,-130.004,-57.617,1
8.996616,0.109,0.958,0.846,-40.588,-126.281,-58.349,1
9.005357,0.146,0.861,0.843,-38.085,-122.558,-58.471,1
9.012801,0.183,0.793,0.854,-34.057,-118.286,-57.861,1
9.020189,0.21,0.724,0.866,-29.602,-114.501,-56.884,1
9.029846,0.229,0.651,0.885,-24.658,-110.351,-55.603,1
9.036135,0.229,0.578,0.886,-22.521,-104.003,-53.344,1
9.045637,0.249,0.513,0.892,-23.925,-99.792,-50.903,1
9.052933,0.314,0.441,0.914,-25.146,-92.59,-47.302,1
9.060636,0.354,0.399,0.898,-26.123,-87.219,-44.128,1
9.06945,0.39,0.367,0.88,-27.221,-82.031,-40.466,1
9.077595,0.435,0.349,0.854,-28.32,-76.049,-36.376,1
9.084499,0.459,0.343,0.819,-28.93,-71.777,-32.897,1
9.093259,0.477,0.348,0.773,-29.296,-67.871,-29.296,1
9.102622,0.485,0.364,0.729,-28.747,-64.086,-26.0,1
9.109368,0.521,0.375,0.698,-25.573,-60.913,-23.071,1
9.118687,0.544,0.387,0.675,-23.62,-58.593,-20.385,1
9.126257,0.559,0.401,0.675,-21.057,-56.152,-18.188,1
9.1339,0.57,0.414,0.683,-18.188,-54.077,-15.93,1
9.141666,0.582,0.415,0.703,-16.296,-50.964,-13.793,1
9.149444,0.589,0.395,0.726,-17.15,-47.607,-11.596,1
9.157397,0.587,0.385,0.727,-22.155,-44.006,-9.521,1
9.166826,0.584,0.381,0.736,-29.357,-39.367,-7.019,1
9.173974,0.576,0.385,0.729,-33.02,-35.583,-4.394,1
9.183144,0.573,0.39,0.71,-33.691,-31.433,-1.464,1
9.191153,0.572,0.402,0.696,-31.799,-28.381,1.037,1
9.197351,0.573,0.424,0.678,-27.465,-25.329,3.845,1
9.20687,0.572,0.458,0.666,-23.498,-23.01,5.554,1
9.213973,0.583,0.48,0.655,-16.845,-19.897,7.812,1
9.223016,0.594,0.51,0.631,-11.84,-16.967,9.643,1
9.230114,0.613,0.53,0.59,-8.056,-13.854,11.23,1
9.239161,0.622,0.545,0.554,-6.652,-11.535,12.023,1
9.246038,0.629,0.565,0.516,-7.019,-9.216,12.817,1
9.25418,0.635,0.574,0.469,-8.666,-7.507,13.427,1
9.260349,0.65,0.583,0.423,-11.169,-5.859,14.343,1
9.269205,0.669,0.599,0.387,-12.878,-4.943,15.319,1
9.278236,0.682,0.615,0.358,-13.854,-4.089,16.296,1
9.285675,0.688,0.642,0.329,-12.817,-3.784,17.211,1
9.295445,0.701,0.674,0.302,-9.826,-4.028,18.005,1
9.3017,0.704,0.71,0.276,-6.713,-4.089,18.554,1
9.309441,0.709,0.736,0.261,-4.272,-4.15,19.042,1
9.318234,0.718,0.752,0.247,-1.281,-4.699,19.104,1
9.325507,0.729,0.775,0.239,0.488,-4.76,19.042,1
9.333473,0.736,0.799,0.242,2.258,-4.882,18.981,1
9.341183,0.74,0.816,0.251,2.136,-4.394,18.249,1
9.34852,0.742,0.842,0.253,0.61,-3.845,17.639,1
9.356404,0.744,0.864,0.254,-2.685,-3.295,16.662,1
9.365337,0.744,0.874,0.248,-6.469,-2.258,15.197,1
9.374516,0.739,0.909,0.245,-7.751,-2.014,13.916,1
9.381674,0.739,0.916,0.238,-5.92,-1.586,12.207,1
9.389186,0.738,0.92,0.228,-4.455,-1.586,10.62,1
9.397358,0.742,0.916,0.224,-3.845,-1.037,9.216,1
9.406913,0.74,0.903,0.215,-4.455,-0.61,7.873,1
9.414394,0.735,0.904,0.213,-5.004,-0.366,6.896,1
9.422142,0.729,0.903,0.206,-6.103,0.427,5.676,1
9.428976,0.717,0.9,0.2,-7.08,0.488,4.577,1
9.436475,0.71,0.893,0.196,-7.751,0.915,3.784,1
9.444536,0.702,0.885,0.193,-8.728,0.854,2.502,1
9.451525,0.689,0.881,0.194,-7.995,1.22,1.892,1
9.460476,0.688,0.867,0.192,-5.798,1.464,1.342,1
9.467769,0.688,0.85,0.191,-3.417,1.647,0.549,1
9.476187,0.676,0.842,0.194,-1.708,1.77,0.427,1
9.483125,0.663,0.833,0.193,-0.61,2.38,0.122,1
9.492268,0.66,0.824,0.183,-0.793,2.929,-0.488,1
9.500024,0.661,0.82,0.165,-1.831,3.417,-1.037,1
9.507222,0.666,0.806,0.153,-1.586,3.784,-1.647,1
9.514806,0.672,0.797,0.142,-1.586,4.272,-2.136,1
9.523767,0.67,0.79,0.122,-2.075,4.516,-2.075,1
9.532557,0.672,0.779,0.115,-3.479,4.699,-2.441,1
9.539992,0.676,0.769,0.104,-3.723,4.211,-2.502,1
9.548688,0.68,0.758,0.098,-2.99,3.967,-2.563,1
9.554994,0.679,0.741,0.094,-2.136,3.662,-2.136,1
9.562486,0.674,0.729,0.094,-0.976,3.479,-2.075,1
9.571069,0.675,0.728,0.094,0.061,2.99,-1.77,1
9.577938,0.672,0.722,0.091,1.342,2.807,-1.708,1
9.585787,0.667,0.717,0.09,2.685,2.38,-1.342,1
9.594217,0.658,0.716,0.083,2.014,2.38,-0.915,1
9.601598,0.65,0.719,0.068,0.183,2.075,-0.61,1
9.608873,0.646,0.73,0.059,-0.244,1.77,-0.61,1
9.617932,0.645,0.735,0.049,1.525,0.671,-0.366,1
9.624205,0.636,0.729,0.044,3.295,-0.061,-0.305,1
9.633551,0.629,0.727,0.045,4.455,-0.915,-0.061,1
9.640884,0.623,0.716,0.051,4.333,-1.892,0.488,1
9.648657,0.622,0.715,0.06,4.089,-2.441,0.793,1
9.655617,0.624,0.71,0.065,4.211,-2.868,1.22,1
9.665526,0.621,0.713,0.072,4.699,-3.234,1.708,1
9.673748,0.617,0.722,0.073,5.187,-3.662,2.197,1
9.681606,0.622,0.721,0.077,6.652,-4.028,2.685,1
9.689594,0.621,0.732,0.076,8.483,-4.638,2.868,1
9.69766,0.621,0.742,0.075,9.277,-4.943,3.234,1
9.703967,0.623,0.747,0.076,9.033,-5.615,3.356,1
9.712661,0.622,0.753,0.07,7.995,-5.92,3.295,1
9.722177,0.629,0.761,0.071,7.263,-6.347,2.99,1
9.729311,0.631,0.765,0.076,7.69,-7.019,2.746,1
9.737216,0.643,0.768,0.081,8.544,-7.934,2.624,1
9.744881,0.645,0.776,0.095,9.765,-8.422,2.258,1
9.75321,0.648,0.782,0.11,10.375,-9.033,2.197,1
9.760648,0.643,0.777,0.136,9.704,-9.033,1.953,1
9.767559,0.645,0.784,0.158,8.911,-8.911,1.708,1
9.77538,0.647,0.79,0.185,8.666,-8.972,1.403,1
9.784131,0.645,0.79,0.206,8.728,-8.422,1.342,1
9.790916,0.649,0.794,0.225,8.666,-7.873,1.159,1
9.799812,0.657,0.801,0.248,9.094,-7.08,0.61,1
9.806822,0.655,0.797,0.268,9.216,-6.286,0.549,1
9.814941,0.641,0.811,0.295,9.094,-4.821,0.122,1
9.822423,0.643,0.812,0.313,8.3,-3.784,0.0,1
9.831101,0.657,0.811,0.314,5.92,-1.77,-0.793,1
9.838636,0.632,0.81,0.313,4.699,-0.366,-1.159,1
9.846767,0.648,0.81,0.303,3.845,0.732,-1.586,1
9.854313,0.666,0.799,0.295,4.821,1.892,-2.014,1
9.861943,0.67,0.801,0.283,5.554,3.051,-2.197,1
9.870796,0.676,0.788,0.266,5.187,4.089,-2.38,1
9.877054,0.687,0.786,0.246,4.089,4.882,-2.258,1
9.886144,0.688,0.782,0.232,2.929,5.432,-2.319,1
9.892944,0.694,0.79,0.217,1.953,5.798,-2.319,1
9.901685,0.692,0.782,0.214,1.831,5.737,-2.624,1
9.909733,0.694,0.775,0.214,2.441,5.859,-2.746,1
9.917748,0.687,0.768,0.219,2.441,6.286,-2.624,1
9.924551,0.679,0.765,0.213,2.197,6.835,-2.685,1
9.932405,0.676,0.771,0.21,1.281,7.263,-2.868,1
9.940207,0.67,0.775,0.205,0.915,7.629,-2.99,1
9.947519,0.669,0.78,0.194,0.915,7.873,-3.112,1
9.955314,0.662,0.777,0.188,1.464,8.178,-3.417,1
9.963035,0.659,0.777,0.175,1.525,8.361,-3.601,1
9.971403,0.656,0.77,0.171,1.892,8.483,-3.845,1
9.978116,0.654,0.761,0.165,2.868,8.239,-3.906,1
9.985581,0.652,0.75,0.159,3.906,8.422,-4.089,1
9.993196,0.652,0.74,0.152,4.272,8.361,-4.028,1
