timestamp_s,ax,ay,az,gx,gy,gz,label
0.005059,0.681,0.517,-0.525,0.793,0.305,0.0,1
0.014289,0.679,0.52,-0.528,0.915,0.427,0.061,1
0.020006,0.679,0.517,-0.53,0.549,0.549,-0.061,1
0.027619,0.681,0.511,-0.534,0.183,0.61,0.061,1
0.035569,0.687,0.515,-0.532,-0.183,0.549,0.061,1
0.041713,0.682,0.519,-0.532,-0.183,0.427,0.061,1
0.050133,0.676,0.521,-0.534,0.244,0.366,0.061,1
0.056811,0.678,0.521,-0.533,0.854,0.305,0.0,1
0.065206,0.679,0.518,-0.531,1.037,0.183,-0.183,1
0.071753,0.679,0.517,-0.533,1.281,0.183,0.0,1
0.079841,0.682,0.515,-0.53,1.464,0.305,0.183,1
0.088742,0.679,0.515,-0.532,1.281,0.244,0.0,1
0.095253,0.679,0.511,-0.534,1.037,0.366,0.061,1
0.103676,0.682,0.516,-0.536,0.915,0.183,0.244,1
0.111085,0.679,0.519,-0.539,0.183,0.244,0.183,1
0.119909,0.677,0.523,-0.536,0.366,0.061,0.427,1
0.126847,0.681,0.524,-0.534,0.122,0.061,0.183,1
0.134686,0.68,0.525,-0.533,0.549,-0.122,0.549,1
0.143552,0.682,0.528,-0.531,1.22,-0.122,0.244,1
0.151115,0.678,0.526,-0.531,1.77,-0.305,0.183,1
0.158067,0.679,0.522,-0.529,2.441,-0.305,0.305,1
0.166963,0.675,0.52,-0.528,2.563,-0.244,0.061,1
0.174037,0.678,0.518,-0.529,1.892,-0.122,0.244,1
0.182824,0.676,0.519,-0.532,1.098,-0.061,0.427,1
0.18994,0.681,0.521,-0.529,0.671,0.0,0.427,1
0.197594,0.678,0.523,-0.53,0.366,0.122,0.488,1
0.204863,0.682,0.524,-0.523,0.732,-0.122,0.427,1
0.213049,0.678,0.526,-0.522,1.098,-0.061,0.488,1
0.221925,0.677,0.523,-0.528,1.098,-0.061,0.244,1
0.22888,0.677,0.52,-0.524,1.403,0.0,0.549,1
0.238026,0.678,0.525,-0.525,1.22,-0.122,0.549,1
0.246024,0.682,0.525,-0.529,1.342,0.061,0.488,1
0.253008,0.681,0.527,-0.525,2.014,-0.122,0.427,1
0.260317,0.684,0.528,-0.524,1.831,0.061,0.61,1
0.26958,0.683,0.528,-0.525,1.647,-0.122,0.793,1
0.276643,0.682,0.532,-0.525,0.732,0.122,0.732,1
0.282858,0.679,0.53,-0.525,0.549,0.122,0.427,1
0.29094,0.677,0.536,-0.526,0.427,0.122,0.366,1
0.298462,0.683,0.528,-0.522,0.793,0.183,0.244,1
0.307081,0.68,0.529,-0.523,1.159,0.061,0.427,1
0.314448,0.678,0.531,-0.526,1.647,0.305,0.427,1
0.323543,0.679,0.53,-0.526,1.403,0.061,0.488,1
0.330685,0.678,0.528,-0.526,1.403,0.244,0.244,1
0.338387,0.673,0.531,-0.527,1.22,0.122,-0.061,1
0.34594,0.67,0.531,-0.527,0.671,0.244,0.366,1
0.35384,0.675,0.531,-0.528,0.488,0.183,0.183,1
0.361241,0.674,0.534,-0.53,0.61,0.0,0.244,1
0.369638,0.679,0.53,-0.531,0.854,-0.183,-0.061,1
0.377579,0.68,0.532,-0.534,1.098,-0.122,0.122,1
0.386371,0.682,0.533,-0.535,1.098,-0.244,-0.061,1
0.394204,0.682,0.531,-0.53,0.915,-0.244,-0.061,1
0.402526,0.684,0.533,-0.533,0.671,-0.122,-0.061,1
0.409375,0.686,0.538,-0.53,0.488,-0.244,0.0,1
0.418648,0.679,0.535,-0.526,0.366,-0.183,-0.305,1
0.426756,0.684,0.534,-0.526,0.0,-0.305,-0.244,1
0.434911,0.682,0.531,-0.532,-0.061,-0.122,-0.122,1
0.442779,0.68,0.529,-0.527,-0.366,-0.061,-0.183,1
0.450114,0.683,0.533,-0.526,0.061,-0.061,-0.244,1
0.459592,0.685,0.529,-0.525,-0.244,-0.366,-0.366,1
0.466553,0.682,0.533,-0.523,0.0,-0.244,-0.244,1
0.473825,0.68,0.537,-0.52,0.366,-0.244,-0.549,1
0.482242,0.675,0.533,-0.52,0.244,-0.183,-0.427,1
0.491654,0.669,0.538,-0.518,-0.427,0.061,-0.427,1
0.499485,0.672,0.536,-0.516,-1.037,0.183,-0.549,1
0.506626,0.665,0.531,-0.516,-1.281,0.427,-0.671,1
0.514917,0.666,0.531,-0.521,-0.61,0.305,-0.793,1
0.522828,0.671,0.529,-0.518,-0.061,0.244,-0.61,1
0.529117,0.67,0.525,-0.522,0.305,0.061,-0.915,1
0.537681,0.674,0.524,-0.52,0.793,0.061,-0.732,1
0.545267,0.677,0.522,-0.52,0.915,0.244,-0.915,1
0.552056,0.678,0.524,-0.52,1.159,0.122,-0.671,1
0.561123,0.673,0.524,-0.521,0.854,0.244,-0.793,1
0.568282,0.673,0.519,-0.524,0.122,0.427,-0.61,1
0.576665,0.676,0.52,-0.532,-0.61,0.61,-0.61,1
0.584624,0.68,0.513,-0.531,-0.732,0.427,-0.244,1
0.591932,0.684,0.512,-0.527,-1.037,0.366,-0.488,1
0.601224,0.686,0.513,-0.53,0.061,0.305,-0.305,1
0.607917,0.687,0.512,-0.532,0.61,0.244,0.0,1
0.616777,0.686,0.516,-0.532,0.976,0.183,0.061,1
0.622959,0.682,0.52,-0.532,0.732,0.305,0.122,1
0.631179,0.677,0.522,-0.535,0.366,0.183,0.244,1
0.639674,0.677,0.529,-0.532,0.0,0.183,0.366,1
0.646201,0.678,0.524,-0.529,0.122,0.183,0.305,1
0.65419,0.676,0.523,-0.53,0.183,0.305,0.244,1
0.661073,0.677,0.521,-0.531,0.427,0.061,0.061,1
0.6703,0.679,0.519,-0.532,0.732,-0.122,0.244,1
0.677304,0.682,0.523,-0.534,1.037,0.0,-0.061,1
0.685854,0.679,0.525,-0.531,0.915,-0.183,0.183,1
0.693168,0.679,0.521,-0.534,0.793,-0.061,0.183,1
0.701187,0.678,0.523,-0.523,0.976,-0.305,0.061,1
0.709424,0.678,0.523,-0.524,1.281,-0.427,0.305,1
0.717416,0.678,0.525,-0.516,1.708,-0.305,0.305,1
0.724493,0.679,0.521,-0.518,1.77,-0.183,0.244,1
0.73393,0.674,0.523,-0.519,1.892,-0.244,0.244,1
0.740819,0.673,0.519,-0.518,1.831,-0.061,0.305,1
0.748004,0.675,0.519,-0.513,1.831,-0.122,0.427,1
0.755797,0.675,0.518,-0.516,1.892,-0.061,0.427,1
0.763554,0.681,0.52,-0.513,1.464,0.122,0.671,1
0.772558,0.684,0.523,-0.516,0.732,0.122,0.549,1
0.7786,0.679,0.528,-0.519,0.854,0.061,0.915,1
0.787285,0.675,0.531,-0.52,0.366,0.305,0.671,1
0.794725,0.675,0.528,-0.52,0.488,0.366,0.671,1
0.801789,0.676,0.534,-0.52,0.915,0.183,0.61,1
0.811382,0.676,0.533,-0.521,1.342,-0.061,0.61,1
0.818582,0.674,0.53,-0.526,1.525,0.183,0.488,1
0.825314,0.675,0.532,-0.518,1.403,0.244,0.793,1
0.833645,0.681,0.53,-0.526,1.159,0.183,0.732,1
0.8416,0.683,0.534,-0.521,1.037,0.366,0.671,1
0.848253,0.685,0.54,-0.522,0.793,0.244,0.671,1
0.856796,0.684,0.543,-0.524,0.854,0.427,0.549,1
0.865603,0.681,0.545,-0.527,0.427,0.488,0.366,1
0.872403,0.678,0.546,-0.531,0.244,0.366,0.0,1
0.879798,0.682,0.544,-0.533,0.366,0.427,0.244,1
0.888073,0.68,0.55,-0.533,0.366,0.366,-0.122,1
0.895461,0.679,0.541,-0.53,0.427,0.122,0.0,1
0.904582,0.678,0.54,-0.536,0.61,0.427,-0.244,1
0.911723,0.679,0.542,-0.534,0.122,0.244,-0.183,1
0.919081,0.678,0.547,-0.532,0.244,0.061,-0.366,1
0.927674,0.675,0.546,-0.532,0.0,0.183,-0.427,1
0.93535,0.676,0.544,-0.533,-0.122,0.061,-0.244,1
0.944364,0.679,0.538,-0.529,-0.366,-0.183,-0.549,1
0.952969,0.673,0.539,-0.53,-0.549,0.0,-0.61,1
0.959567,0.682,0.535,-0.531,-0.61,0.122,-0.793,1
0.967938,0.67,0.532,-0.53,-0.488,-0.183,-0.549,1
0.977459,0.673,0.533,-0.533,-1.22,-0.061,-0.793,1
0.984578,0.678,0.529,-0.531,-2.014,-0.122,-0.854,1
0.993815,0.679,0.529,-0.53,-1.647,-0.366,-0.244,1
1.000581,0.68,0.533,-0.529,-1.708,-0.183,-0.976,1
1.008705,0.678,0.531,-0.526,-1.037,-0.366,-0.61,1
1.017395,0.671,0.531,-0.522,-0.671,-0.427,-0.61,1
1.025134,0.676,0.533,-0.521,-1.22,-0.366,-0.732,1
1.032236,0.679,0.529,-0.525,-1.831,-0.183,-0.854,1
1.040529,0.677,0.526,-0.527,-1.892,-0.244,-0.61,1
1.048891,0.68,0.524,-0.526,-2.075,-0.183,-0.793,1
1.056499,0.684,0.525,-0.524,-1.831,-0.305,-0.732,1
1.065615,0.684,0.527,-0.525,-1.586,-0.427,-0.488,1
1.072578,0.68,0.526,-0.525,-1.892,-0.366,-0.488,1
1.081492,0.67,0.528,-0.525,-2.136,-0.305,-0.488,1
1.090312,0.662,0.529,-0.526,-2.075,-0.061,-0.61,1
1.097448,0.66,0.524,-0.529,-1.342,-0.244,-0.488,1
1.106794,0.676,0.519,-0.526,-1.708,-0.305,-0.732,1
1.115549,0.686,0.514,-0.527,-2.075,-0.244,-0.305,1
1.122529,0.684,0.512,-0.533,-2.868,-0.183,-0.244,1
1.130828,0.683,0.516,-0.53,-3.051,-0.366,-0.122,1
1.139866,0.68,0.525,-0.534,-3.601,-0.061,-0.244,1
1.1474,0.68,0.531,-0.536,-4.882,-0.061,-0.061,1
1.156607,0.669,0.539,-0.555,-7.385,0.183,0.0,1
1.163964,0.666,0.548,-0.563,-10.681,0.183,-0.366,1
1.171584,0.67,0.561,-0.574,-13.183,0.0,-0.732,1
1.180566,0.67,0.565,-0.576,-12.756,-0.366,-0.793,1
1.18851,0.672,0.567,-0.576,-10.07,-1.037,-1.22,1
1.196436,0.674,0.562,-0.577,-7.202,-1.953,-1.586,1
1.204111,0.684,0.558,-0.576,-4.943,-2.441,-1.586,1
1.213521,0.687,0.558,-0.57,-3.967,-2.624,-2.258,1
1.22173,0.683,0.547,-0.564,-2.868,-3.051,-2.441,1
1.228929,0.682,0.541,-0.557,-2.319,-3.356,-2.441,1
1.237826,0.69,0.532,-0.548,-1.586,-3.356,-3.051,1
1.245552,0.695,0.526,-0.542,-1.464,-3.662,-2.99,1
1.254647,0.704,0.525,-0.535,-2.014,-3.234,-2.99,1
1.262725,0.703,0.521,-0.525,-3.173,-3.54,-3.173,1
1.270072,0.702,0.534,-0.516,-4.394,-3.295,-2.868,1
1.278744,0.695,0.541,-0.51,-5.126,-3.112,-2.929,1
1.288102,0.694,0.541,-0.505,-5.798,-2.868,-3.234,1
1.294967,0.688,0.542,-0.495,-6.103,-2.624,-3.356,1
1.303778,0.679,0.541,-0.49,-6.042,-1.953,-3.906,1
1.312821,0.668,0.536,-0.483,-5.004,-1.586,-4.028,1
1.319943,0.666,0.527,-0.482,-3.417,-1.22,-4.211,1
1.329167,0.668,0.512,-0.478,-1.403,-0.793,-4.577,1
1.339336,0.67,0.498,-0.483,-0.549,-0.488,-4.577,1
1.347673,0.677,0.483,-0.493,-1.708,0.122,-4.577,1
1.355244,0.679,0.485,-0.495,-2.441,0.427,-4.333,1
1.364678,0.678,0.479,-0.501,-2.624,0.488,-3.906,1
1.3719,0.676,0.479,-0.502,-2.136,0.549,-3.723,1
1.380277,0.676,0.476,-0.505,-1.037,0.549,-3.54,1
1.387143,0.684,0.465,-0.509,0.0,0.488,-3.173,1
1.395925,0.686,0.465,-0.51,0.183,0.976,-3.112,1
1.403096,0.687,0.457,-0.51,0.122,0.915,-2.441,1
1.411341,0.69,0.451,-0.516,-0.122,1.22,-2.014,1
1.421346,0.695,0.449,-0.52,-1.098,1.342,-1.525,1
1.427045,0.7,0.458,-0.527,-1.342,1.586,-0.976,1
1.435936,0.696,0.464,-0.535,-1.281,1.708,-0.671,1
1.443192,0.693,0.466,-0.538,-0.549,1.586,-0.488,1
1.452347,0.688,0.469,-0.538,0.061,1.525,-0.549,1
1.459888,0.68,0.469,-0.542,0.183,1.586,-0.366,1
1.467101,0.678,0.469,-0.546,-0.244,1.525,-0.122,1
1.475311,0.68,0.466,-0.554,-0.915,1.403,0.183,1
1.484291,0.677,0.469,-0.559,-0.61,1.464,0.427,1
1.491559,0.68,0.47,-0.563,-0.488,1.037,0.549,1
1.498923,0.687,0.466,-0.561,0.122,0.732,0.854,1
1.506846,0.688,0.473,-0.562,1.159,0.427,1.159,1
1.51388,0.685,0.479,-0.56,2.075,0.061,1.403,1
1.522786,0.685,0.484,-0.557,2.319,-0.244,1.525,1
1.53038,0.686,0.487,-0.553,2.014,-0.244,1.77,1
1.53834,0.682,0.492,-0.552,2.258,-0.244,1.647,1
1.545898,0.683,0.489,-0.549,2.441,-0.427,1.892,1
1.55396,0.686,0.492,-0.548,2.441,-0.61,2.014,1
1.562118,0.687,0.494,-0.545,2.258,-0.305,2.136,1
1.569844,0.685,0.498,-0.549,1.708,-0.61,2.075,1
1.577288,0.687,0.504,-0.547,1.22,-0.671,2.258,1
1.58557,0.681,0.511,-0.544,0.732,-0.61,2.319,1
1.593483,0.682,0.517,-0.542,0.61,-0.793,2.258,1
1.600274,0.681,0.521,-0.539,0.976,-0.976,2.136,1
1.608588,0.682,0.526,-0.532,1.77,-0.976,2.014,1
1.616673,0.678,0.529,-0.532,2.441,-1.159,1.892,1
1.623401,0.683,0.525,-0.525,3.051,-1.037,1.403,1
1.630109,0.689,0.528,-0.519,2.868,-0.793,1.708,1
1.637399,0.697,0.528,-0.516,1.708,-0.61,1.22,1
1.645537,0.695,0.531,-0.516,-0.122,-0.427,1.525,1
1.653327,0.693,0.545,-0.521,-2.38,-0.183,1.342,1
1.661674,0.69,0.552,-0.519,-3.723,0.183,1.098,1
1.668518,0.688,0.564,-0.518,-4.028,0.244,0.732,1
1.67859,0.69,0.566,-0.52,-4.272,0.305,0.305,1
1.685924,0.687,0.563,-0.52,-4.333,0.122,0.0,1
1.692966,0.687,0.563,-0.523,-5.798,0.671,-0.549,1
1.701831,0.689,0.56,-0.521,-7.08,1.037,-0.854,1
1.708955,0.691,0.557,-0.524,-8.239,1.403,-1.098,1
1.717929,0.695,0.556,-0.532,-10.253,1.281,-1.647,1
1.72556,0.692,0.56,-0.54,-12.207,1.708,-1.647,1
1.733311,0.687,0.561,-0.544,-13.61,1.77,-2.075,1
1.741288,0.69,0.565,-0.543,-13.732,1.708,-2.563,1
1.748443,0.687,0.565,-0.547,-11.901,1.586,-3.112,1
1.757631,0.68,0.561,-0.547,-9.46,1.159,-3.356,1
1.764776,0.681,0.548,-0.543,-5.554,0.793,-3.967,1
1.773673,0.681,0.528,-0.542,-1.892,0.793,-4.028,1
1.781236,0.689,0.513,-0.541,-0.122,0.732,-4.272,1
1.789883,0.685,0.496,-0.541,0.305,0.793,-4.15,1
1.797416,0.69,0.491,-0.541,-0.854,0.671,-4.15,1
1.80511,0.691,0.481,-0.545,-2.075,0.854,-4.15,1
1.81406,0.685,0.483,-0.539,-3.051,0.915,-3.906,1
1.821134,0.682,0.48,-0.544,-3.417,0.976,-4.028,1
1.830153,0.684,0.477,-0.538,-3.234,0.854,-3.601,1
1.837324,0.677,0.471,-0.537,-2.075,0.793,-3.54,1
1.846364,0.679,0.466,-0.539,-1.098,0.915,-3.417,1
1.854465,0.675,0.457,-0.539,-0.305,0.671,-3.234,1
1.861502,0.677,0.45,-0.541,0.122,0.915,-2.929,1
1.870628,0.678,0.442,-0.543,-0.183,0.793,-2.624,1
1.879167,0.68,0.44,-0.542,-0.183,0.915,-2.319,1
1.886454,0.679,0.437,-0.542,0.244,0.549,-1.953,1
1.893522,0.683,0.435,-0.544,1.159,0.549,-1.403,1
1.902743,0.686,0.44,-0.545,2.014,0.427,-0.854,1
1.9095,0.682,0.441,-0.545,2.441,0.549,-0.61,1
1.917077,0.679,0.439,-0.542,2.258,0.488,0.0,1
1.924259,0.678,0.444,-0.543,1.464,0.488,0.0,1
1.933148,0.681,0.447,-0.548,0.732,0.488,0.305,1
1.940518,0.678,0.449,-0.552,0.061,0.549,0.915,1
1.948742,0.684,0.451,-0.555,0.061,0.854,1.098,1
1.957049,0.686,0.459,-0.562,0.366,0.61,1.403,1
1.965211,0.683,0.458,-0.561,1.159,0.305,1.464,1
1.972629,0.685,0.465,-0.562,1.525,0.122,1.647,1
1.979907,0.686,0.472,-0.568,1.953,-0.122,1.892,1
1.98804,0.681,0.475,-0.566,2.319,-0.366,1.77,1
1.995169,0.686,0.479,-0.569,2.746,-0.549,2.136,1
2.004099,0.686,0.486,-0.566,2.807,-0.61,2.075,1
2.011635,0.693,0.489,-0.567,3.417,-1.159,2.319,1
2.020385,0.694,0.493,-0.562,4.089,-1.342,2.014,1
2.027451,0.701,0.5,-0.559,5.249,-1.464,2.075,1
2.035125,0.707,0.506,-0.556,6.164,-1.708,2.136,1
2.042667,0.707,0.516,-0.552,7.385,-2.197,1.892,1
2.050045,0.713,0.521,-0.549,8.911,-2.441,1.586,1
2.058336,0.724,0.532,-0.548,10.986,-2.502,1.22,1
2.065816,0.727,0.545,-0.549,13.977,-2.807,0.61,1
2.073825,0.728,0.547,-0.551,17.517,-2.746,0.061,1
2.081259,0.728,0.544,-0.554,19.897,-2.99,-0.305,1
2.08992,0.725,0.545,-0.554,20.812,-3.173,-0.671,1
2.097644,0.729,0.547,-0.558,20.874,-3.051,-1.281,1
2.10682,0.749,0.548,-0.562,21.85,-3.112,-1.525,1
2.115119,0.782,0.543,-0.56,23.437,-3.173,-2.136,1
2.122549,0.804,0.541,-0.557,26.611,-3.723,-2.319,1
2.13068,0.808,0.546,-0.555,29.602,-3.967,-2.685,1
2.139526,0.824,0.554,-0.546,33.386,-4.638,-3.051,1
2.146245,0.822,0.568,-0.527,39.306,-4.76,-3.662,1
2.155602,0.806,0.575,-0.519,46.813,-5.798,-4.455,1
2.1627,0.798,0.572,-0.508,52.612,-6.103,-5.126,1
2.171835,0.807,0.553,-0.491,57.617,-6.347,-5.981,1
2.180181,0.812,0.529,-0.471,59.082,-6.347,-6.53,1
2.187241,0.803,0.504,-0.451,56.762,-5.249,-6.469,1
2.196206,0.794,0.488,-0.425,48.95,-3.417,-5.859,1
2.203327,0.808,0.482,-0.407,35.034,-2.136,-6.042,1
2.211791,0.749,0.486,-0.406,21.667,0.671,-5.981,1
2.220889,0.842,0.568,-0.366,9.399,2.807,-6.225,1
2.228367,0.699,0.596,-0.394,8.239,3.112,-7.202,1
2.237105,0.79,0.627,-0.367,10.986,3.54,-7.873,1
2.24456,0.763,0.65,-0.371,19.592,2.197,-9.094,1
2.25215,0.776,0.65,-0.342,30.517,2.38,-9.704,1
2.26008,0.793,0.641,-0.367,38.635,2.258,-11.108,1
2.267577,0.807,0.635,-0.349,41.809,3.723,-11.535,1
2.275194,0.788,0.625,-0.365,40.954,4.577,-12.634,1
2.283566,0.75,0.616,-0.361,36.499,6.408,-13.183,1
2.290509,0.773,0.637,-0.369,31.249,7.507,-13.549,1
2.299694,0.721,0.669,-0.35,28.686,9.216,-14.099,1
2.306348,0.699,0.693,-0.354,29.174,10.681,-15.319,1
2.31387,0.708,0.703,-0.35,29.235,11.962,-16.418,1
2.321304,0.734,0.74,-0.362,26.611,14.221,-17.639,1
2.330064,0.753,0.749,-0.351,24.78,14.099,-18.676,1
2.338244,0.76,0.755,-0.334,24.658,15.991,-19.531,1
2.346957,0.711,0.767,-0.342,20.568,16.113,-20.935,1
2.354,0.664,0.761,-0.325,15.319,18.005,-22.705,1
2.361513,0.681,0.745,-0.307,11.962,18.371,-24.047,1
2.368906,0.692,0.751,-0.302,11.047,19.897,-25.268,1
2.378302,0.676,0.77,-0.312,11.535,20.019,-26.55,1
2.384651,0.653,0.777,-0.314,12.145,20.751,-27.893,1
2.392346,0.64,0.777,-0.336,12.939,20.935,-29.418,1
2.40133,0.61,0.768,-0.342,14.77,21.85,-30.944,1
2.409269,0.607,0.756,-0.365,15.319,22.583,-32.226,1
2.41626,0.615,0.729,-0.384,15.258,23.864,-33.63,1
2.424823,0.629,0.696,-0.406,15.136,25.878,-34.79,1
2.431424,0.599,0.665,-0.434,13.732,27.893,-35.644,1
2.439181,0.543,0.645,-0.445,10.131,30.334,-36.193,1
2.447548,0.51,0.633,-0.434,6.896,32.653,-36.926,1
2.454934,0.513,0.617,-0.433,4.333,35.583,-37.658,1
2.463058,0.451,0.573,-0.443,-1.953,38.391,-38.085,1
2.472371,0.462,0.534,-0.457,-12.573,42.114,-38.635,1
2.479459,0.48,0.498,-0.477,-22.46,45.104,-38.879,1
2.488465,0.456,0.449,-0.501,-33.691,48.278,-38.818,1
2.497132,0.463,0.401,-0.516,-39.55,50.415,-38.33,1
2.505342,0.478,0.339,-0.545,-41.32,52.124,-37.292,1
2.513079,0.475,0.274,-0.573,-43.273,54.016,-35.644,1
2.519678,0.45,0.213,-0.611,-45.776,55.48,-33.813,1
2.528651,0.434,0.157,-0.644,-48.278,56.884,-31.555,1
2.536138,0.418,0.115,-0.668,-49.682,58.166,-28.503,1
2.545164,0.38,0.081,-0.696,-48.095,58.898,-25.756,1
2.552485,0.333,0.052,-0.718,-44.921,59.204,-22.277,1
2.561838,0.295,-0.01,-0.751,-46.691,60.424,-18.676,1
2.568567,0.315,-0.068,-0.788,-61.401,61.706,-14.343,1
2.57774,0.319,-0.098,-0.795,-77.941,62.866,-9.826,1
2.584887,0.29,-0.079,-0.787,-85.51,63.11,-5.371,1
2.593893,0.352,-0.098,-0.771,-80.017,61.828,-0.549,1
2.602853,0.354,-0.131,-0.735,-72.082,60.852,4.455,1
2.610051,0.331,-0.153,-0.706,-67.81,60.424,9.277,1
2.618615,0.342,-0.184,-0.646,-66.467,60.974,14.526,1
2.626329,0.354,-0.196,-0.609,-66.955,62.255,19.042,1
2.635182,0.356,-0.194,-0.562,-70.129,64.086,23.986,1
2.642828,0.351,-0.179,-0.538,-71.166,65.856,27.954,1
2.651764,0.328,-0.14,-0.508,-66.772,66.894,31.555,1
2.658631,0.329,-0.115,-0.512,-53.771,67.626,36.01,1
2.667117,0.328,-0.094,-0.52,-42.785,68.298,39.916,1
2.676169,0.298,-0.091,-0.564,-40.466,69.458,43.457,1
2.681786,0.266,-0.087,-0.609,-49.804,70.922,48.095,1
2.690561,0.229,-0.064,-0.662,-58.715,72.326,51.757,1
2.697826,0.152,-0.035,-0.706,-63.537,73.242,55.053,1
2.706583,0.116,-0.019,-0.76,-61.95,73.242,58.227,1
2.713478,0.109,-0.009,-0.819,-52.429,71.533,61.462,1
2.721877,0.064,-0.022,-0.911,-37.292,68.603,65.856,1
2.730631,0.038,-0.051,-1.036,-31.677,65.551,69.641,1
2.738618,0.012,-0.073,-1.187,-33.691,61.035,74.951,1
2.74698,0.005,-0.091,-1.322,-35.827,55.908,79.589,1
2.754634,0.031,-0.13,-1.486,-38.391,48.828,85.754,1
2.763489,0.017,-0.165,-1.619,-44.067,42.114,91.308,1
2.771622,-0.025,-0.201,-1.781,-50.72,34.729,97.534,1
2.780541,-0.061,-0.218,-1.909,-52.917,25.024,105.285,1
2.788497,-0.1,-0.244,-2.076,-49.194,13.549,113.769,1
2.795748,-0.166,-0.267,-2.209,-44.372,2.258,121.093,1
2.804692,-0.28,-0.306,-2.365,-39.428,-11.657,130.187,1
2.813826,-0.358,-0.349,-2.495,-35.461,-25.451,138.427,1
2.821011,-0.407,-0.411,-2.617,-32.714,-42.48,148.559,1
2.829927,-0.493,-0.445,-2.719,-33.569,-59.509,159.484,1
2.837916,-0.55,-0.46,-2.807,-35.461,-77.819,171.142,1
2.846997,-0.611,-0.448,-2.853,-29.663,-94.848,180.969,1
2.855817,-0.713,-0.42,-2.893,-15.624,-115.722,192.321,1
2.862916,-0.807,-0.39,-2.909,-7.934,-133.361,201.965,1
2.873213,-1.023,-0.326,-2.934,-8.239,-152.954,211.547,1
2.881908,-1.15,-0.19,-2.736,-1.77,-172.058,221.313,1
2.888826,-1.244,-0.163,-2.779,9.155,-194.885,230.712,1
2.897758,-1.387,-0.022,-2.629,8.789,-208.984,238.464,1
2.905343,-1.512,0.112,-2.605,1.708,-226.806,246.093,1
2.912973,-1.71,0.264,-2.49,-4.943,-239.257,252.197,1
2.921225,-1.865,0.456,-2.395,-12.268,-254.577,257.751,1
2.92962,-1.955,0.633,-2.25,-8.85,-267.334,261.23,1
2.938575,-2.039,0.868,-2.122,-1.281,-280.822,263.732,1
2.946114,-2.165,1.087,-1.985,7.019,-295.593,264.221,1
2.954678,-2.304,1.31,-1.861,9.399,-306.945,262.268,1
2.96255,-2.384,1.554,-1.695,12.145,-318.115,258.544,1
2.972976,-2.394,1.734,-1.558,20.874,-330.505,251.525,1
2.980766,-2.359,1.951,-1.316,34.606,-343.811,242.37,1
2.990949,-2.461,2.074,-1.12,41.625,-356.811,230.529,1
3.000545,-2.467,2.215,-0.865,24.047,-367.431,218.933,1
3.008762,-2.461,2.398,-0.575,19.47,-372.619,208.923,1
3.015387,-2.425,2.498,-0.357,25.268,-377.319,199.34,1
3.024327,-2.3,2.571,-0.132,28.564,-380.371,188.354,1
3.030798,-2.316,2.658,0.112,25.634,-382.08,175.353,1
3.039417,-2.185,2.76,0.347,20.629,-381.713,163.33,1
3.046754,-2.025,2.904,0.657,25.268,-380.249,149.169,1
3.055811,-1.935,2.998,0.937,40.161,-376.464,133.3,1
3.063348,-1.818,3.007,1.233,49.804,-369.384,112.487,1
3.07096,-1.694,2.956,1.424,50.476,-360.473,93.505,1
3.080279,-1.551,2.852,1.574,46.142,-351.013,74.279,1
3.086945,-1.363,2.678,1.661,37.78,-337.402,52.673,1
3.096318,-1.2,2.474,1.668,20.874,-326.477,36.376,1
3.102234,-1.124,2.35,1.73,9.216,-316.955,21.606,1
3.111732,-1.036,2.208,1.826,2.136,-305.297,8.056,1
3.118775,-0.909,2.051,1.909,-8.789,-291.625,-5.676,1
3.126414,-0.817,1.897,1.978,-8.666,-280.639,-15.441,1
3.135733,-0.679,1.712,2.018,-1.464,-268.92,-23.681,1
3.143265,-0.591,1.534,2.076,8.972,-254.882,-32.165,1
3.150848,-0.484,1.345,2.065,9.765,-240.661,-38.574,1
3.159793,-0.285,1.119,2.051,0.732,-224.243,-43.823,1
3.167314,-0.039,0.941,2.113,-10.009,-209.167,-46.569,1
3.176129,0.138,0.766,2.224,-17.7,-189.575,-46.081,1
3.184977,0.304,0.651,2.305,-24.291,-173.095,-45.104,1
3.191988,0.498,0.546,2.341,-29.418,-152.587,-42.907,1
3.200407,0.666,0.466,2.334,-32.775,-137.146,-40.893,1
3.209507,0.8,0.376,2.307,-29.907,-120.239,-37.353,1
3.216,0.783,0.326,2.271,-20.812,-105.773,-32.775,1
3.224357,0.718,0.294,2.198,-12.512,-90.82,-26.794,1
3.231272,0.659,0.294,2.084,-11.291,-75.5,-20.874,1
3.239154,0.602,0.327,1.908,-12.878,-61.279,-15.197,1
3.246973,0.564,0.388,1.66,-12.023,-49.682,-10.864,1
3.254929,0.525,0.442,1.463,-8.728,-38.574,-6.958,1
3.263375,0.473,0.503,1.269,-6.347,-31.066,-4.211,1
3.272222,0.437,0.556,1.095,-7.629,-25.085,-2.258,1
3.279906,0.422,0.607,0.924,-10.925,-19.287,-0.549,1
3.287827,0.409,0.664,0.78,-13.305,-16.235,0.122,1
3.295347,0.407,0.731,0.651,-13.366,-14.16,0.244,1
3.304505,0.408,0.789,0.567,-12.207,-13.427,-0.366,1
3.312233,0.374,0.836,0.52,-11.84,-13.305,-0.915,1
3.32044,0.4,0.854,0.461,-16.845,-12.145,-1.831,1
3.32804,0.432,0.871,0.416,-28.198,-11.535,-3.051,1
3.335721,0.469,0.879,0.404,-33.081,-10.803,-4.455,1
3.343929,0.5,0.883,0.416,-32.836,-10.742,-5.493,1
3.352935,0.521,0.877,0.433,-30.761,-9.521,-6.469,1
3.359648,0.547,0.862,0.446,-30.456,-8.239,-7.141,1
3.368895,0.581,0.859,0.456,-29.663,-6.286,-7.507,1
3.376008,0.631,0.842,0.444,-26.184,-4.15,-8.178,1
3.385397,0.663,0.838,0.419,-23.193,-2.136,-8.361,1
3.392287,0.688,0.838,0.394,-21.85,-0.793,-8.3,1
3.400925,0.708,0.84,0.365,-19.775,0.793,-8.483,1
3.408043,0.724,0.831,0.331,-18.127,2.136,-8.483,1
3.416784,0.726,0.831,0.292,-17.944,2.99,-8.056,1
3.42384,0.722,0.841,0.259,-17.089,3.479,-7.812,1
3.431302,0.683,0.857,0.213,-14.343,3.845,-7.751,1
3.440153,0.653,0.862,0.169,-11.108,3.906,-7.751,1
3.447819,0.629,0.873,0.126,-7.995,3.967,-8.178,1
3.455874,0.588,0.874,0.082,-5.737,3.112,-8.422,1
3.46388,0.574,0.876,0.039,-2.563,2.319,-8.544,1
3.472272,0.557,0.854,-0.011,-1.098,0.915,-9.033,1
3.479271,0.551,0.836,-0.048,-2.014,-0.488,-9.155,1
3.487458,0.558,0.806,-0.07,-3.845,-1.892,-9.216,1
3.495985,0.568,0.78,-0.087,-3.845,-3.967,-8.666,1
3.504528,0.569,0.764,-0.082,-1.77,-6.042,-8.056,1
3.51349,0.554,0.754,-0.087,-0.549,-7.934,-7.568,1
3.520532,0.554,0.758,-0.08,0.427,-10.375,-7.202,1
3.528641,0.556,0.756,-0.073,0.488,-11.962,-6.53,1
3.536431,0.571,0.759,-0.064,-1.342,-13.671,-6.591,1
3.543917,0.579,0.762,-0.038,-3.662,-15.197,-6.469,1
3.552222,0.584,0.771,-0.004,-2.868,-16.418,-6.469,1
3.559135,0.597,0.77,0.031,-1.159,-17.578,-6.652,1
3.567562,0.603,0.759,0.066,-0.244,-17.822,-6.713,1
3.57511,0.596,0.739,0.089,-0.427,-18.005,-6.713,1
3.583901,0.596,0.731,0.107,-1.586,-17.822,-6.774,1
3.591254,0.593,0.729,0.131,-2.014,-17.578,-6.286,1
3.599136,0.6,0.729,0.145,-0.122,-17.517,-5.92,1
3.606792,0.603,0.73,0.161,0.671,-17.15,-5.737,1
3.615848,0.604,0.727,0.17,-0.122,-16.357,-5.126,1
3.623802,0.613,0.723,0.179,-1.831,-15.624,-4.394,1
3.631691,0.616,0.728,0.195,-3.479,-15.258,-3.784,1
3.639138,0.622,0.741,0.205,-6.103,-14.404,-3.051,1
3.647355,0.628,0.753,0.22,-7.263,-13.854,-2.136,1
3.656354,0.63,0.77,0.244,-6.835,-13.0,-1.708,1
3.663026,0.617,0.795,0.266,-5.493,-12.084,-1.281,1
3.672468,0.607,0.814,0.285,-4.15,-10.864,-1.098,1
3.679389,0.606,0.826,0.291,-3.051,-9.948,-1.281,1
3.688663,0.608,0.841,0.306,0.183,-9.033,-1.77,1
3.695245,0.61,0.839,0.312,3.479,-7.995,-2.014,1
3.704498,0.612,0.836,0.321,4.76,-6.286,-2.441,1
3.711976,0.608,0.834,0.32,3.967,-5.187,-2.868,1
3.719243,0.607,0.833,0.311,2.685,-3.295,-3.479,1
3.726672,0.618,0.825,0.291,2.197,-2.075,-3.845,1
3.734477,0.623,0.821,0.265,1.77,-1.098,-4.272,1
3.742254,0.624,0.813,0.244,0.61,-0.122,-4.516,1
3.750446,0.619,0.812,0.217,-0.122,0.61,-4.821,1
3.758829,0.618,0.814,0.206,-0.732,0.854,-4.882,1
3.766831,0.635,0.823,0.198,-0.366,0.549,-5.126,1
3.77406,0.648,0.829,0.211,2.014,0.549,-5.371,1
3.781475,0.652,0.835,0.222,4.028,0.427,-5.615,1
3.789127,0.65,0.827,0.244,4.15,0.976,-5.859,1
3.79815,0.645,0.823,0.251,3.356,1.831,-6.347,1
3.805408,0.646,0.816,0.253,2.319,2.624,-6.774,1
3.813504,0.646,0.811,0.245,0.915,3.845,-7.141,1
3.82051,0.642,0.803,0.235,0.244,4.577,-7.385,1
3.829505,0.638,0.791,0.226,0.61,4.882,-7.751,1
3.83583,0.633,0.779,0.213,1.281,5.187,-7.69,1
3.843527,0.63,0.76,0.195,1.586,5.798,-7.751,1
3.851439,0.626,0.749,0.177,1.464,6.347,-7.751,1
3.859634,0.621,0.74,0.161,1.892,6.164,-7.568,1
3.86727,0.624,0.734,0.152,2.624,6.286,-7.385,1
3.876519,0.622,0.729,0.141,3.417,6.469,-7.019,1
3.883376,0.616,0.722,0.13,3.906,6.103,-6.53,1
3.892274,0.615,0.72,0.114,3.906,5.737,-6.103,1
3.90017,0.614,0.72,0.102,4.15,5.432,-5.371,1
3.907086,0.613,0.713,0.099,3.417,4.821,-5.126,1
3.915823,0.61,0.716,0.093,2.319,4.577,-4.394,1
3.922893,0.611,0.73,0.09,0.793,3.967,-3.784,1
3.930673,0.604,0.75,0.085,1.403,3.356,-3.356,1
3.939875,0.596,0.765,0.075,3.234,2.685,-3.356,1
3.947011,0.593,0.784,0.072,3.967,1.892,-3.112,1
3.955119,0.599,0.794,0.059,2.441,1.647,-2.929,1
3.96207,0.592,0.834,0.052,3.479,0.793,-3.112,1
3.969374,0.588,0.865,0.04,8.178,0.0,-3.54,1
3.977066,0.592,0.89,0.029,12.512,-1.525,-4.455,1
3.986007,0.595,0.895,0.021,16.906,-2.685,-5.432,1
3.993128,0.604,0.885,0.013,19.714,-3.967,-6.774,1
4.001812,0.614,0.868,0.01,20.507,-5.065,-7.934,1
4.011348,0.627,0.85,0.007,20.263,-5.676,-8.972,1
4.01844,0.642,0.832,0.006,19.775,-6.469,-9.704,1
4.026578,0.65,0.797,-0.015,18.249,-7.446,-10.192,1
4.032983,0.659,0.764,-0.013,16.418,-8.789,-10.314,1
4.041317,0.668,0.718,-0.017,12.145,-9.46,-10.375,1
4.049841,0.67,0.69,0.0,10.498,-11.23,-10.192,1
4.057357,0.679,0.666,0.021,16.113,-12.451,-9.338,1
4.063963,0.663,0.657,0.039,17.456,-14.465,-8.239,1
4.072878,0.664,0.658,0.067,16.052,-15.258,-6.652,1
4.079845,0.646,0.659,0.087,13.183,-15.808,-5.432,1
4.088519,0.638,0.664,0.124,8.911,-15.93,-4.15,1
4.096066,0.644,0.693,0.155,6.286,-15.563,-3.295,1
4.104232,0.639,0.709,0.176,5.981,-15.197,-2.807,1
4.11145,0.636,0.72,0.205,5.187,-14.709,-2.258,1
4.119288,0.625,0.733,0.226,5.981,-14.343,-2.075,1
4.128122,0.625,0.738,0.233,3.967,-13.427,-2.014,1
4.13567,0.605,0.735,0.254,4.699,-12.573,-1.892,1
4.144091,0.619,0.737,0.263,4.089,-11.84,-2.136,1
4.150996,0.596,0.751,0.275,0.305,-10.62,-2.014,1
4.159294,0.578,0.762,0.292,-2.075,-10.253,-2.319,1
4.168223,0.594,0.77,0.309,-1.403,-8.85,-2.38,1
4.175307,0.633,0.77,0.314,-1.831,-8.3,-2.502,1
4.182933,0.619,0.784,0.337,0.61,-7.385,-2.319,1
4.192028,0.645,0.798,0.344,4.76,-6.53,-2.38,1
4.200113,0.651,0.786,0.34,5.859,-5.493,-2.258,1
4.208225,0.678,0.787,0.323,2.441,-3.906,-2.136,1
4.215866,0.679,0.821,0.314,-0.122,-2.624,-2.258,1
4.223456,0.667,0.853,0.308,-1.342,-2.136,-2.319,1
4.232408,0.654,0.87,0.299,0.549,-1.647,-3.295,1
4.240003,0.642,0.889,0.286,3.173,-1.342,-4.272,1
4.248006,0.637,0.897,0.277,6.164,-1.464,-4.943,1
4.256935,0.633,0.893,0.284,10.375,-1.342,-6.042,1
4.263521,0.63,0.882,0.278,13.366,-0.549,-7.019,1
4.271911,0.642,0.87,0.257,13.793,0.305,-7.934,1
4.279219,0.634,0.861,0.24,14.526,0.854,-8.483,1
4.28635,0.642,0.849,0.218,15.197,0.915,-8.972,1
4.295917,0.636,0.832,0.192,15.441,1.037,-9.887,1
4.302836,0.64,0.813,0.17,14.831,0.915,-10.131,1
4.311138,0.648,0.795,0.147,12.512,0.549,-10.498,1
4.318079,0.637,0.787,0.125,9.155,0.183,-10.62,1
4.325597,0.647,0.778,0.107,6.53,-0.183,-10.864,1
4.333269,0.659,0.767,0.109,5.981,-2.075,-10.986,1
4.340979,0.667,0.759,0.123,8.544,-3.112,-11.047,1
4.349213,0.668,0.747,0.135,11.047,-4.333,-10.681,1
4.357695,0.671,0.732,0.151,12.573,-5.432,-10.437,1
4.364873,0.669,0.722,0.178,14.099,-5.859,-10.437,1
4.371513,0.664,0.71,0.198,15.869,-6.652,-10.009,1
4.380297,0.656,0.687,0.228,18.005,-6.958,-10.131,1
4.387967,0.656,0.66,0.252,19.042,-6.713,-9.643,1
4.397,0.653,0.633,0.252,17.333,-6.164,-8.911,1
4.404919,0.663,0.616,0.268,13.305,-5.737,-8.422,1
4.411818,0.656,0.612,0.271,10.559,-5.004,-7.568,1
4.420742,0.657,0.614,0.262,6.835,-4.516,-6.896,1
4.427579,0.652,0.61,0.261,3.906,-4.211,-6.103,1
4.434934,0.651,0.618,0.256,0.427,-3.906,-5.432,1
4.444074,0.65,0.634,0.25,-2.929,-3.662,-4.76,1
4.452183,0.642,0.653,0.259,-4.76,-3.54,-4.516,1
4.460514,0.645,0.672,0.266,-4.699,-3.662,-4.211,1
4.469968,0.636,0.679,0.273,-3.051,-3.906,-3.662,1
4.477134,0.646,0.691,0.279,0.488,-3.967,-3.662,1
4.48451,0.644,0.692,0.29,3.173,-4.089,-3.54,1
4.492945,0.657,0.684,0.298,3.417,-3.662,-3.417,1
4.500013,0.652,0.683,0.295,0.305,-2.563,-3.173,1
4.509075,0.654,0.695,0.293,-3.234,-1.831,-3.173,1
4.516416,0.662,0.701,0.284,-4.577,-1.525,-2.868,1
4.524013,0.678,0.698,0.278,-4.089,-1.281,-2.807,1
4.533093,0.678,0.702,0.274,-3.112,-1.403,-2.502,1
4.539856,0.676,0.712,0.276,-2.075,-0.915,-2.258,1
4.548794,0.679,0.716,0.27,-0.427,-0.854,-2.197,1
4.557684,0.662,0.722,0.266,-0.732,-0.61,-2.258,1
4.565083,0.661,0.729,0.262,-1.708,-0.488,-2.136,1
4.572913,0.66,0.735,0.258,-1.586,-0.488,-2.441,1
4.58167,0.665,0.733,0.254,-0.915,-0.305,-2.746,1
4.588766,0.664,0.728,0.255,0.061,-0.671,-2.38,1
4.595827,0.674,0.722,0.269,0.732,-0.732,-2.624,1
4.604116,0.677,0.706,0.285,1.892,-0.671,-2.075,1
4.611157,0.676,0.705,0.288,1.403,-0.183,-2.136,1
4.619262,0.67,0.708,0.292,-0.061,0.671,-2.014,1
4.627493,0.67,0.709,0.294,-1.22,1.037,-1.831,1
4.635864,0.679,0.713,0.289,-1.464,1.464,-1.586,1
4.642565,0.682,0.712,0.276,-1.342,1.953,-1.77,1
4.650505,0.677,0.712,0.267,-2.075,2.197,-1.77,1
4.659029,0.672,0.715,0.259,-1.77,2.624,-1.647,1
4.667673,0.674,0.713,0.247,-0.976,2.38,-1.586,1
4.674668,0.67,0.707,0.242,-1.037,2.441,-1.525,1
4.682726,0.665,0.708,0.236,-1.22,2.624,-1.464,1
4.691197,0.661,0.72,0.229,-1.281,2.38,-1.342,1
4.697955,0.655,0.724,0.217,-2.014,2.38,-1.342,1
4.706682,0.653,0.733,0.215,-2.197,2.319,-1.22,1
4.713417,0.659,0.738,0.206,-1.281,2.075,-1.464,1
4.722132,0.653,0.748,0.206,-0.549,1.77,-1.525,1
4.728905,0.651,0.753,0.2,0.366,1.525,-1.708,1
4.737903,0.656,0.758,0.198,0.488,1.403,-2.014,1
4.744301,0.658,0.754,0.192,0.366,1.464,-2.197,1
4.752835,0.657,0.754,0.177,-0.915,1.403,-2.38,1
4.760491,0.666,0.752,0.167,-2.075,1.159,-2.624,1
4.76873,0.67,0.754,0.159,-2.38,0.854,-2.868,1
4.775855,0.68,0.751,0.158,-2.624,0.244,-2.807,1
4.783126,0.682,0.745,0.152,-3.051,-0.183,-2.929,1
4.792566,0.685,0.737,0.158,-2.929,-0.793,-2.929,1
4.800205,0.682,0.733,0.158,-2.319,-1.22,-2.685,1
4.807021,0.679,0.726,0.166,-2.014,-1.525,-2.99,1
4.815334,0.679,0.716,0.172,-1.098,-1.953,-2.929,1
4.822585,0.671,0.712,0.173,0.061,-2.136,-2.624,1
4.83006,0.67,0.714,0.165,0.732,-2.38,-2.624,1
4.838052,0.664,0.726,0.161,0.976,-2.441,-2.563,1
4.84545,0.661,0.732,0.153,1.708,-3.112,-2.563,1
4.853096,0.658,0.74,0.146,2.319,-3.906,-2.38,1
4.86114,0.657,0.748,0.144,3.356,-4.333,-2.563,1
4.87016,0.666,0.748,0.145,3.173,-5.065,-2.868,1
4.87711,0.672,0.745,0.144,2.807,-5.554,-2.868,1
4.886208,0.668,0.738,0.153,2.197,-6.286,-2.868,1
4.892907,0.665,0.732,0.163,1.525,-6.652,-3.295,1
4.901092,0.671,0.729,0.168,1.098,-7.08,-3.417,1
4.908342,0.668,0.719,0.18,0.366,-7.446,-3.417,1
4.916372,0.666,0.712,0.191,0.366,-7.629,-3.234,1
4.923764,0.662,0.711,0.206,0.671,-7.751,-3.234,1
4.932095,0.664,0.703,0.211,0.366,-7.812,-3.112,1
4.940723,0.671,0.69,0.222,0.122,-8.056,-2.929,1
4.947487,0.667,0.691,0.23,-0.061,-7.934,-2.807,1
4.956627,0.663,0.695,0.241,-0.183,-7.751,-2.624,1
4.965272,0.664,0.7,0.243,-1.464,-7.568,-2.319,1
4.97236,0.666,0.705,0.247,-2.197,-7.385,-2.197,1
4.97977,0.671,0.7,0.249,-2.136,-7.324,-2.014,1
4.989008,0.677,0.697,0.261,-1.892,-7.629,-1.831,1
4.995899,0.675,0.692,0.27,-2.258,-7.202,-1.647,1
5.005172,0.676,0.692,0.278,-3.173,-6.652,-1.342,1
5.012485,0.664,0.701,0.281,-3.723,-6.347,-1.037,1
5.020919,0.666,0.708,0.287,-2.99,-6.164,-0.976,1
5.028292,0.664,0.708,0.292,-1.647,-5.981,-0.915,1
5.037529,0.662,0.708,0.285,-0.976,-5.676,-0.976,1
5.045118,0.656,0.713,0.293,0.183,-5.493,-0.549,1
5.051815,0.662,0.717,0.294,1.281,-5.126,-0.61,1
5.060915,0.682,0.719,0.297,2.136,-4.821,-0.549,1
5.068498,0.699,0.719,0.3,1.892,-4.333,-0.671,1
5.07641,0.709,0.716,0.301,0.854,-3.479,-0.488,1
5.084976,0.71,0.727,0.303,-0.732,-2.929,-0.488,1
5.092201,0.726,0.746,0.288,-2.99,-2.014,-0.183,1
5.099927,0.727,0.769,0.274,-6.652,-1.464,-0.366,1
5.109252,0.727,0.797,0.261,-8.972,-1.098,-0.671,1
5.115374,0.726,0.833,0.244,-11.474,-0.915,-1.403,1
5.122611,0.728,0.864,0.231,-11.657,-1.098,-2.319,1
5.13123,0.729,0.888,0.221,-8.789,-1.403,-3.234,1
5.13832,0.727,0.912,0.219,-4.028,-1.953,-4.211,1
5.146615,0.728,0.921,0.213,-0.488,-2.441,-5.981,1
5.154321,0.719,0.931,0.206,-0.915,-2.441,-7.08,1
5.163577,0.701,0.94,0.198,-3.295,-2.136,-8.422,1
5.172315,0.674,0.956,0.175,-7.629,-2.075,-10.192,1
5.180179,0.671,0.974,0.155,-10.192,-2.38,-11.901,1
5.187367,0.684,0.98,0.141,-10.131,-3.356,-13.793,1
5.195101,0.705,0.972,0.143,-6.408,-4.394,-15.441,1
5.204449,0.708,0.958,0.145,-2.868,-4.76,-17.456,1
5.212165,0.701,0.946,0.142,-3.662,-5.31,-18.676,1
5.219735,0.708,0.939,0.138,-6.103,-5.249,-20.019,1
5.228507,0.711,0.933,0.125,-8.544,-5.554,-21.667,1
5.235565,0.708,0.933,0.1,-10.986,-6.042,-23.01,1
5.244971,0.704,0.923,0.077,-13.427,-6.774,-25.146,1
5.252714,0.72,0.902,0.06,-12.817,-7.995,-26.733,1
5.259899,0.723,0.871,0.036,-13.122,-9.765,-28.32,1
5.269133,0.724,0.845,0.031,-15.441,-11.169,-29.357,1
5.275576,0.736,0.83,0.029,-17.761,-12.634,-30.273,1
5.284077,0.742,0.809,0.024,-18.127,-13.977,-31.433,1
5.291387,0.741,0.785,0.02,-16.967,-16.113,-32.531,1
5.299911,0.733,0.765,0.014,-15.136,-18.615,-33.447,1
5.308772,0.724,0.735,0.018,-15.136,-21.362,-33.996,1
5.317568,0.734,0.692,0.042,-14.648,-23.376,-34.79,1
5.324347,0.741,0.651,0.055,-13.793,-25.695,-35.156,1
5.332273,0.739,0.596,0.08,-11.962,-27.893,-35.217,1
5.341306,0.734,0.552,0.101,-10.803,-29.907,-34.729,1
5.348742,0.721,0.503,0.122,-10.07,-31.799,-34.301,1
5.357551,0.711,0.464,0.136,-7.568,-34.301,-33.813,1
5.364826,0.694,0.414,0.154,-4.516,-36.254,-32.897,1
5.373906,0.711,0.371,0.181,-1.403,-38.757,-31.616,1
5.381105,0.694,0.322,0.203,1.342,-40.954,-30.212,1
5.389684,0.685,0.282,0.249,7.019,-43.579,-28.198,1
5.399162,0.674,0.219,0.301,11.291,-45.715,-26.672,1
5.40615,0.653,0.176,0.352,16.296,-47.79,-24.169,1
5.413805,0.636,0.137,0.404,21.85,-49.133,-21.728,1
5.422499,0.625,0.086,0.474,27.954,-50.72,-19.653,1
5.429838,0.619,0.043,0.542,36.621,-52.185,-16.296,1
5.438491,0.625,0.007,0.607,44.86,-53.222,-13.366,1
5.446032,0.609,-0.027,0.674,52.551,-53.405,-10.07,1
5.453775,0.598,-0.071,0.751,58.471,-53.405,-5.859,1
5.462782,0.582,-0.096,0.814,60.363,-52.49,-2.014,1
5.470297,0.571,-0.136,0.934,63.903,-51.696,2.868,1
5.479265,0.555,-0.151,1.0,70.617,-49.194,7.568,1
5.487386,0.526,-0.167,1.086,76.599,-47.546,12.39,1
5.494256,0.513,-0.207,1.197,82.763,-43.579,18.737,1
5.501311,0.51,-0.209,1.311,81.542,-40.71,24.353,1
5.510422,0.468,-0.193,1.454,84.106,-34.667,30.883,1
5.517383,0.445,-0.145,1.562,93.017,-30.822,35.888,1
5.52511,0.395,-0.133,1.698,108.154,-25.451,41.259,1
5.533229,0.401,-0.132,1.79,120.178,-19.592,47.302,1
5.540286,0.39,-0.124,1.913,122.741,-14.709,52.307,1
5.54802,0.372,-0.114,2.045,122.192,-5.737,59.204,1
5.556713,0.316,-0.081,2.144,119.14,3.295,65.185,1
5.563412,0.271,-0.05,2.245,115.783,12.573,70.861,1
5.571971,0.238,-0.022,2.345,114.501,23.132,76.232,1
5.578523,0.217,-0.014,2.408,111.877,33.813,81.665,1
5.587529,0.194,0.001,2.474,107.543,44.982,86.914,1
5.594729,0.149,0.031,2.54,106.262,57.25,92.163,1
5.601453,0.081,0.056,2.581,108.459,68.603,97.106,1
5.609703,0.014,0.062,2.625,112.06,81.42,101.989,1
5.616331,-0.06,0.064,2.621,113.83,93.811,106.994,1
5.625415,-0.129,0.06,2.634,111.572,106.567,112.548,1
5.632796,-0.209,0.058,2.624,106.567,119.445,118.408,1
5.63984,-0.296,0.074,2.643,100.463,131.774,124.572,1
5.64763,-0.38,0.113,2.646,97.106,145.568,130.737,1
5.654658,-0.472,0.149,2.648,96.13,156.616,135.986,1
5.661738,-0.583,0.195,2.63,97.229,169.555,142.517,1
5.671062,-0.708,0.255,2.626,99.914,184.326,150.207,1
5.677932,-0.859,0.338,2.592,103.088,196.655,156.677,1
5.68557,-1.04,0.439,2.539,105.163,208.251,163.085,1
5.693945,-1.146,0.533,2.467,103.515,220.031,168.762,1
5.70148,-1.237,0.639,2.381,96.984,234.069,175.109,1
5.710488,-1.343,0.768,2.283,89.599,244.995,179.321,1
5.717534,-1.453,0.882,2.18,84.777,255.493,182.128,1
5.725556,-1.581,1.033,2.07,83.984,265.441,184.082,1
5.733204,-1.703,1.171,1.957,90.576,275.268,185.363,1
5.741584,-1.808,1.287,1.841,100.708,282.165,185.729,1
5.749604,-1.896,1.369,1.703,106.445,288.208,185.913,1
5.756547,-1.966,1.446,1.581,100.219,294.616,185.729,1
5.764037,-2.048,1.58,1.464,89.416,300.781,184.692,1
5.77175,-2.15,1.732,1.385,82.885,306.518,182.189,1
5.780688,-2.215,1.905,1.305,85.571,311.34,178.649,1
5.787176,-2.237,2.045,1.225,94.36,315.734,174.56,1
5.794956,-2.243,2.228,1.083,106.994,319.458,169.25,1
5.802857,-2.218,2.394,0.926,112.548,322.936,163.635,1
5.811774,-2.116,2.563,0.738,117.126,324.768,156.677,1
5.818502,-2.062,2.678,0.55,113.769,327.087,148.864,1
5.826144,-1.964,2.819,0.327,85.937,331.054,136.84,1
5.835281,-1.901,2.985,0.154,64.636,333.74,123.901,1
5.841671,-1.823,3.106,-0.018,57.617,334.228,109.374,1
5.850547,-1.75,3.144,-0.205,53.71,332.275,94.604,1
5.858481,-1.661,3.126,-0.378,48.645,329.101,80.139,1
5.865666,-1.544,3.045,-0.553,48.645,323.486,66.345,1
5.873356,-1.435,2.943,-0.693,52.551,315.002,52.124,1
5.880661,-1.323,2.812,-0.834,53.955,306.274,41.748,1
5.889888,-1.207,2.695,-0.927,52.795,295.959,32.653,1
5.897072,-1.087,2.582,-0.935,52.124,285.339,25.39,1
5.905273,-1.041,2.511,-0.904,56.579,275.939,18.249,1
5.912474,-1.003,2.389,-0.88,58.105,267.639,10.864,1
5.920105,-0.904,2.27,-0.921,42.297,261.84,5.065,1
5.927974,-0.835,2.214,-0.951,31.372,256.469,-0.976,1
5.935512,-0.778,2.151,-0.993,32.836,249.755,-6.835,1
5.943878,-0.717,2.055,-1.039,35.644,242.797,-12.329,1
5.952912,-0.677,1.952,-1.085,38.085,234.863,-18.371,1
5.960214,-0.649,1.866,-1.124,39.794,228.149,-22.949,1
5.968429,-0.605,1.78,-1.211,39.428,220.764,-28.381,1
5.977566,-0.58,1.735,-1.279,39.428,213.928,-32.592,1
5.984869,-0.549,1.643,-1.352,34.606,205.871,-37.292,1
5.993869,-0.517,1.564,-1.387,24.597,198.791,-40.527,1
6.001201,-0.479,1.465,-1.402,14.038,191.711,-43.518,1
6.010448,-0.413,1.386,-1.414,9.643,182.922,-46.203,1
6.017644,-0.339,1.278,-1.437,8.483,172.912,-47.729,1
6.025574,-0.284,1.203,-1.438,8.3,164.367,-48.461,1
6.033779,-0.229,1.153,-1.451,8.544,155.883,-48.706,1
6.04229,-0.187,1.108,-1.489,6.103,146.118,-48.828,1
6.051073,-0.151,1.074,-1.525,0.915,137.39,-49.133,1
6.058439,-0.101,1.041,-1.545,-1.953,127.075,-49.926,1
6.067811,-0.061,1.004,-1.543,-0.488,117.309,-50.231,1
6.075295,-0.04,0.948,-1.527,4.211,106.506,-50.781,1
6.083176,0.002,0.885,-1.521,7.263,97.229,-50.842,1
6.090346,0.041,0.83,-1.502,9.46,87.829,-50.72,1
6.098904,0.091,0.789,-1.472,16.174,76.843,-50.17,1
6.106565,0.14,0.747,-1.432,20.263,67.81,-49.255,1
6.115711,0.179,0.708,-1.384,18.859,59.509,-47.973,1
6.122879,0.21,0.673,-1.311,14.404,50.598,-46.691,1
6.130272,0.236,0.652,-1.244,13.305,43.64,-45.593,1
6.139304,0.262,0.622,-1.191,14.16,37.109,-44.311,1
6.147121,0.3,0.575,-1.141,12.145,30.578,-42.846,1
6.153643,0.322,0.555,-1.087,9.338,23.62,-40.893,1
6.162562,0.359,0.546,-1.032,10.314,17.883,-39.062,1
6.170219,0.384,0.53,-0.976,12.268,12.695,-37.17,1
6.179278,0.401,0.519,-0.919,11.474,7.568,-35.583,1
6.185347,0.418,0.512,-0.855,10.009,3.112,-33.752,1
6.193499,0.438,0.513,-0.8,11.596,-1.159,-31.982,1
6.201671,0.458,0.509,-0.737,13.854,-4.821,-29.968,1
6.20912,0.472,0.503,-0.666,15.686,-7.69,-28.198,1
6.217532,0.479,0.503,-0.614,17.7,-10.62,-25.817,1
6.226491,0.491,0.505,-0.566,19.714,-12.39,-23.864,1
6.233424,0.506,0.51,-0.522,22.644,-14.282,-21.667,1
6.242441,0.526,0.516,-0.481,23.132,-16.174,-19.409,1
6.2497,0.53,0.529,-0.432,21.24,-16.967,-17.211,1
6.258681,0.542,0.538,-0.382,16.845,-18.005,-15.197,1
6.266407,0.551,0.554,-0.339,13.916,-18.127,-13.488,1
6.273863,0.553,0.566,-0.307,12.817,-18.371,-12.207,1
6.28247,0.561,0.571,-0.284,11.718,-18.188,-11.047,1
6.289696,0.559,0.585,-0.272,10.314,-18.31,-9.277,1
6.297455,0.56,0.597,-0.242,10.131,-18.127,-8.117,1
6.306847,0.547,0.617,-0.213,10.192,-17.761,-7.141,1
6.314302,0.548,0.633,-0.195,10.498,-17.333,-5.737,1
6.323508,0.555,0.65,-0.181,12.817,-16.784,-4.943,1
6.330243,0.549,0.66,-0.169,14.16,-16.174,-4.455,1
6.33956,0.551,0.654,-0.166,11.108,-15.258,-3.662,1
6.346853,0.56,0.659,-0.16,5.126,-14.038,-2.807,1
6.35588,0.557,0.671,-0.151,3.051,-12.939,-1.953,1
6.362625,0.562,0.676,-0.149,3.601,-12.329,-1.22,1
6.370563,0.573,0.674,-0.156,1.098,-11.413,-0.183,1
6.37895,0.583,0.68,-0.158,-3.295,-10.253,0.915,1
6.387426,0.594,0.698,-0.157,-6.652,-9.704,2.075,1
6.394348,0.606,0.712,-0.152,-6.164,-8.972,2.563,1
6.402399,0.61,0.715,-0.149,-5.187,-8.483,3.356,1
6.410555,0.625,0.713,-0.146,-4.516,-7.568,3.417,1
6.418551,0.641,0.713,-0.142,-4.028,-6.835,3.906,1
6.425341,0.644,0.71,-0.145,-4.394,-6.286,4.394,1
6.435116,0.653,0.718,-0.148,-4.15,-5.432,4.943,1
6.441488,0.66,0.716,-0.154,-3.723,-4.943,5.249,1
6.450268,0.676,0.717,-0.168,-3.906,-4.638,5.676,1
6.456917,0.675,0.726,-0.171,-4.333,-4.516,6.164,1
6.464926,0.672,0.735,-0.178,-4.821,-4.15,6.591,1
6.47425,0.68,0.743,-0.182,-5.859,-4.211,6.713,1
6.481578,0.675,0.752,-0.176,-7.812,-4.333,6.896,1
6.489585,0.679,0.756,-0.174,-10.07,-4.089,6.896,1
6.497247,0.683,0.758,-0.171,-10.986,-3.662,6.835,1
6.50666,0.682,0.754,-0.168,-11.23,-3.295,6.652,1
6.514011,0.685,0.76,-0.17,-10.131,-2.99,6.347,1
6.523154,0.695,0.759,-0.17,-8.178,-3.051,6.225,1
6.530594,0.698,0.764,-0.172,-5.737,-3.234,6.164,1
6.53942,0.697,0.771,-0.172,-5.432,-3.234,5.859,1
6.547244,0.695,0.776,-0.179,-5.737,-3.173,5.31,1
6.555873,0.694,0.783,-0.177,-5.859,-3.295,4.76,1
6.563722,0.69,0.786,-0.179,-5.371,-3.295,4.211,1
6.570863,0.686,0.786,-0.169,-4.455,-3.784,3.601,1
6.578968,0.68,0.779,-0.157,-4.089,-3.784,2.929,1
6.586298,0.68,0.778,-0.148,-3.845,-3.54,3.051,1
6.595162,0.675,0.773,-0.144,-4.577,-3.356,2.929,1
6.603335,0.671,0.774,-0.138,-5.737,-3.112,2.502,1
6.612311,0.665,0.778,-0.13,-6.408,-2.38,2.014,1
6.619255,0.665,0.778,-0.131,-5.126,-2.502,1.77,1
6.628113,0.662,0.78,-0.132,-2.441,-2.075,1.464,1
6.634507,0.664,0.776,-0.13,1.647,-2.441,0.976,1
6.64367,0.665,0.766,-0.125,3.662,-2.685,0.793,1
6.651119,0.658,0.757,-0.121,3.601,-2.258,0.732,1
6.658759,0.649,0.753,-0.114,2.685,-1.708,0.244,1
6.666101,0.643,0.748,-0.105,2.746,-1.403,0.244,1
6.674416,0.639,0.745,-0.103,3.906,-1.159,0.183,1
6.682525,0.647,0.742,-0.101,7.019,-0.976,0.122,1
6.690605,0.649,0.742,-0.098,9.155,-0.488,0.061,1
6.697938,0.643,0.735,-0.098,7.995,0.122,0.488,1
6.705216,0.637,0.741,-0.101,3.479,1.22,0.732,1
6.713539,0.632,0.746,-0.104,-0.183,2.075,1.098,1
6.722373,0.632,0.75,-0.113,-2.258,2.807,1.037,1
6.72919,0.624,0.756,-0.125,-2.563,3.54,0.976,1
6.737027,0.625,0.759,-0.135,-0.793,3.784,1.159,1
6.74609,0.629,0.757,-0.145,0.793,3.967,1.464,1
6.753481,0.631,0.761,-0.149,1.525,4.089,1.464,1
6.760552,0.621,0.758,-0.151,0.61,4.272,1.892,1
6.769037,0.622,0.764,-0.152,-0.366,4.699,2.075,1
6.777903,0.62,0.776,-0.152,-0.671,5.004,2.136,1
6.783893,0.611,0.787,-0.156,-0.122,5.31,1.647,1
6.792629,0.611,0.784,-0.168,0.244,5.31,1.892,1
6.799416,0.605,0.791,-0.171,-1.403,5.798,1.342,1
6.808213,0.609,0.794,-0.184,-2.197,6.042,1.342,1
6.816322,0.61,0.793,-0.198,-2.929,6.408,0.793,1
6.825292,0.607,0.793,-0.209,-3.112,6.591,0.61,1
6.832826,0.611,0.784,-0.217,-3.234,6.591,0.0,1
6.839993,0.613,0.785,-0.229,-3.051,6.164,0.0,1
6.849151,0.612,0.782,-0.233,-2.136,5.676,-0.244,1
6.856387,0.61,0.78,-0.23,-1.098,5.615,-0.122,1
6.864889,0.613,0.778,-0.231,-1.22,5.249,-0.244,1
6.871183,0.618,0.77,-0.235,-2.746,5.371,-0.244,1
6.879426,0.624,0.769,-0.238,-4.577,5.31,-0.183,1
6.886334,0.629,0.77,-0.245,-6.042,5.065,-0.061,1
6.893303,0.63,0.78,-0.252,-6.164,4.76,-0.183,1
6.90276,0.635,0.779,-0.259,-5.31,4.394,-0.183,1
6.911766,0.642,0.785,-0.272,-4.15,3.662,-0.61,1
6.918674,0.643,0.787,-0.272,-3.051,2.99,-0.854,1
6.925809,0.646,0.785,-0.276,-2.685,2.441,-0.793,1
6.935327,0.647,0.783,-0.276,-2.99,2.075,-1.159,1
6.942786,0.64,0.783,-0.275,-3.234,1.464,-1.647,1
6.949683,0.638,0.778,-0.277,-2.746,1.098,-1.953,1
6.95757,0.636,0.773,-0.278,-2.136,0.244,-2.075,1
6.966558,0.636,0.77,-0.276,-1.22,-0.122,-2.014,1
6.973916,0.639,0.762,-0.27,-1.098,-0.854,-2.014,1
6.982886,0.638,0.765,-0.268,-1.586,-1.22,-2.258,1
6.992076,0.637,0.758,-0.27,-2.441,-1.647,-2.075,1
6.999096,0.64,0.757,-0.26,-2.563,-2.136,-2.136,1
7.008179,0.642,0.763,-0.255,-1.464,-2.441,-1.953,1
7.015728,0.642,0.763,-0.261,0.061,-3.295,-1.831,1
7.023186,0.648,0.76,-0.256,0.793,-3.784,-1.831,1
7.032559,0.646,0.764,-0.249,1.098,-4.516,-1.77,1
7.039244,0.645,0.767,-0.242,1.464,-5.065,-1.647,1
7.048376,0.64,0.765,-0.231,0.854,-5.371,-1.525,1
7.055314,0.63,0.767,-0.22,0.488,-5.31,-1.647,1
7.063694,0.627,0.766,-0.216,0.122,-5.676,-1.892,1
7.071635,0.627,0.767,-0.21,0.915,-5.859,-1.525,1
7.080951,0.622,0.768,-0.208,1.892,-5.798,-2.197,1
7.087631,0.622,0.762,-0.199,2.075,-5.981,-1.708,1
7.095383,0.627,0.762,-0.19,2.319,-5.737,-2.014,1
7.104106,0.625,0.766,-0.185,2.441,-5.798,-1.953,1
7.112231,0.62,0.763,-0.183,1.831,-5.554,-1.953,1
7.119259,0.623,0.765,-0.185,0.305,-5.493,-2.136,1
7.12788,0.624,0.767,-0.181,-0.549,-5.615,-2.502,1
7.136131,0.626,0.767,-0.174,0.427,-5.798,-2.502,1
7.142965,0.625,0.769,-0.166,1.464,-5.676,-2.563,1
7.150939,0.622,0.759,-0.159,1.342,-5.249,-2.685,1
7.159263,0.635,0.76,-0.15,0.793,-4.882,-2.441,1
7.167618,0.631,0.76,-0.142,0.915,-4.516,-2.563,1
7.177028,0.633,0.758,-0.137,1.77,-4.15,-2.441,1
7.184081,0.635,0.755,-0.134,2.746,-3.845,-2.563,1
7.192647,0.637,0.758,-0.137,2.563,-3.234,-2.38,1
7.199541,0.634,0.756,-0.137,1.708,-2.807,-2.685,1
7.2079,0.628,0.76,-0.145,0.793,-2.502,-2.624,1
7.214766,0.624,0.762,-0.143,0.427,-2.014,-2.624,1
7.223313,0.62,0.761,-0.149,0.305,-1.831,-2.807,1
7.231725,0.621,0.766,-0.15,0.976,-1.464,-2.929,1
7.240753,0.622,0.762,-0.147,2.197,-1.464,-3.173,1
7.248542,0.625,0.761,-0.144,3.54,-0.915,-3.051,1
7.25479,0.631,0.761,-0.136,4.028,-0.854,-3.112,1
7.26392,0.638,0.761,-0.131,5.493,-0.122,-3.051,1
7.270989,0.644,0.764,-0.132,6.591,0.366,-3.051,1
7.280007,0.653,0.761,-0.136,6.347,0.915,-3.173,1
7.287019,0.656,0.766,-0.137,4.821,1.525,-3.295,1
7.294606,0.661,0.764,-0.139,2.563,1.892,-3.356,1
7.302248,0.66,0.76,-0.146,0.305,2.319,-3.54,1
7.312202,0.666,0.761,-0.155,-2.258,3.173,-3.723,1
7.318586,0.664,0.766,-0.167,-4.76,3.479,-3.784,1
7.326629,0.661,0.77,-0.171,-4.577,3.479,-3.662,1
7.335221,0.665,0.766,-0.169,-1.892,3.356,-3.723,1
7.344013,0.674,0.767,-0.176,0.854,3.295,-3.54,1
7.349911,0.673,0.761,-0.181,1.525,3.356,-3.356,1
7.35772,0.669,0.751,-0.181,1.159,3.234,-3.54,1
7.365319,0.675,0.75,-0.181,0.061,3.112,-3.173,1
7.373439,0.667,0.748,-0.179,0.061,3.234,-2.807,1
7.381458,0.665,0.753,-0.185,-0.488,3.417,-3.051,1
7.390583,0.663,0.749,-0.197,-1.342,3.356,-3.051,1
7.397641,0.66,0.753,-0.206,-1.953,3.051,-2.929,1
7.405482,0.661,0.757,-0.211,-1.342,2.807,-2.99,1
7.413154,0.658,0.759,-0.21,0.915,2.258,-3.234,1
7.420765,0.657,0.76,-0.208,2.319,1.953,-2.929,1
7.42931,0.655,0.756,-0.208,2.258,1.77,-3.356,1
7.43747,0.657,0.748,-0.205,1.037,1.586,-3.295,1
7.44545,0.658,0.743,-0.2,0.122,1.892,-3.54,1
7.452873,0.656,0.74,-0.198,-0.915,1.525,-3.479,1
7.461716,0.653,0.743,-0.198,-0.061,1.403,-3.479,1
7.469852,0.654,0.748,-0.199,2.075,1.281,-3.417,1
7.477564,0.649,0.754,-0.206,2.929,1.098,-3.417,1
7.485116,0.645,0.756,-0.214,2.563,1.159,-3.723,1
7.493901,0.643,0.756,-0.211,1.342,0.976,-3.784,1
7.50163,0.644,0.76,-0.214,0.915,0.976,-3.845,1
7.509814,0.648,0.753,-0.214,1.525,0.732,-4.028,1
7.517268,0.646,0.746,-0.212,1.281,0.366,-4.211,1
7.524847,0.652,0.739,-0.21,0.854,0.305,-4.394,1
7.534074,0.654,0.738,-0.196,0.732,0.366,-4.15,1
7.541751,0.651,0.738,-0.186,2.014,-0.061,-4.028,1
7.548608,0.65,0.737,-0.184,3.784,0.183,-3.845,1
7.557917,0.647,0.736,-0.188,3.723,0.488,-3.479,1
7.565342,0.648,0.731,-0.187,2.563,0.61,-3.295,1
7.57225,0.648,0.738,-0.185,1.037,1.159,-3.234,1
7.580266,0.646,0.737,-0.185,0.732,1.098,-3.112,1
7.587689,0.645,0.742,-0.18,1.22,1.037,-3.173,1
7.595876,0.644,0.735,-0.18,1.831,0.854,-3.234,1
7.602919,0.644,0.732,-0.178,1.708,0.976,-3.173,1
7.611626,0.64,0.728,-0.18,0.122,1.22,-3.356,1
7.619627,0.64,0.723,-0.179,-1.037,1.342,-3.295,1
7.627728,0.638,0.726,-0.172,-1.281,1.403,-3.173,1
7.635127,0.636,0.729,-0.166,0.122,1.281,-3.112,1
7.644389,0.637,0.726,-0.17,1.281,1.342,-3.112,1
7.651385,0.636,0.719,-0.181,0.0,1.464,-3.051,1
7.660647,0.635,0.722,-0.184,-2.075,1.953,-2.868,1
7.667794,0.642,0.721,-0.19,-2.075,2.075,-2.563,1
7.674954,0.646,0.728,-0.191,0.61,1.586,-2.624,1
7.683473,0.642,0.729,-0.188,4.15,1.22,-2.563,1
7.692761,0.645,0.719,-0.194,5.798,0.915,-2.319,1
7.700087,0.645,0.716,-0.193,4.455,0.732,-2.502,1
7.706911,0.645,0.712,-0.193,2.441,0.61,-2.075,1
7.714866,0.65,0.715,-0.187,1.708,0.793,-2.075,1
7.723031,0.646,0.721,-0.186,2.929,0.488,-1.708,1
7.730159,0.647,0.722,-0.183,4.943,0.244,-1.586,1
7.739397,0.644,0.725,-0.176,6.652,0.183,-1.281,1
7.745827,0.645,0.724,-0.177,6.347,-0.061,-0.976,1
7.754573,0.641,0.723,-0.177,5.432,0.366,-0.732,1
7.76155,0.645,0.725,-0.17,5.126,0.793,-0.671,1
7.769117,0.648,0.726,-0.163,5.432,0.488,-0.488,1
7.778386,0.651,0.724,-0.162,6.103,0.793,-0.549,1
7.785674,0.648,0.724,-0.16,7.141,0.732,-0.732,1
7.79382,0.649,0.733,-0.159,8.422,1.098,-0.305,1
7.802926,0.651,0.741,-0.155,9.765,1.037,-0.244,1
7.809238,0.65,0.743,-0.163,9.643,1.281,-0.183,1
7.817461,0.642,0.747,-0.165,8.422,1.464,-0.244,1
7.824471,0.643,0.754,-0.168,6.774,1.708,-0.488,1
7.833783,0.646,0.765,-0.172,4.76,2.136,-0.549,1
7.841107,0.643,0.778,-0.178,3.051,2.136,-0.793,1
7.848258,0.654,0.786,-0.186,2.807,2.014,-0.976,1
7.855893,0.651,0.791,-0.187,4.394,1.464,-1.22,1
7.865152,0.657,0.795,-0.185,6.652,1.22,-1.77,1
7.872808,0.66,0.786,-0.178,8.483,0.732,-2.014,1
7.881198,0.659,0.779,-0.173,9.887,0.671,-2.258,1
7.88886,0.661,0.775,-0.17,9.338,0.976,-2.136,1
7.895829,0.66,0.767,-0.174,7.873,1.403,-2.38,1
7.903545,0.666,0.762,-0.17,6.164,1.831,-2.258,1
7.912629,0.665,0.764,-0.169,4.577,2.197,-2.319,1
7.92004,0.665,0.768,-0.167,3.356,2.197,-2.319,1
7.92755,0.673,0.772,-0.175,3.112,2.441,-2.563,1
7.935281,0.675,0.772,-0.178,2.807,2.563,-2.746,1
7.943165,0.671,0.766,-0.181,2.014,2.746,-3.051,1
7.951207,0.672,0.763,-0.179,1.892,2.807,-3.417,1
7.959268,0.676,0.758,-0.172,2.746,2.563,-3.54,1
7.966761,0.67,0.747,-0.174,4.028,2.563,-3.601,1
7.97496,0.676,0.737,-0.174,3.54,2.624,-3.601,1
7.983532,0.678,0.73,-0.168,2.441,2.99,-3.356,1
7.989926,0.675,0.731,-0.166,1.342,3.051,-3.173,1
7.997388,0.68,0.729,-0.156,1.159,3.112,-3.051,1
8.005949,0.678,0.728,-0.16,0.854,3.356,-2.868,1
8.012001,0.676,0.723,-0.162,-1.098,3.417,-2.868,1
8.020818,0.677,0.721,-0.166,-3.356,4.028,-2.685,1
8.027539,0.666,0.722,-0.171,-5.737,4.272,-2.624,1
8.036288,0.666,0.728,-0.178,-5.126,4.333,-2.685,1
8.044274,0.671,0.724,-0.18,-2.99,3.906,-2.624,1
8.053139,0.672,0.713,-0.18,-0.793,3.662,-2.319,1
8.060127,0.667,0.706,-0.176,1.037,3.479,-2.075,1
8.069307,0.674,0.707,-0.173,1.708,3.723,-1.953,1
8.077262,0.668,0.705,-0.172,1.098,3.601,-1.464,1
8.084567,0.665,0.708,-0.173,0.0,3.784,-1.281,1
8.091443,0.663,0.715,-0.171,-0.366,3.845,-1.037,1
8.100763,0.656,0.729,-0.174,-1.281,3.967,-0.915,1
8.107697,0.651,0.727,-0.18,-2.563,4.089,-0.732,1
8.11543,0.648,0.73,-0.181,-2.685,4.15,-0.671,1
8.124701,0.66,0.733,-0.185,-2.136,4.028,-0.854,1
8.131712,0.675,0.73,-0.184,-0.671,3.723,-0.671,1
8.13911,0.682,0.73,-0.187,0.854,3.479,-0.488,1
8.148244,0.684,0.724,-0.188,1.708,3.173,-1.098,1
8.155803,0.683,0.725,-0.191,1.708,3.112,-0.854,1
8.163636,0.683,0.73,-0.195,1.953,2.624,-0.671,1
8.170119,0.683,0.734,-0.192,3.784,2.502,-0.61,1
8.178446,0.693,0.735,-0.189,5.432,2.136,-0.305,1
8.186967,0.699,0.738,-0.184,4.394,2.258,-0.183,1
8.195147,0.7,0.744,-0.178,1.159,2.319,0.549,1
8.201572,0.704,0.755,-0.174,-2.197,2.502,0.305,1
8.210716,0.726,0.771,-0.168,-2.685,2.38,0.732,1
8.217925,0.725,0.784,-0.158,-0.122,2.014,0.305,1
8.225125,0.726,0.788,-0.153,2.38,1.831,0.427,1
8.233432,0.725,0.789,-0.149,2.624,1.647,0.0,1
8.240417,0.714,0.802,-0.145,1.708,1.647,-0.549,1
8.248185,0.711,0.814,-0.138,0.732,1.892,-1.037,1
8.256109,0.699,0.84,-0.125,0.976,1.831,-1.831,1
8.263845,0.697,0.859,-0.12,2.197,1.953,-2.929,1
8.272987,0.69,0.87,-0.107,3.479,2.136,-4.272,1
8.279378,0.682,0.88,-0.095,4.943,2.441,-5.554,1
8.288683,0.691,0.879,-0.084,5.676,2.807,-7.08,1
8.295431,0.701,0.874,-0.066,5.371,3.723,-8.056,1
8.304348,0.706,0.873,-0.042,5.249,4.15,-9.582,1
8.311078,0.709,0.871,-0.027,4.821,5.432,-10.559,1
8.320027,0.715,0.871,-0.016,3.54,6.896,-11.901,1
8.327097,0.717,0.883,-0.017,1.892,8.239,-13.061,1
8.335743,0.714,0.898,-0.026,0.488,9.521,-14.404,1
8.343847,0.71,0.909,-0.034,-0.366,10.803,-16.113,1
8.351448,0.711,0.908,-0.059,-0.671,11.657,-17.578,1
8.359993,0.733,0.89,-0.077,-0.183,12.451,-19.226,1
8.368963,0.75,0.862,-0.106,-2.624,13.0,-20.324,1
8.376458,0.774,0.833,-0.134,-7.019,13.61,-20.629,1
8.384697,0.799,0.804,-0.17,-10.498,13.488,-20.69,1
8.393822,0.817,0.793,-0.194,-9.887,12.695,-20.08,1
8.400757,0.832,0.771,-0.23,-8.361,11.413,-19.348,1
8.409952,0.83,0.764,-0.271,-7.263,9.826,-19.165,1
8.417368,0.828,0.762,-0.277,-5.432,7.324,-19.165,1
8.424743,0.812,0.75,-0.271,0.183,5.126,-18.798,1
8.43242,0.788,0.726,-0.251,3.906,3.112,-18.92,1
8.441436,0.765,0.698,-0.223,4.272,2.319,-18.798,1
8.448306,0.746,0.677,-0.181,4.211,2.075,-18.798,1
8.457381,0.726,0.664,-0.144,6.347,2.441,-18.31,1
8.464492,0.704,0.651,-0.112,8.544,3.112,-18.432,1
8.471783,0.686,0.64,-0.089,10.437,4.272,-18.066,1
8.480858,0.668,0.629,-0.076,10.803,6.225,-17.883,1
8.488982,0.664,0.622,-0.067,7.507,8.789,-17.7,1
8.496472,0.649,0.621,-0.068,2.868,11.23,-17.578,1
8.504234,0.654,0.625,-0.067,-2.258,14.282,-17.639,1
8.513092,0.66,0.636,-0.068,-4.028,16.601,-17.822,1
8.52103,0.669,0.643,-0.06,-5.493,18.737,-17.761,1
8.530006,0.668,0.649,-0.054,-7.934,21.118,-17.517,1
8.537484,0.663,0.66,-0.04,-8.911,23.742,-17.883,1
8.544719,0.657,0.664,-0.032,-8.911,25.939,-17.822,1
8.553958,0.633,0.664,-0.028,-10.498,29.235,-18.005,1
8.560737,0.614,0.669,-0.036,-12.939,32.287,-18.493,1
8.569533,0.599,0.659,-0.048,-14.343,35.156,-18.737,1
8.577194,0.577,0.651,-0.063,-17.578,38.757,-18.981,1
8.585411,0.563,0.64,-0.075,-21.057,41.931,-19.409,1
8.592408,0.541,0.626,-0.095,-24.658,45.104,-19.409,1
8.600751,0.509,0.609,-0.111,-28.564,49.072,-19.409,1
8.609992,0.485,0.594,-0.13,-30.517,52.307,-18.981,1
8.616818,0.455,0.575,-0.157,-31.311,55.236,-18.615,1
8.62607,0.418,0.548,-0.177,-32.104,58.959,-18.005,1
8.633488,0.402,0.526,-0.201,-33.691,62.011,-17.089,1
8.641668,0.373,0.488,-0.222,-36.621,65.307,-15.991,1
8.650289,0.339,0.464,-0.26,-41.442,69.519,-13.977,1
8.657202,0.304,0.437,-0.292,-46.447,72.387,-12.268,1
8.66564,0.273,0.411,-0.326,-52.673,75.561,-9.948,1
8.673002,0.246,0.388,-0.363,-59.326,78.857,-7.141,1
8.680772,0.219,0.371,-0.407,-62.988,81.665,-4.455,1
8.689803,0.201,0.348,-0.473,-66.406,83.618,-1.525,1
8.696799,0.163,0.318,-0.55,-72.631,85.144,1.77,1
8.704216,0.129,0.296,-0.619,-80.322,87.097,4.516,1
8.713454,0.104,0.272,-0.699,-90.026,87.402,7.202,1
8.720379,0.064,0.247,-0.81,-100.463,87.463,10.253,1
8.728894,0.031,0.227,-0.927,-109.558,85.571,12.573,1
8.736267,0.003,0.205,-1.03,-116.149,81.726,15.319,1
8.74374,-0.039,0.183,-1.11,-115.112,77.758,18.249,1
8.752026,-0.081,0.135,-1.196,-105.712,72.875,21.423,1
8.759784,-0.104,0.073,-1.281,-91.674,67.016,25.878,1
8.768102,-0.126,0.004,-1.382,-80.749,60.729,31.433,1
8.776587,-0.16,-0.054,-1.466,-73.059,54.504,37.963,1
8.78467,-0.177,-0.123,-1.573,-66.162,48.034,45.288,1
8.793316,-0.185,-0.189,-1.679,-59.692,40.161,54.992,1
8.800267,-0.123,-0.307,-1.87,-65.734,33.203,64.514,1
8.809005,-0.111,-0.392,-2.045,-91.918,24.841,76.965,1
8.816498,-0.119,-0.438,-2.254,-120.91,15.869,90.332,1
8.826233,-0.151,-0.456,-2.428,-136.962,6.042,102.844,1
8.83354,-0.257,-0.452,-2.658,-138.366,-6.469,115.356,1
8.843219,-0.372,-0.458,-2.856,-129.211,-24.841,129.882,1
8.84991,-0.553,-0.458,-3.074,-115.539,-45.593,145.019,1
8.858846,-0.684,-0.461,-3.263,-107.543,-65.124,158.203,1
8.867055,-0.844,-0.442,-3.45,-105.224,-89.721,174.072,1
8.875813,-1.001,-0.395,-3.589,-106.933,-111.389,187.805,1
8.883834,-1.183,-0.292,-3.698,-110.717,-138.61,203.979,1
8.892015,-1.374,-0.118,-3.764,-110.9,-162.17,216.979,1
8.901017,-1.633,0.062,-3.776,-106.384,-191.711,230.59,1
8.910254,-1.872,0.238,-3.766,-96.313,-221.679,241.943,1
8.916871,-2.191,0.433,-3.704,-80.932,-253.173,251.708,1
8.926283,-2.466,0.586,-3.639,-71.289,-279.663,258.422,1
8.933377,-2.781,0.776,-3.517,-65.246,-306.091,263.977,1
8.941176,-3.029,0.952,-3.361,-57.128,-335.632,269.165,1
8.950454,-3.287,1.166,-3.146,-54.382,-359.436,272.033,1
8.958007,-3.487,1.392,-2.917,-54.016,-385.131,273.254,1
8.967027,-3.745,1.672,-2.592,-54.199,-408.569,272.277,1
8.975829,-3.933,1.934,-2.284,-54.26,-426.391,269.592,1
8.982897,-4.077,2.27,-1.852,-42.541,-445.983,263.366,1
8.990632,-4.131,2.527,-1.475,-31.127,-460.327,256.286,1
9.000138,-4.151,2.876,-0.965,-25.817,-473.815,245.178,1
9.0079,-4.098,3.184,-0.48,-16.479,-482.116,233.032,1
9.016598,-3.979,3.496,0.127,-4.821,-487.06,216.796,1
9.023804,-3.8,3.669,0.586,4.577,-485.595,195.007,1
9.032255,-3.659,3.803,1.033,11.047,-483.032,173.889,1
9.039109,-3.461,3.875,1.48,21.545,-475.769,151.611,1
9.04717,-3.21,3.867,1.961,33.63,-464.355,124.145,1
9.055503,-2.961,3.839,2.389,41.198,-451.904,100.769,1
9.063935,-2.68,3.771,2.8,48.034,-434.631,72.814,1
9.070969,-2.382,3.619,3.157,40.588,-412.963,49.438,1
9.080208,-2.09,3.437,3.425,22.766,-389.221,27.893,1
9.086824,-1.769,3.244,3.62,6.713,-363.342,8.605,1
9.094929,-1.417,2.993,3.767,-5.126,-337.402,-8.666,1
9.103071,-1.132,2.735,3.838,-15.93,-306.091,-25.817,1
9.112345,-0.862,2.472,3.807,-24.23,-279.541,-37.963,1
9.118973,-0.573,2.194,3.714,-28.015,-251.525,-49.072,1
9.126941,-0.413,1.999,3.633,-21.545,-229.125,-56.457,1
9.135261,-0.261,1.791,3.5,-14.282,-207.458,-62.377,1
9.14523,-0.13,1.613,3.347,-14.892,-184.326,-67.687,1
9.15174,0.006,1.406,3.172,-22.033,-160.278,-70.8,1
9.161556,0.133,1.256,2.996,-27.893,-143.554,-71.716,1
9.168557,0.25,1.106,2.794,-27.832,-123.535,-71.533,1
9.177201,0.322,0.987,2.578,-28.625,-109.191,-71.044,1
9.184358,0.398,0.854,2.318,-31.005,-92.834,-69.885,1
9.193509,0.445,0.765,2.083,-32.47,-81.359,-68.847,1
9.200555,0.471,0.689,1.846,-33.081,-70.983,-67.382,1
9.209576,0.502,0.638,1.625,-32.897,-62.927,-65.856,1
9.216786,0.504,0.604,1.494,-27.893,-56.213,-64.941,1
9.225678,0.517,0.555,1.339,-26.062,-51.025,-64.208,1
9.232916,0.536,0.487,1.244,-28.93,-44.616,-63.537,1
9.242095,0.542,0.43,1.159,-31.494,-40.527,-61.706,1
9.249443,0.564,0.36,1.085,-31.982,-35.034,-59.204,1
9.258352,0.58,0.322,1.018,-31.555,-31.127,-56.701,1
9.264926,0.604,0.276,0.943,-29.785,-26.794,-53.527,1
9.272973,0.604,0.239,0.872,-27.954,-23.254,-49.804,1
9.28103,0.603,0.235,0.822,-25.512,-19.714,-45.043,1
9.28847,0.598,0.241,0.795,-21.24,-17.211,-40.771,1
9.296434,0.59,0.245,0.771,-16.479,-14.648,-36.56,1
9.305863,0.601,0.252,0.747,-15.197,-11.962,-32.165,1
9.312595,0.599,0.265,0.732,-14.831,-8.483,-27.587,1
9.321738,0.597,0.283,0.709,-13.793,-5.554,-23.742,1
9.328694,0.597,0.311,0.667,-11.962,-2.807,-20.629,1
9.337903,0.593,0.341,0.619,-12.451,0.976,-16.906,1
9.344639,0.586,0.374,0.569,-15.563,3.295,-14.343,1
9.352355,0.584,0.409,0.499,-17.944,6.103,-12.145,1
9.361374,0.572,0.436,0.436,-21.85,8.361,-9.582,1
9.369266,0.561,0.458,0.387,-24.353,9.765,-8.178,1
9.377274,0.547,0.481,0.335,-25.878,10.925,-6.652,1
9.384596,0.552,0.511,0.304,-24.169,11.535,-4.882,1
9.393572,0.543,0.526,0.286,-20.202,11.413,-3.234,1
9.400643,0.539,0.538,0.27,-17.211,11.901,-1.525,1
9.409416,0.541,0.541,0.259,-15.38,12.634,0.0,1
9.416649,0.546,0.549,0.247,-13.427,13.244,1.647,1
9.424013,0.557,0.564,0.228,-11.291,13.61,2.99,1
9.431686,0.56,0.585,0.212,-6.835,13.732,4.516,1
9.44026,0.573,0.599,0.194,-3.54,14.343,5.737,1
9.44783,0.573,0.608,0.17,-3.601,14.404,6.835,1
9.454781,0.586,0.624,0.146,-5.554,14.953,8.361,1
9.462365,0.6,0.647,0.122,-7.202,14.892,9.155,1
9.471151,0.61,0.669,0.107,-7.324,14.587,10.498,1
9.478545,0.618,0.699,0.087,-6.53,14.221,11.169,1
9.486018,0.626,0.721,0.074,-5.493,13.61,11.657,1
9.493511,0.638,0.75,0.058,-4.516,13.0,12.207,1
9.502419,0.652,0.772,0.045,-4.15,12.084,12.207,1
9.51078,0.661,0.799,0.045,-3.051,10.925,11.84,1
9.518432,0.672,0.812,0.052,-1.403,9.826,11.291,1
9.526395,0.667,0.832,0.06,0.427,9.155,10.925,1
9.533668,0.679,0.849,0.062,1.22,8.483,10.437,1
9.542728,0.676,0.866,0.053,0.122,7.873,9.765,1
9.549557,0.678,0.878,0.052,-1.159,7.263,9.033,1
9.558057,0.679,0.902,0.058,-0.976,6.591,8.178,1
9.564536,0.684,0.914,0.063,0.366,5.737,7.324,1
9.572743,0.693,0.923,0.062,0.732,5.249,6.53,1
9.579478,0.693,0.934,0.066,0.732,4.943,5.432,1
9.588205,0.691,0.943,0.065,0.671,4.699,4.455,1
9.594802,0.705,0.946,0.068,0.671,4.394,3.295,1
9.60189,0.703,0.946,0.074,0.915,4.089,2.441,1
9.610264,0.706,0.94,0.081,0.427,4.15,1.464,1
9.617098,0.706,0.927,0.085,-1.464,3.906,0.244,1
9.626155,0.7,0.923,0.088,-3.601,4.028,-0.61,1
9.634568,0.695,0.932,0.099,-2.929,4.028,-1.525,1
9.64112,0.698,0.932,0.098,0.671,3.906,-2.502,1
9.65052,0.695,0.922,0.095,2.624,3.906,-3.845,1
9.658626,0.691,0.915,0.089,2.99,3.906,-4.76,1
9.665202,0.678,0.906,0.083,1.77,4.028,-5.981,1
9.673258,0.674,0.89,0.079,0.183,4.394,-7.141,1
9.68245,0.662,0.87,0.072,-0.915,4.333,-7.629,1
9.689796,0.659,0.845,0.062,-2.014,4.394,-8.361,1
9.697372,0.656,0.818,0.053,-3.601,4.272,-8.789,1
9.70521,0.642,0.804,0.045,-4.089,3.906,-8.728,1
9.712821,0.641,0.794,0.038,-2.807,3.54,-8.728,1
9.720498,0.64,0.775,0.016,-1.708,2.746,-8.85,1
9.728171,0.634,0.764,0.005,-2.624,2.258,-8.483,1
9.737615,0.621,0.753,-0.003,-4.638,1.892,-8.422,1
9.744496,0.62,0.747,-0.018,-6.286,1.098,-8.178,1
9.75227,0.619,0.735,-0.017,-6.774,0.0,-7.995,1
9.761235,0.612,0.727,-0.02,-6.896,-0.976,-7.568,1
9.769638,0.613,0.709,-0.014,-7.019,-1.586,-7.263,1
9.7769,0.62,0.699,-0.009,-6.958,-2.807,-6.713,1
9.784953,0.619,0.688,-0.009,-7.263,-3.417,-6.103,1
9.793919,0.617,0.677,0.0,-7.629,-4.028,-5.187,1
9.801903,0.615,0.685,0.003,-6.469,-4.577,-4.394,1
9.810118,0.612,0.693,0.013,-4.15,-5.432,-3.601,1
9.816659,0.606,0.705,0.02,-0.488,-6.225,-3.356,1
9.825494,0.608,0.708,0.03,1.403,-7.141,-2.563,1
9.832744,0.61,0.703,0.036,1.159,-7.324,-2.258,1
9.841771,0.625,0.703,0.054,-0.61,-7.385,-1.647,1
9.848971,0.639,0.682,0.068,-3.906,-7.568,-1.342,1
9.85829,0.597,0.692,0.078,-5.554,-6.774,-0.427,1
9.864617,0.61,0.683,0.099,-6.225,-6.652,0.427,1
9.873148,0.621,0.687,0.112,-4.699,-6.408,0.915,1
9.879904,0.613,0.689,0.135,-1.647,-6.286,1.953,1
9.88896,0.616,0.696,0.153,2.258,-6.042,2.624,1
9.897031,0.61,0.71,0.181,5.737,-5.798,3.417,1
9.905365,0.62,0.707,0.186,6.774,-4.76,4.333,1
9.912884,0.625,0.713,0.187,3.906,-3.662,4.577,1
9.919973,0.636,0.721,0.195,-0.549,-2.258,4.821,1
9.928342,0.644,0.727,0.19,-6.408,-0.854,5.187,1
9.936019,0.637,0.74,0.188,-11.474,0.732,5.676,1
9.945287,0.661,0.735,0.174,-15.686,1.892,5.493,1
9.95165,0.724,0.696,0.148,-29.602,2.38,6.042,1
9.95923,0.596,0.757,0.184,-37.719,4.272,7.019,1
9.967056,0.634,0.769,0.152,-31.738,5.004,7.141,1
9.976378,0.646,0.763,0.136,-28.564,4.699,8.178,1
9.983514,0.616,0.776,0.116,-24.475,4.638,8.3,1
9.991598,0.671,0.726,0.091,-26.916,4.455,9.277,1
9.998944,0.649,0.764,0.089,-34.179,4.943,10.62,1
