timestamp_s,ax,ay,az,gx,gy,gz,label
0.006595,0.705,0.707,0.167,0.122,-0.427,-0.183,1
0.01416,0.705,0.706,0.168,-0.061,-0.427,-0.183,1
0.022442,0.703,0.705,0.169,0.122,-0.183,-0.122,1
0.030714,0.708,0.707,0.17,0.0,-0.122,-0.183,1
0.037542,0.707,0.706,0.164,-0.122,-0.244,-0.122,1
0.044216,0.706,0.702,0.166,-0.183,0.0,0.0,1
0.053015,0.707,0.708,0.168,0.0,-0.244,-0.061,1
0.059745,0.709,0.707,0.168,-0.061,-0.305,0.0,1
0.06779,0.705,0.707,0.165,0.061,-0.122,0.0,1
0.077109,0.704,0.707,0.163,0.0,0.0,-0.183,1
0.083471,0.708,0.705,0.166,0.122,0.0,0.061,1
0.090936,0.705,0.709,0.17,0.427,-0.183,-0.244,1
0.099265,0.71,0.708,0.168,0.366,-0.061,0.0,1
0.108094,0.706,0.701,0.168,0.244,0.0,0.0,1
0.116042,0.708,0.704,0.168,0.122,0.122,0.061,1
0.122895,0.707,0.705,0.167,0.061,0.183,-0.061,1
0.129526,0.708,0.7,0.168,0.305,0.183,0.122,1
0.138109,0.702,0.703,0.167,0.366,-0.061,-0.122,1
0.145615,0.706,0.704,0.166,0.061,0.122,0.183,1
0.153913,0.705,0.706,0.166,-0.061,0.122,0.061,1
0.161406,0.704,0.708,0.166,0.061,0.244,0.061,1
0.168357,0.704,0.708,0.165,0.488,0.305,-0.122,1
0.176087,0.705,0.708,0.165,0.244,0.305,0.122,1
0.184824,0.708,0.706,0.163,-0.549,0.549,0.122,1
0.191992,0.71,0.706,0.161,-0.854,0.427,0.061,1
0.199602,0.709,0.708,0.161,-0.488,0.366,0.183,1
0.207003,0.706,0.706,0.162,0.488,0.183,0.244,1
0.21555,0.709,0.706,0.163,0.671,0.122,-0.122,1
0.223254,0.703,0.701,0.163,0.854,0.183,0.122,1
0.230427,0.703,0.705,0.163,0.0,0.427,0.244,1
0.239498,0.703,0.711,0.161,-0.976,0.305,0.366,1
0.246978,0.707,0.714,0.161,-0.732,0.366,0.305,1
0.255062,0.708,0.712,0.16,0.061,0.061,0.305,1
0.26164,0.71,0.711,0.16,0.305,0.122,0.0,1
0.269689,0.708,0.707,0.159,0.244,0.244,0.122,1
0.276121,0.702,0.709,0.159,0.183,0.122,0.244,1
0.283074,0.703,0.704,0.157,0.061,0.061,0.305,1
0.290635,0.702,0.703,0.156,-0.061,0.122,0.0,1
0.297996,0.699,0.705,0.158,-0.244,0.061,0.305,1
0.305152,0.708,0.709,0.157,-0.61,0.244,0.244,1
0.314506,0.706,0.71,0.159,-0.366,0.0,0.244,1
0.321994,0.709,0.711,0.161,0.0,0.0,0.0,1
0.329655,0.708,0.713,0.159,0.244,0.061,0.488,1
0.337011,0.704,0.712,0.16,0.549,0.0,0.305,1
0.345467,0.705,0.708,0.163,0.305,0.122,0.183,1
0.352984,0.705,0.709,0.163,0.244,0.122,-0.061,1
0.360156,0.699,0.708,0.162,0.488,0.0,0.122,1
0.368257,0.702,0.708,0.161,0.122,0.061,0.061,1
0.375911,0.704,0.706,0.163,-0.061,0.122,0.183,1
0.38398,0.7,0.709,0.16,-0.122,0.122,0.244,1
0.391735,0.701,0.715,0.158,-0.244,-0.122,0.305,1
0.399692,0.706,0.71,0.162,0.061,-0.305,0.122,1
0.408124,0.704,0.709,0.165,0.0,0.0,-0.061,1
0.415138,0.708,0.709,0.162,0.305,-0.061,0.183,1
0.424285,0.71,0.71,0.17,0.0,-0.122,0.122,1
0.431345,0.707,0.713,0.171,0.366,-0.061,0.122,1
0.439512,0.707,0.709,0.171,0.427,-0.122,0.122,1
0.446094,0.705,0.712,0.17,0.122,0.061,0.122,1
0.454018,0.708,0.711,0.173,-0.183,0.244,0.122,1
0.461505,0.704,0.714,0.168,-0.183,0.305,0.061,1
0.468792,0.708,0.713,0.169,0.0,0.366,-0.122,1
0.476474,0.704,0.711,0.168,0.183,0.244,-0.244,1
0.485077,0.702,0.713,0.164,-0.244,0.61,0.0,1
0.492251,0.701,0.717,0.163,-0.549,0.488,0.061,1
0.499769,0.7,0.713,0.161,-0.305,0.61,-0.061,1
0.508238,0.701,0.712,0.157,0.183,0.427,-0.183,1
0.515205,0.7,0.712,0.154,0.244,0.366,-0.183,1
0.523634,0.696,0.709,0.154,0.183,0.366,-0.183,1
0.530881,0.7,0.711,0.153,0.305,0.183,-0.183,1
0.539836,0.698,0.71,0.156,0.244,0.244,-0.244,1
0.547062,0.7,0.707,0.157,0.305,0.183,-0.061,1
0.555481,0.702,0.707,0.159,0.0,0.122,-0.244,1
0.562307,0.705,0.707,0.158,-0.061,0.244,-0.244,1
0.571291,0.706,0.71,0.157,-0.244,0.061,-0.061,1
0.5781,0.706,0.704,0.155,0.0,0.183,-0.244,1
0.587661,0.706,0.706,0.156,0.061,0.183,-0.122,1
0.594227,0.704,0.707,0.156,0.122,0.183,-0.061,1
0.601006,0.706,0.703,0.156,0.0,0.244,0.061,1
0.609368,0.71,0.705,0.155,-0.061,0.061,0.0,1
0.617224,0.705,0.703,0.156,0.061,0.0,-0.061,1
0.624018,0.704,0.705,0.151,-0.061,0.122,0.061,1
0.632531,0.708,0.702,0.15,-0.122,-0.183,0.244,1
0.639422,0.71,0.704,0.154,-0.366,-0.122,-0.122,1
0.64729,0.708,0.707,0.15,-0.122,-0.244,0.183,1
0.654635,0.71,0.708,0.151,0.122,-0.427,0.183,1
0.663303,0.71,0.705,0.149,-0.122,-0.244,0.061,1
0.672401,0.71,0.708,0.156,0.122,-0.549,0.244,1
0.679212,0.706,0.706,0.152,0.244,-0.366,0.122,1
0.686413,0.705,0.707,0.154,0.122,-0.549,0.122,1
0.694481,0.706,0.704,0.156,-0.183,-0.366,0.122,1
0.703836,0.706,0.708,0.15,-0.488,-0.549,0.427,1
0.711271,0.707,0.71,0.153,-0.61,-0.61,-0.061,1
0.719565,0.702,0.715,0.151,-0.061,-0.61,0.244,1
0.727798,0.704,0.712,0.154,0.183,-0.732,0.305,1
0.736309,0.705,0.715,0.15,0.366,-0.793,-0.122,1
0.743467,0.704,0.713,0.153,0.366,-0.854,-0.061,1
0.751953,0.703,0.709,0.158,0.488,-0.976,-0.122,1
0.759998,0.705,0.71,0.159,0.488,-0.732,0.0,1
0.768181,0.707,0.71,0.157,0.244,-0.915,-0.244,1
0.775071,0.708,0.713,0.16,0.061,-0.976,-0.122,1
0.783219,0.706,0.714,0.162,0.122,-0.915,-0.244,1
0.790261,0.708,0.711,0.165,0.183,-0.976,-0.122,1
0.798672,0.705,0.71,0.161,0.061,-0.854,-0.061,1
0.807302,0.708,0.708,0.162,0.061,-0.793,-0.061,1
0.815782,0.699,0.71,0.162,-0.183,-0.854,-0.122,1
0.822863,0.705,0.711,0.161,0.244,-1.098,-0.244,1
0.831417,0.707,0.716,0.164,-0.061,-0.854,-0.366,1
0.838273,0.704,0.712,0.162,-0.244,-0.915,-0.061,1
0.846813,0.708,0.717,0.161,0.061,-0.976,-0.366,1
0.853595,0.705,0.715,0.164,0.305,-0.793,-0.183,1
0.862871,0.705,0.715,0.166,0.488,-0.732,-0.732,1
0.87106,0.707,0.715,0.165,0.488,-0.915,-0.61,1
0.879501,0.704,0.709,0.168,0.122,-0.793,-0.549,1
0.886624,0.708,0.708,0.168,0.305,-0.793,-0.488,1
0.894849,0.706,0.704,0.172,0.366,-0.732,-0.671,1
0.902691,0.7,0.706,0.17,0.427,-0.549,-0.488,1
0.910852,0.702,0.709,0.171,0.0,-0.122,-0.244,1
0.919298,0.702,0.709,0.166,-0.305,-0.366,-0.427,1
0.927554,0.701,0.71,0.167,-0.122,-0.305,-0.427,1
0.934304,0.707,0.706,0.166,0.244,-0.671,-0.366,1
0.943432,0.707,0.708,0.166,0.305,-0.305,-0.488,1
0.950479,0.705,0.711,0.169,0.183,-0.549,-0.488,1
0.959079,0.708,0.711,0.166,0.366,-0.549,-0.488,1
0.966259,0.708,0.706,0.164,0.366,-0.366,-0.427,1
0.975466,0.709,0.706,0.165,0.305,-0.366,-0.427,1
0.983937,0.705,0.705,0.168,0.244,-0.244,-0.427,1
0.992199,0.705,0.703,0.166,-0.061,-0.183,-0.305,1
0.998995,0.702,0.702,0.168,0.0,-0.244,-0.244,1
1.006791,0.704,0.703,0.167,0.122,-0.244,-0.244,1
1.015001,0.706,0.702,0.166,-0.183,-0.061,-0.305,1
1.021992,0.705,0.706,0.162,-0.183,-0.061,-0.305,1
1.030704,0.705,0.71,0.162,-0.061,-0.366,-0.244,1
1.037617,0.707,0.708,0.162,0.366,-0.122,-0.305,1
1.046031,0.707,0.707,0.164,0.366,-0.244,-0.061,1
1.053415,0.707,0.709,0.166,0.183,-0.061,-0.305,1
1.061873,0.705,0.707,0.166,0.0,-0.061,-0.183,1
1.068783,0.702,0.711,0.159,-0.366,-0.122,-0.061,1
1.078782,0.701,0.715,0.163,-0.183,0.0,-0.244,1
1.085743,0.703,0.713,0.163,0.0,-0.244,-0.244,1
1.093835,0.708,0.711,0.16,0.0,-0.305,-0.549,1
1.100496,0.708,0.714,0.16,0.183,-0.244,-0.427,1
1.108484,0.704,0.715,0.162,0.183,-0.183,-0.488,1
1.117635,0.705,0.716,0.163,0.183,-0.244,-0.427,1
1.125674,0.708,0.717,0.164,0.244,-0.244,-0.549,1
1.132929,0.707,0.717,0.166,0.244,-0.366,-0.732,1
1.140511,0.708,0.713,0.164,0.244,-0.305,-0.732,1
1.148981,0.71,0.718,0.166,0.366,-0.244,-0.671,1
1.157423,0.707,0.713,0.165,0.549,-0.305,-0.854,1
1.164558,0.704,0.707,0.166,0.549,-0.244,-0.61,1
1.171979,0.704,0.71,0.167,0.61,-0.244,-0.793,1
1.181166,0.706,0.706,0.169,0.488,-0.061,-0.854,1
1.188114,0.706,0.703,0.169,0.183,-0.122,-0.976,1
1.195643,0.704,0.708,0.166,-0.061,0.122,-0.854,1
1.203386,0.703,0.706,0.159,-0.366,0.061,-1.037,1
1.212131,0.706,0.704,0.164,-0.305,0.122,-0.671,1
1.220553,0.705,0.704,0.162,0.122,-0.122,-0.793,1
1.227776,0.704,0.699,0.16,0.061,-0.183,-0.732,1
1.236897,0.705,0.699,0.155,0.244,-0.183,-0.732,1
1.24412,0.708,0.698,0.159,0.427,-0.183,-0.732,1
1.251223,0.709,0.699,0.161,0.488,-0.427,-0.671,1
1.25985,0.71,0.696,0.161,0.793,-0.244,-0.366,1
1.267365,0.711,0.699,0.168,0.976,-0.427,-0.488,1
1.274833,0.709,0.696,0.166,0.549,-0.305,-0.244,1
1.284094,0.706,0.695,0.17,0.488,-0.183,-0.366,1
1.291149,0.706,0.701,0.171,-0.122,-0.183,-0.305,1
1.299428,0.706,0.705,0.171,-0.061,-0.122,-0.122,1
1.306683,0.703,0.703,0.17,-0.122,0.122,-0.305,1
1.316298,0.702,0.705,0.167,0.244,-0.244,-0.244,1
1.323393,0.704,0.707,0.166,-0.244,0.183,-0.122,1
1.330872,0.7,0.703,0.17,0.0,0.183,-0.244,1
1.338615,0.702,0.7,0.163,0.0,0.061,-0.305,1
1.34619,0.704,0.699,0.163,0.366,0.061,-0.122,1
1.355062,0.7,0.696,0.164,0.427,0.0,-0.183,1
1.362316,0.699,0.699,0.159,0.488,0.061,0.0,1
1.369848,0.697,0.698,0.16,0.671,0.183,-0.122,1
1.378564,0.699,0.7,0.157,0.549,0.122,0.183,1
1.386079,0.699,0.694,0.16,0.427,0.244,0.183,1
1.393981,0.703,0.698,0.16,0.61,-0.061,0.305,1
1.402137,0.701,0.693,0.157,0.122,-0.061,0.305,1
1.408109,0.702,0.691,0.16,0.0,-0.183,0.366,1
1.417627,0.705,0.696,0.161,-0.061,-0.122,0.427,1
1.424377,0.706,0.694,0.162,0.244,-0.122,0.488,1
1.432521,0.706,0.699,0.161,0.244,-0.183,0.732,1
1.440494,0.71,0.699,0.159,-0.122,-0.122,0.732,1
1.447953,0.707,0.7,0.162,-0.122,-0.244,0.793,1
1.455454,0.707,0.703,0.159,0.183,0.0,0.854,1
1.464374,0.708,0.703,0.161,-0.061,-0.305,0.793,1
1.471074,0.708,0.708,0.16,0.244,-0.488,0.854,1
1.480798,0.709,0.708,0.161,0.0,-0.305,0.549,1
1.488232,0.709,0.707,0.159,-0.244,-0.061,0.732,1
1.494875,0.705,0.71,0.157,0.061,-0.549,0.793,1
1.503901,0.712,0.711,0.159,0.061,-0.366,0.671,1
1.511677,0.71,0.714,0.157,0.305,-0.488,0.732,1
1.519182,0.711,0.715,0.159,0.061,-0.61,0.61,1
1.52695,0.711,0.718,0.162,0.366,-0.549,0.488,1
1.534809,0.708,0.713,0.161,0.366,-0.366,0.671,1
1.542827,0.708,0.715,0.167,0.366,-0.549,0.427,1
1.550374,0.708,0.712,0.166,0.61,-0.488,0.305,1
1.557888,0.71,0.713,0.166,0.671,-0.61,0.366,1
1.565987,0.704,0.716,0.167,0.366,-0.366,0.122,1
1.572849,0.704,0.717,0.166,0.122,-0.305,0.244,1
1.580319,0.703,0.711,0.165,0.061,-0.305,0.183,1
1.588739,0.706,0.716,0.169,-0.122,-0.183,0.122,1
1.597308,0.705,0.722,0.165,-0.061,-0.366,0.305,1
1.604355,0.704,0.719,0.162,-0.122,-0.305,0.0,1
1.612678,0.703,0.721,0.162,-0.183,-0.305,0.0,1
1.619287,0.708,0.723,0.164,0.0,-0.366,-0.183,1
1.628094,0.708,0.723,0.162,0.0,-0.366,-0.183,1
1.63494,0.707,0.72,0.161,0.061,-0.366,-0.427,1
1.643831,0.705,0.715,0.163,0.427,-0.488,-0.549,1
1.651576,0.705,0.719,0.167,0.305,-0.671,-0.549,1
1.659543,0.707,0.721,0.162,0.183,-0.305,-0.671,1
1.666471,0.7,0.718,0.165,0.061,-0.549,-0.915,1
1.674002,0.705,0.718,0.166,0.183,-0.305,-0.671,1
1.682941,0.7,0.719,0.164,0.183,-0.366,-0.671,1
1.690838,0.703,0.712,0.164,0.0,-0.183,-0.793,1
1.69797,0.706,0.716,0.162,-0.305,-0.427,-0.549,1
1.705966,0.705,0.718,0.16,-0.244,-0.183,-0.915,1
1.715053,0.704,0.717,0.155,-0.183,-0.305,-0.732,1
1.72281,0.704,0.716,0.161,-0.061,-0.183,-0.976,1
1.730366,0.708,0.717,0.162,0.061,-0.549,-1.037,1
1.739337,0.703,0.71,0.164,0.244,-0.427,-0.976,1
1.746578,0.703,0.706,0.164,0.061,-0.305,-1.098,1
1.753836,0.703,0.706,0.163,0.122,-0.366,-0.976,1
1.763039,0.706,0.708,0.166,0.305,-0.488,-1.159,1
1.770454,0.707,0.699,0.164,0.122,-0.366,-1.159,1
1.77779,0.704,0.7,0.163,0.061,-0.488,-1.037,1
1.787519,0.704,0.695,0.165,-0.061,-0.488,-0.976,1
1.794084,0.706,0.698,0.162,0.183,-0.488,-0.793,1
1.804236,0.707,0.698,0.159,-0.061,-0.305,-0.732,1
1.812365,0.704,0.701,0.163,0.061,-0.427,-0.549,1
1.818796,0.708,0.694,0.162,0.122,-0.305,-0.732,1
1.825895,0.702,0.7,0.162,0.488,-0.488,-0.488,1
1.834063,0.708,0.695,0.164,0.732,-0.549,-0.366,1
1.84217,0.707,0.697,0.168,0.793,-0.732,-0.244,1
1.850429,0.705,0.696,0.164,0.671,-0.61,-0.427,1
1.858513,0.706,0.699,0.161,0.732,-0.671,-0.305,1
1.865193,0.707,0.699,0.16,0.183,-0.61,-0.244,1
1.873332,0.707,0.701,0.159,0.0,-0.549,-0.366,1
1.881436,0.706,0.698,0.161,0.122,-0.671,-0.244,1
1.889586,0.707,0.693,0.163,0.183,-0.61,-0.122,1
1.897878,0.705,0.696,0.166,-0.061,-0.793,0.0,1
1.905793,0.705,0.698,0.162,0.183,-0.732,-0.061,1
1.914269,0.706,0.7,0.163,0.183,-0.549,0.061,1
1.920382,0.706,0.704,0.161,0.366,-0.793,0.122,1
1.929568,0.708,0.704,0.163,0.366,-0.61,0.122,1
1.936935,0.708,0.704,0.164,0.244,-0.732,-0.061,1
1.94629,0.708,0.705,0.163,0.061,-0.732,0.0,1
1.953306,0.708,0.71,0.163,-0.366,-0.732,0.061,1
1.962482,0.711,0.708,0.163,-0.488,-0.549,-0.061,1
1.969017,0.714,0.703,0.165,-0.61,-0.671,-0.122,1
1.976672,0.716,0.703,0.166,-0.488,-0.671,-0.061,1
1.985499,0.716,0.697,0.169,0.122,-0.671,0.0,1
1.992634,0.714,0.688,0.17,0.366,-0.427,0.0,1
2.000028,0.714,0.687,0.17,0.915,-0.427,0.183,1
2.0088,0.713,0.684,0.166,0.854,-0.549,0.244,1
2.01685,0.711,0.68,0.164,0.366,-0.183,0.244,1
2.023875,0.705,0.68,0.162,-0.183,-0.549,0.671,1
2.031392,0.707,0.682,0.16,-0.305,-0.488,1.037,1
2.039917,0.706,0.684,0.161,-0.183,-0.549,1.098,1
2.04892,0.704,0.686,0.162,-0.183,-0.488,0.976,1
2.055955,0.712,0.686,0.158,-0.366,-0.549,1.22,1
2.062939,0.718,0.681,0.155,-1.403,-0.671,1.281,1
2.071767,0.724,0.682,0.151,-2.014,-0.671,1.342,1
2.079253,0.729,0.685,0.151,-2.502,-0.61,1.464,1
2.086716,0.731,0.684,0.151,-2.746,-0.854,1.647,1
2.094383,0.727,0.682,0.15,-2.746,-0.671,1.647,1
2.103648,0.72,0.68,0.152,-3.173,-0.671,1.525,1
2.111736,0.719,0.684,0.151,-3.845,-0.671,1.586,1
2.118748,0.726,0.69,0.144,-4.638,-0.488,1.586,1
2.127554,0.72,0.694,0.138,-4.882,-0.732,1.586,1
2.135907,0.722,0.693,0.133,-3.784,-1.037,1.525,1
2.14274,0.722,0.696,0.124,-2.38,-1.831,1.464,1
2.152076,0.71,0.699,0.119,-0.793,-2.563,1.342,1
2.158996,0.698,0.699,0.118,0.915,-3.234,1.342,1
2.166333,0.688,0.699,0.116,3.479,-4.089,1.281,1
2.175158,0.687,0.691,0.127,5.92,-5.126,1.22,1
2.181731,0.672,0.687,0.146,7.69,-5.798,1.281,1
2.190645,0.665,0.679,0.16,9.582,-6.591,1.464,1
2.198767,0.651,0.679,0.198,13.366,-7.507,1.77,1
2.206131,0.642,0.678,0.228,18.127,-8.3,2.014,1
2.213705,0.613,0.688,0.265,24.597,-9.033,2.624,1
2.221175,0.603,0.707,0.304,30.944,-9.948,2.624,1
2.230216,0.599,0.721,0.356,38.574,-10.375,3.051,1
2.238276,0.583,0.731,0.417,46.081,-10.803,3.295,1
2.245517,0.582,0.73,0.479,50.231,-10.681,2.807,1
2.253445,0.604,0.729,0.572,51.818,-9.521,2.685,1
2.261722,0.626,0.726,0.646,52.307,-7.934,2.624,1
2.26891,0.646,0.717,0.717,52.429,-5.31,2.624,1
2.276431,0.659,0.712,0.78,52.978,-2.624,2.502,1
2.284683,0.665,0.708,0.848,52.673,0.854,2.502,1
2.291844,0.67,0.707,0.903,50.964,4.943,2.502,1
2.301284,0.687,0.714,0.964,48.889,8.972,2.563,1
2.308203,0.705,0.725,1.025,47.485,13.854,2.258,1
2.315677,0.683,0.732,1.084,46.813,18.432,2.075,1
2.323127,0.679,0.741,1.143,48.156,23.315,2.197,1
2.330814,0.667,0.753,1.197,51.452,28.198,2.197,1
2.338954,0.646,0.749,1.254,55.664,33.63,2.258,1
2.345416,0.627,0.743,1.298,59.57,39.367,2.563,1
2.354179,0.625,0.734,1.352,63.171,45.349,2.807,1
2.361894,0.613,0.714,1.394,65.673,51.879,3.112,1
2.36901,0.594,0.708,1.439,67.077,58.715,3.845,1
2.37785,0.567,0.7,1.466,69.274,65.551,4.821,1
2.384864,0.544,0.695,1.485,70.617,72.631,6.042,1
2.391466,0.496,0.705,1.518,72.387,79.284,7.202,1
2.400086,0.469,0.722,1.54,75.744,86.425,8.422,1
2.406912,0.434,0.734,1.562,80.078,93.749,9.765,1
2.41434,0.39,0.749,1.57,83.374,101.196,10.925,1
2.421135,0.361,0.766,1.57,85.998,109.008,12.451,1
2.42997,0.327,0.783,1.558,87.341,116.76,13.671,1
2.43634,0.288,0.805,1.545,87.219,124.633,14.892,1
2.443382,0.253,0.824,1.53,87.036,130.798,15.747,1
2.451937,0.213,0.845,1.512,86.914,138.488,16.662,1
2.458394,0.172,0.864,1.489,87.829,146.179,17.456,1
2.466919,0.122,0.882,1.463,89.05,153.137,18.371,1
2.474977,0.065,0.924,1.437,90.393,160.339,19.226,1
2.481895,0.019,0.967,1.411,92.529,167.297,19.714,1
2.489245,-0.032,1.015,1.392,95.886,173.95,20.263,1
2.498133,-0.083,1.08,1.379,100.891,180.603,20.874,1
2.50509,-0.146,1.138,1.349,107.849,188.476,20.996,1
2.513806,-0.208,1.191,1.306,110.534,195.495,21.057,1
2.521096,-0.249,1.233,1.267,111.022,202.514,20.935,1
2.527912,-0.302,1.291,1.208,107.849,209.045,20.446,1
2.536737,-0.328,1.333,1.169,107.482,216.247,19.653,1
2.54423,-0.375,1.379,1.088,106.384,223.205,18.615,1
2.552917,-0.412,1.419,1.011,103.027,230.468,16.906,1
2.56078,-0.439,1.447,0.943,100.952,236.389,15.075,1
2.569543,-0.519,1.45,0.842,99.975,243.286,12.939,1
2.57713,-0.573,1.428,0.741,99.182,248.84,11.108,1
2.583901,-0.613,1.387,0.598,95.764,254.333,9.887,1
2.591454,-0.654,1.379,0.449,89.172,258.3,8.056,1
2.599029,-0.706,1.366,0.308,86.73,261.657,6.591,1
2.606752,-0.759,1.333,0.135,91.735,263.671,5.249,1
2.615939,-0.81,1.299,-0.011,98.815,264.526,4.577,1
2.622807,-0.865,1.28,-0.162,102.478,264.099,4.455,1
2.632055,-0.863,1.24,-0.337,100.891,263.977,4.882,1
2.63883,-0.877,1.219,-0.529,96.313,261.901,4.699,1
2.646649,-0.874,1.211,-0.675,96.313,259.704,4.943,1
2.655901,-0.905,1.216,-0.865,93.383,257.446,5.126,1
2.662891,-0.839,1.224,-1.097,85.388,251.342,4.15,1
2.670528,-0.796,1.197,-1.299,72.753,246.093,3.051,1
2.679914,-0.73,1.183,-1.481,62.133,237.67,1.525,1
2.687398,-0.619,1.156,-1.695,60.119,229.492,0.122,1
2.696256,-0.534,1.105,-1.844,56.213,216.735,-1.464,1
2.704196,-0.428,1.065,-1.944,56.518,205.871,-2.014,1
2.711338,-0.285,1.043,-2.075,61.523,190.917,-2.929,1
2.718844,-0.158,1.002,-2.155,63.659,178.344,-2.868,1
2.726678,-0.037,0.966,-2.238,58.166,165.466,-2.868,1
2.735614,0.093,0.942,-2.264,51.94,152.771,-2.746,1
2.744275,0.239,0.92,-2.251,47.851,138.122,-2.319,1
2.750829,0.336,0.884,-2.208,45.837,126.403,-1.831,1
2.759543,0.432,0.832,-2.131,41.687,114.807,-1.159,1
2.767188,0.494,0.798,-2.036,38.024,103.332,-0.305,1
2.774554,0.54,0.797,-1.946,40.588,94.116,0.366,1
2.781956,0.569,0.805,-1.877,43.518,85.327,1.403,1
2.789947,0.571,0.806,-1.815,39.733,77.331,2.014,1
2.797856,0.569,0.812,-1.744,32.043,70.19,2.197,1
2.807237,0.562,0.814,-1.699,24.78,62.194,2.075,1
2.813456,0.553,0.806,-1.657,19.897,55.236,1.77,1
2.82191,0.539,0.777,-1.634,13.854,48.461,1.342,1
2.829833,0.525,0.735,-1.602,6.774,41.87,0.854,1
2.838704,0.529,0.703,-1.561,1.464,33.813,0.671,1
2.846701,0.539,0.699,-1.505,2.197,26.916,0.854,1
2.8534,0.533,0.697,-1.44,4.76,19.592,1.403,1
2.861922,0.543,0.682,-1.355,5.859,13.366,1.647,1
2.868757,0.54,0.681,-1.277,3.845,7.08,1.892,1
2.876487,0.52,0.681,-1.196,4.333,1.892,2.075,1
2.885207,0.531,0.671,-1.1,6.286,-3.601,2.319,1
2.892509,0.536,0.662,-0.994,9.521,-9.155,2.319,1
2.901328,0.545,0.662,-0.895,10.253,-12.451,2.624,1
2.9086,0.563,0.665,-0.806,7.324,-14.648,2.685,1
2.916176,0.588,0.686,-0.742,2.624,-16.601,2.746,1
2.923558,0.616,0.706,-0.677,-0.061,-18.005,2.807,1
2.932626,0.637,0.728,-0.615,-2.929,-19.226,2.441,1
2.939884,0.656,0.753,-0.534,-6.469,-19.897,2.014,1
2.949093,0.672,0.766,-0.474,-9.277,-20.08,1.525,1
2.955906,0.673,0.773,-0.418,-11.657,-19.592,0.732,1
2.965231,0.666,0.777,-0.367,-12.023,-19.348,0.0,1
2.973079,0.66,0.761,-0.329,-11.413,-18.676,-0.671,1
2.981634,0.645,0.756,-0.3,-10.253,-17.7,-0.915,1
2.988903,0.626,0.754,-0.282,-9.094,-17.15,-1.22,1
2.997923,0.612,0.755,-0.262,-7.873,-16.601,-1.281,1
3.005966,0.598,0.748,-0.25,-7.568,-15.563,-1.464,1
3.01452,0.581,0.744,-0.24,-7.263,-15.136,-1.281,1
3.022416,0.572,0.736,-0.228,-6.53,-14.404,-1.403,1
3.031021,0.562,0.722,-0.229,-6.103,-13.488,-1.159,1
3.039027,0.562,0.707,-0.227,-6.103,-12.878,-0.976,1
3.045996,0.562,0.704,-0.227,-6.103,-12.268,-0.549,1
3.054596,0.566,0.693,-0.214,-6.408,-11.596,-0.671,1
3.063443,0.574,0.687,-0.21,-6.896,-11.047,-0.427,1
3.07082,0.582,0.674,-0.206,-7.568,-10.009,0.061,1
3.079935,0.592,0.676,-0.224,-9.216,-9.033,0.305,1
3.08688,0.607,0.685,-0.24,-11.047,-8.3,0.549,1
3.095967,0.629,0.694,-0.249,-11.291,-7.934,0.671,1
3.10275,0.643,0.707,-0.259,-11.596,-7.751,0.671,1
3.111963,0.655,0.712,-0.256,-11.779,-7.385,0.732,1
3.119669,0.668,0.723,-0.257,-12.145,-6.774,0.488,1
3.126891,0.675,0.731,-0.257,-12.878,-6.469,0.183,1
3.136074,0.676,0.742,-0.258,-12.145,-6.103,-0.061,1
3.143189,0.673,0.747,-0.267,-10.925,-5.859,-0.427,1
3.151579,0.668,0.745,-0.267,-9.704,-5.676,-0.793,1
3.159985,0.666,0.738,-0.272,-8.789,-5.187,-1.159,1
3.16702,0.66,0.735,-0.281,-7.751,-4.943,-1.647,1
3.175342,0.65,0.721,-0.285,-6.591,-4.821,-1.647,1
3.182595,0.649,0.712,-0.289,-5.126,-4.699,-1.953,1
3.19102,0.646,0.708,-0.282,-4.455,-4.516,-1.953,1
3.19794,0.642,0.704,-0.276,-3.784,-4.394,-1.892,1
3.206721,0.639,0.702,-0.273,-3.784,-3.784,-1.708,1
3.215094,0.63,0.708,-0.269,-5.065,-3.295,-1.342,1
3.221879,0.626,0.709,-0.267,-5.126,-2.99,-1.525,1
3.229997,0.623,0.708,-0.264,-4.638,-2.868,-1.342,1
3.237778,0.624,0.707,-0.262,-4.333,-2.38,-1.342,1
3.246377,0.623,0.703,-0.252,-4.089,-1.647,-1.22,1
3.254965,0.623,0.712,-0.252,-3.295,-1.281,-0.915,1
3.263561,0.617,0.709,-0.256,-3.356,-0.488,-1.037,1
3.270706,0.62,0.711,-0.258,-3.234,-0.061,-1.098,1
3.279936,0.621,0.71,-0.258,-3.479,0.366,-0.976,1
3.287375,0.619,0.71,-0.257,-3.845,1.098,-1.098,1
3.296106,0.618,0.71,-0.264,-3.662,1.342,-1.098,1
3.303852,0.625,0.706,-0.272,-3.234,1.708,-1.098,1
3.311683,0.627,0.699,-0.278,-3.112,2.136,-0.976,1
3.319204,0.635,0.694,-0.279,-3.051,2.197,-1.098,1
3.328522,0.639,0.696,-0.279,-3.295,2.929,-0.915,1
3.335318,0.636,0.69,-0.286,-3.54,3.295,-1.098,1
3.343732,0.638,0.687,-0.297,-4.15,3.845,-0.671,1
3.353268,0.641,0.687,-0.3,-4.028,3.906,-0.793,1
3.361859,0.64,0.685,-0.302,-4.028,4.15,-0.732,1
3.369393,0.635,0.684,-0.313,-5.187,4.699,-0.671,1
3.377661,0.635,0.688,-0.328,-5.92,4.76,-0.427,1
3.384434,0.627,0.692,-0.343,-5.493,5.065,-0.183,1
3.393561,0.626,0.691,-0.36,-4.089,4.943,-0.305,1
3.400597,0.629,0.688,-0.379,-2.441,4.516,-0.183,1
3.409627,0.632,0.684,-0.393,-2.563,4.15,0.0,1
3.416659,0.64,0.685,-0.403,-3.173,3.845,0.0,1
3.424806,0.623,0.688,-0.404,-2.807,3.54,0.122,1
3.43262,0.639,0.681,-0.404,-3.479,2.99,0.427,1
3.441177,0.636,0.69,-0.405,-4.638,2.502,0.427,1
3.450161,0.639,0.695,-0.411,-4.394,2.258,0.244,1
3.456948,0.642,0.696,-0.41,-3.845,1.525,0.183,1
3.466376,0.638,0.686,-0.421,-3.479,1.159,0.305,1
3.47292,0.637,0.68,-0.426,-2.868,0.915,-0.061,1
3.480767,0.646,0.671,-0.431,-2.38,0.183,0.183,1
3.488813,0.634,0.669,-0.43,-1.098,-0.305,0.366,1
3.497694,0.642,0.662,-0.433,-1.586,-0.671,0.671,1
3.504967,0.64,0.668,-0.428,-1.159,-1.464,0.671,1
3.512464,0.639,0.67,-0.419,-0.671,-1.831,1.403,1
3.521761,0.64,0.668,-0.415,-1.037,-2.319,1.403,1
3.528878,0.641,0.671,-0.408,-1.525,-2.746,1.342,1
3.538267,0.638,0.672,-0.407,-3.234,-3.051,1.647,1
3.546498,0.629,0.671,-0.399,-3.784,-3.417,1.708,1
3.554403,0.628,0.675,-0.392,-3.662,-3.662,1.892,1
3.562296,0.625,0.67,-0.389,-3.662,-3.784,2.136,1
3.569302,0.624,0.68,-0.38,-2.685,-4.028,2.136,1
3.578546,0.623,0.681,-0.375,-2.075,-4.394,2.563,1
3.58657,0.622,0.681,-0.369,-1.953,-4.333,2.624,1
3.594228,0.621,0.682,-0.363,-2.746,-4.394,2.807,1
3.603117,0.62,0.679,-0.36,-4.821,-4.15,2.746,1
3.610391,0.626,0.675,-0.358,-8.422,-3.723,2.746,1
3.617967,0.637,0.675,-0.359,-12.268,-3.356,2.929,1
3.626681,0.611,0.676,-0.352,-15.258,-3.295,2.929,1
3.634039,0.617,0.681,-0.353,-16.296,-2.99,3.295,1
3.643521,0.624,0.683,-0.351,-13.671,-3.295,3.479,1
3.652167,0.623,0.696,-0.348,-9.216,-3.784,3.662,1
3.658507,0.634,0.7,-0.344,-4.272,-4.211,3.784,1
3.668499,0.63,0.702,-0.344,-2.075,-4.394,3.784,1
3.675486,0.636,0.705,-0.338,-1.831,-4.15,3.967,1
3.684135,0.632,0.713,-0.34,-2.075,-3.906,3.845,1
3.690976,0.636,0.714,-0.343,-2.685,-3.662,3.601,1
3.700063,0.636,0.721,-0.343,-3.784,-3.723,3.723,1
3.707197,0.634,0.726,-0.347,-4.516,-3.479,3.54,1
3.716253,0.634,0.727,-0.351,-4.943,-3.54,2.99,1
3.722896,0.632,0.73,-0.346,-4.76,-3.601,2.868,1
3.732261,0.628,0.732,-0.341,-4.272,-3.784,2.502,1
3.739433,0.63,0.729,-0.336,-3.417,-3.967,2.319,1
3.748131,0.63,0.724,-0.326,-3.417,-3.662,2.075,1
3.755582,0.631,0.719,-0.318,-3.112,-3.479,2.136,1
3.764666,0.624,0.723,-0.317,-2.319,-3.173,2.014,1
3.772369,0.636,0.727,-0.317,-1.892,-2.99,2.136,1
3.779353,0.636,0.735,-0.318,-0.854,-2.746,1.892,1
3.788378,0.637,0.743,-0.321,-0.549,-2.502,1.708,1
3.795544,0.634,0.741,-0.319,-0.793,-2.38,1.403,1
3.804979,0.64,0.739,-0.322,-1.22,-1.831,1.098,1
3.812241,0.635,0.742,-0.326,-1.037,-1.831,0.732,1
3.821049,0.634,0.735,-0.333,-1.159,-1.586,0.61,1
3.828373,0.637,0.734,-0.335,-1.403,-1.525,0.305,1
3.836299,0.638,0.729,-0.339,-1.953,-1.525,0.0,1
3.845137,0.633,0.732,-0.335,-2.136,-1.586,-0.122,1
3.851417,0.631,0.728,-0.341,-2.685,-1.281,-0.427,1
3.860057,0.634,0.725,-0.33,-2.99,-1.342,-0.488,1
3.868793,0.632,0.727,-0.326,-2.502,-0.915,-0.793,1
3.876651,0.63,0.719,-0.326,-2.99,-0.854,-0.854,1
3.884644,0.631,0.715,-0.319,-2.136,-0.549,-1.159,1
3.892966,0.634,0.712,-0.319,-0.793,-0.427,-1.037,1
3.901279,0.632,0.708,-0.323,-0.366,0.0,-1.037,1
3.909255,0.637,0.707,-0.324,-0.732,0.122,-1.22,1
3.918327,0.636,0.707,-0.329,-0.366,0.122,-1.281,1
3.925761,0.639,0.705,-0.332,0.0,0.488,-1.281,1
3.932774,0.636,0.699,-0.341,0.0,0.427,-1.464,1
3.941584,0.637,0.704,-0.341,-0.732,0.671,-1.464,1
3.948661,0.629,0.695,-0.349,-0.976,0.61,-1.403,1
3.957694,0.627,0.694,-0.346,-1.159,0.732,-1.464,1
3.965743,0.633,0.686,-0.353,-1.464,0.671,-1.464,1
3.974037,0.625,0.68,-0.351,-2.136,0.732,-1.342,1
3.980312,0.622,0.676,-0.346,-2.075,0.915,-1.342,1
3.988487,0.633,0.677,-0.344,-1.342,0.549,-1.159,1
3.997738,0.628,0.677,-0.341,-0.732,0.671,-0.915,1
4.004735,0.627,0.678,-0.335,-0.183,0.976,-0.732,1
4.013743,0.628,0.678,-0.339,0.732,0.976,-0.366,1
4.020265,0.622,0.675,-0.346,1.037,1.098,-0.427,1
4.02802,0.622,0.674,-0.348,0.915,1.647,-0.122,1
4.0367,0.623,0.678,-0.355,0.549,1.586,0.061,1
4.043769,0.623,0.671,-0.36,-0.366,1.647,0.427,1
4.052573,0.623,0.674,-0.365,-1.403,1.831,0.366,1
4.0594,0.625,0.675,-0.372,-1.464,1.708,0.366,1
4.067626,0.631,0.682,-0.374,-1.098,1.77,0.488,1
4.075294,0.628,0.68,-0.376,-1.342,1.464,0.488,1
4.082965,0.634,0.682,-0.378,-1.22,1.159,0.671,1
4.092078,0.635,0.686,-0.379,-0.793,1.281,0.549,1
4.099971,0.634,0.692,-0.378,-0.244,1.037,0.854,1
4.107304,0.635,0.689,-0.375,0.305,0.976,0.671,1
4.115968,0.633,0.687,-0.373,0.793,0.915,0.976,1
4.123136,0.633,0.687,-0.37,1.159,0.61,1.281,1
4.130635,0.629,0.683,-0.369,1.342,0.854,1.22,1
4.139511,0.627,0.689,-0.37,1.22,0.61,1.22,1
4.146729,0.624,0.686,-0.367,1.037,0.732,1.403,1
4.154232,0.624,0.691,-0.368,0.427,0.793,1.403,1
4.161988,0.621,0.696,-0.37,0.244,0.671,1.281,1
4.171153,0.622,0.698,-0.37,-0.671,0.732,1.159,1
4.178254,0.618,0.701,-0.371,-0.366,0.427,1.281,1
4.188623,0.625,0.703,-0.37,0.061,0.305,1.159,1
4.194231,0.629,0.696,-0.37,0.549,0.183,1.281,1
4.203208,0.619,0.697,-0.369,1.159,0.183,1.281,1
4.211528,0.629,0.7,-0.367,1.281,0.183,1.342,1
4.218801,0.632,0.698,-0.37,1.159,0.061,1.037,1
4.225513,0.638,0.708,-0.364,1.22,0.061,1.403,1
4.234913,0.634,0.716,-0.36,1.342,0.0,1.342,1
4.242543,0.636,0.721,-0.364,1.098,-0.061,1.159,1
4.250437,0.63,0.722,-0.36,0.427,0.122,0.915,1
4.259293,0.628,0.72,-0.364,-0.061,-0.061,0.732,1
4.266319,0.626,0.73,-0.363,-0.305,0.061,0.61,1
4.274131,0.625,0.732,-0.367,-0.122,-0.244,0.305,1
4.283209,0.622,0.728,-0.372,0.122,-0.244,0.366,1
4.290344,0.624,0.73,-0.369,0.061,-0.305,0.061,1
4.299485,0.625,0.729,-0.366,0.366,-0.488,-0.061,1
4.306684,0.625,0.724,-0.361,0.488,-0.366,-0.366,1
4.316144,0.625,0.721,-0.355,0.488,-0.549,-0.366,1
4.32326,0.627,0.72,-0.352,0.061,-0.122,-0.793,1
4.331093,0.632,0.717,-0.353,-0.061,-0.366,-0.671,1
4.338619,0.636,0.715,-0.354,0.732,-0.061,-0.732,1
4.348035,0.633,0.717,-0.354,0.61,0.0,-0.915,1
4.356519,0.632,0.718,-0.354,0.427,0.183,-1.037,1
4.363735,0.629,0.716,-0.354,-0.244,0.183,-1.159,1
4.371645,0.625,0.709,-0.35,-0.976,0.0,-1.037,1
4.380315,0.621,0.708,-0.348,-1.525,0.366,-1.464,1
4.387647,0.617,0.703,-0.353,-2.258,0.488,-1.403,1
4.39642,0.619,0.705,-0.351,-1.647,0.671,-1.342,1
4.404056,0.62,0.704,-0.347,-1.037,0.305,-1.586,1
4.413082,0.618,0.7,-0.344,-0.854,0.61,-1.647,1
4.420462,0.62,0.701,-0.341,-0.915,0.793,-1.281,1
4.427209,0.625,0.695,-0.348,-1.159,0.793,-1.281,1
4.436604,0.624,0.692,-0.355,-1.22,0.854,-1.159,1
4.445001,0.627,0.691,-0.359,-0.976,0.854,-1.159,1
4.453272,0.63,0.688,-0.366,-0.671,0.793,-1.159,1
4.460597,0.628,0.689,-0.363,-0.488,0.976,-1.159,1
4.468407,0.634,0.687,-0.36,0.0,0.793,-0.671,1
4.47649,0.632,0.689,-0.359,0.122,0.671,-0.732,1
4.48329,0.631,0.693,-0.358,-0.671,0.793,-0.793,1
4.49213,0.628,0.693,-0.357,-1.403,0.976,-0.61,1
4.498981,0.633,0.698,-0.36,-1.77,1.281,-0.915,1
4.507208,0.63,0.697,-0.368,-1.525,1.281,-0.854,1
4.515755,0.628,0.692,-0.371,-1.098,1.281,-0.915,1
4.522983,0.637,0.687,-0.372,-0.427,1.22,-0.976,1
4.532567,0.637,0.689,-0.379,-0.488,0.976,-0.976,1
4.539879,0.647,0.685,-0.382,0.305,0.793,-0.854,1
4.548185,0.638,0.69,-0.381,1.586,0.549,-0.671,1
4.55534,0.645,0.689,-0.38,1.77,0.183,-0.793,1
4.562971,0.636,0.691,-0.377,0.854,0.122,-0.732,1
4.571817,0.634,0.691,-0.374,0.183,0.183,-0.671,1
4.579097,0.625,0.695,-0.367,-0.427,0.366,-0.793,1
4.588423,0.625,0.692,-0.361,-0.793,0.305,-0.488,1
4.595973,0.619,0.693,-0.36,-0.671,0.244,-0.61,1
4.603729,0.627,0.697,-0.354,-0.183,0.0,-0.549,1
4.611215,0.624,0.702,-0.351,0.549,0.244,-0.488,1
4.619693,0.621,0.703,-0.347,1.159,0.366,-0.549,1
4.627163,0.625,0.701,-0.341,1.159,0.427,-0.305,1
4.634952,0.624,0.7,-0.345,0.854,0.488,-0.549,1
4.64379,0.62,0.693,-0.344,0.61,0.976,-0.671,1
4.652217,0.629,0.688,-0.346,0.183,1.037,-0.61,1
4.659541,0.63,0.687,-0.345,-0.427,1.159,-0.427,1
4.66693,0.637,0.685,-0.35,-0.976,1.342,-0.305,1
4.6761,0.637,0.686,-0.344,-0.549,1.464,-0.244,1
4.683376,0.633,0.688,-0.347,-0.244,1.586,-0.549,1
4.691207,0.633,0.687,-0.347,-0.305,1.647,-0.244,1
4.69943,0.629,0.689,-0.346,0.305,1.708,-0.183,1
4.706912,0.624,0.691,-0.345,0.549,1.831,0.061,1
4.715914,0.622,0.697,-0.351,0.122,2.136,-0.244,1
4.723682,0.618,0.696,-0.354,-0.061,2.197,-0.183,1
4.730921,0.616,0.7,-0.363,0.122,2.075,-0.061,1
4.740024,0.614,0.699,-0.364,0.488,2.014,-0.305,1
4.746973,0.621,0.697,-0.364,0.549,2.075,-0.366,1
4.754795,0.625,0.699,-0.367,0.366,2.075,-0.244,1
4.764118,0.628,0.701,-0.375,0.061,1.953,-0.488,1
4.771663,0.624,0.699,-0.37,-0.61,2.197,-0.244,1
4.780613,0.628,0.703,-0.37,-0.854,2.197,-0.366,1
4.787624,0.626,0.699,-0.378,-1.037,2.136,-0.488,1
4.794327,0.625,0.699,-0.379,-0.671,2.075,-0.305,1
4.8031,0.628,0.696,-0.378,-0.061,1.77,-0.305,1
4.810674,0.629,0.688,-0.381,0.549,1.77,-0.122,1
4.818299,0.629,0.691,-0.378,0.915,1.831,0.0,1
4.82592,0.629,0.695,-0.381,0.671,1.831,0.0,1
4.833921,0.628,0.702,-0.387,0.061,1.708,0.0,1
4.842523,0.626,0.704,-0.387,-0.671,1.708,-0.061,1
4.850923,0.626,0.707,-0.393,-0.671,1.464,-0.183,1
4.859861,0.624,0.707,-0.392,-0.549,1.22,-0.488,1
4.866415,0.624,0.708,-0.397,-0.427,0.732,-0.427,1
4.875095,0.623,0.702,-0.395,-0.183,0.976,-0.305,1
4.8821,0.626,0.696,-0.393,-0.305,0.366,-0.549,1
4.890221,0.624,0.695,-0.385,-0.183,0.305,-0.671,1
4.899408,0.625,0.693,-0.378,-0.061,0.183,-0.61,1
4.907891,0.625,0.694,-0.378,-0.061,0.244,-0.854,1
4.91507,0.624,0.688,-0.371,-0.305,0.305,-0.671,1
4.922351,0.624,0.69,-0.363,0.427,0.488,-0.61,1
4.931158,0.629,0.686,-0.365,1.159,0.183,-0.305,1
4.937731,0.624,0.687,-0.365,0.793,0.122,-0.427,1
4.94605,0.63,0.687,-0.368,0.549,0.488,-0.366,1
4.953516,0.632,0.683,-0.374,0.549,0.366,-0.305,1
4.961132,0.634,0.679,-0.372,0.366,0.305,-0.305,1
4.970483,0.638,0.686,-0.376,0.061,0.305,0.0,1
4.977843,0.636,0.687,-0.375,-0.366,0.061,-0.122,1
4.988087,0.631,0.69,-0.366,-0.427,0.122,0.061,1
4.994976,0.625,0.69,-0.364,-0.244,-0.122,0.305,1
5.002644,0.621,0.686,-0.353,-0.366,0.183,-0.122,1
5.011219,0.616,0.679,-0.348,-0.122,0.61,-0.061,1
5.018671,0.606,0.67,-0.343,-0.488,1.098,0.061,1
5.026338,0.6,0.669,-0.35,-1.22,1.22,0.366,1
5.033869,0.594,0.667,-0.354,-1.953,1.77,0.305,1
5.042314,0.59,0.655,-0.359,-2.685,2.258,0.366,1
5.04988,0.579,0.638,-0.363,-4.028,2.746,0.671,1
5.058353,0.567,0.617,-0.37,-4.272,3.479,0.915,1
5.065293,0.572,0.589,-0.395,-5.615,4.699,1.525,1
5.073125,0.561,0.559,-0.441,-9.094,5.554,2.197,1
5.082394,0.555,0.521,-0.489,-14.953,6.286,3.295,1
5.089381,0.543,0.516,-0.536,-19.714,6.53,4.882,1
5.097387,0.557,0.529,-0.573,-21.911,6.408,6.774,1
5.105367,0.531,0.548,-0.616,-20.324,5.676,8.239,1
5.112789,0.497,0.562,-0.654,-18.615,4.394,9.582,1
5.1221,0.457,0.57,-0.699,-17.15,2.807,10.925,1
5.129585,0.416,0.566,-0.752,-16.906,1.342,12.023,1
5.138444,0.368,0.547,-0.819,-17.15,-0.671,12.939,1
5.145516,0.332,0.517,-0.886,-18.31,-2.624,14.282,1
5.153963,0.312,0.483,-0.969,-21.179,-4.821,15.686,1
5.16127,0.285,0.456,-1.068,-26.367,-8.239,17.639,1
5.169724,0.282,0.43,-1.155,-31.616,-11.84,19.47,1
5.178806,0.27,0.403,-1.26,-37.597,-15.441,21.667,1
5.185497,0.285,0.387,-1.359,-44.128,-20.263,24.353,1
5.194777,0.284,0.375,-1.443,-49.377,-25.756,27.16,1
5.20294,0.278,0.367,-1.524,-53.161,-32.897,30.761,1
5.211866,0.274,0.357,-1.583,-54.077,-39.672,33.813,1
5.218772,0.262,0.349,-1.621,-53.466,-48.889,37.658,1
5.226796,0.251,0.338,-1.645,-52.551,-56.823,41.564,1
5.23558,0.253,0.332,-1.656,-52.551,-65.734,45.898,1
5.242538,0.244,0.333,-1.665,-55.541,-73.608,49.194,1
5.25087,0.265,0.365,-1.66,-59.265,-81.481,52.917,1
5.260267,0.265,0.392,-1.651,-63.232,-90.209,56.579,1
5.267603,0.284,0.42,-1.64,-67.871,-97.778,59.997,1
5.274295,0.282,0.46,-1.618,-71.96,-105.224,63.11,1
5.28276,0.297,0.499,-1.602,-76.904,-112.06,66.101,1
5.289526,0.308,0.549,-1.589,-82.885,-118.774,68.969,1
5.297113,0.312,0.592,-1.581,-87.829,-126.281,71.899,1
5.305305,0.311,0.654,-1.555,-89.965,-133.972,74.401,1
5.314006,0.298,0.697,-1.535,-89.843,-141.235,76.721,1
5.321819,0.275,0.777,-1.505,-90.759,-149.597,78.979,1
5.329707,0.223,0.856,-1.469,-92.224,-156.433,80.627,1
5.338687,0.175,0.933,-1.436,-92.712,-164.367,81.298,1
5.345496,0.105,0.99,-1.381,-91.186,-170.959,81.604,1
5.354397,0.009,1.058,-1.309,-88.317,-177.734,81.176,1
5.361732,-0.06,1.1,-1.256,-87.829,-183.044,80.627,1
5.370364,-0.142,1.16,-1.188,-87.219,-188.72,79.284,1
5.379302,-0.231,1.223,-1.125,-87.341,-193.481,77.697,1
5.388503,-0.307,1.27,-1.06,-87.097,-198.242,75.378,1
5.395186,-0.375,1.301,-0.983,-86.425,-202.636,72.814,1
5.405175,-0.427,1.312,-0.92,-86.791,-205.871,70.678,1
5.412038,-0.469,1.311,-0.831,-88.012,-209.289,68.542,1
5.420686,-0.501,1.311,-0.753,-87.097,-211.486,66.894,1
5.429247,-0.522,1.31,-0.656,-85.51,-213.562,65.673,1
5.437386,-0.53,1.317,-0.572,-84.35,-215.148,64.453,1
5.444588,-0.552,1.336,-0.496,-84.96,-215.637,63.354,1
5.453193,-0.557,1.35,-0.437,-87.768,-215.759,62.316,1
5.461159,-0.546,1.367,-0.361,-91.369,-215.026,61.401,1
5.468939,-0.531,1.387,-0.309,-95.703,-213.989,60.607,1
5.478269,-0.505,1.41,-0.26,-96.557,-212.829,59.875,1
5.485459,-0.476,1.442,-0.215,-93.627,-211.791,58.898,1
5.493866,-0.434,1.471,-0.18,-87.89,-210.815,57.861,1
5.501434,-0.411,1.495,-0.163,-78.125,-210.449,55.908,1
5.509091,-0.397,1.507,-0.157,-70.556,-210.083,53.894,1
5.517908,-0.376,1.505,-0.168,-68.847,-209.838,51.208,1
5.525702,-0.345,1.524,-0.174,-72.631,-209.167,48.095,1
5.533836,-0.339,1.537,-0.176,-75.988,-208.862,45.41,1
5.54246,-0.331,1.546,-0.179,-77.331,-208.984,42.419,1
5.549756,-0.332,1.561,-0.165,-76.171,-209.96,39.428,1
5.557419,-0.333,1.576,-0.148,-73.486,-210.815,36.499,1
5.565797,-0.324,1.599,-0.114,-69.03,-211.181,33.691,1
5.573839,-0.324,1.621,-0.087,-62.011,-211.914,29.602,1
5.581454,-0.321,1.619,-0.062,-57.128,-212.036,25.329,1
5.590335,-0.32,1.614,-0.032,-55.175,-211.853,21.667,1
5.597242,-0.323,1.598,0.007,-56.03,-210.998,17.15,1
5.606481,-0.324,1.589,0.03,-59.936,-209.838,13.366,1
5.614199,-0.301,1.578,0.067,-65.185,-208.618,9.948,1
5.622032,-0.297,1.562,0.092,-67.626,-206.603,6.042,1
5.630409,-0.272,1.548,0.12,-67.443,-205.566,2.929,1
5.638908,-0.265,1.531,0.152,-64.331,-204.223,-0.427,1
5.647386,-0.265,1.517,0.177,-60.058,-202.758,-3.906,1
5.655811,-0.272,1.501,0.189,-58.532,-201.538,-6.774,1
5.663909,-0.29,1.491,0.216,-58.654,-200.683,-10.131,1
5.672606,-0.288,1.502,0.256,-60.668,-199.89,-12.756,1
5.68069,-0.289,1.52,0.309,-64.453,-198.303,-15.319,1
5.689394,-0.26,1.549,0.395,-64.514,-197.509,-18.249,1
5.696402,-0.232,1.559,0.489,-62.255,-195.373,-21.728,1
5.704707,-0.206,1.554,0.577,-56.518,-193.237,-25.146,1
5.713116,-0.149,1.536,0.675,-49.011,-189.453,-29.479,1
5.721574,-0.112,1.501,0.734,-45.41,-185.729,-33.325,1
5.730525,-0.09,1.456,0.792,-45.776,-180.358,-37.353,1
5.737395,-0.059,1.415,0.834,-48.828,-176.086,-40.405,1
5.745797,-0.033,1.377,0.905,-47.729,-170.593,-43.762,1
5.75342,0.017,1.325,0.949,-44.311,-166.259,-46.325,1
5.7617,0.062,1.266,1.012,-38.513,-162.17,-48.767,1
5.770794,0.097,1.209,1.06,-32.897,-156.494,-51.147,1
5.778319,0.119,1.162,1.128,-32.714,-151.367,-52.978,1
5.786123,0.16,1.125,1.202,-30.395,-144.775,-54.931,1
5.794578,0.198,1.085,1.265,-26.794,-138.549,-56.64,1
5.80364,0.232,1.033,1.319,-23.803,-131.225,-58.41,1
5.810707,0.245,0.986,1.365,-24.108,-124.084,-59.631,1
5.819801,0.28,0.937,1.393,-27.648,-115.966,-60.791,1
5.828484,0.303,0.896,1.423,-28.93,-108.825,-61.279,1
5.835242,0.33,0.844,1.457,-26.123,-100.708,-61.645,1
5.843078,0.361,0.785,1.464,-22.155,-94.055,-61.889,1
5.851511,0.379,0.739,1.471,-17.883,-87.402,-61.767,1
5.85907,0.396,0.685,1.47,-15.808,-78.979,-61.706,1
5.867834,0.418,0.644,1.455,-14.587,-72.021,-60.974,1
5.875903,0.437,0.605,1.428,-13.0,-65.246,-60.485,1
5.883581,0.459,0.552,1.404,-13.305,-57.678,-59.692,1
5.892873,0.498,0.503,1.374,-16.357,-50.903,-58.654,1
5.899928,0.535,0.456,1.342,-20.202,-43.762,-56.762,1
5.907976,0.554,0.416,1.316,-21.545,-37.658,-55.114,1
5.915697,0.577,0.379,1.284,-21.728,-31.799,-52.978,1
5.923412,0.603,0.328,1.241,-21.911,-26.428,-50.964,1
5.932512,0.623,0.296,1.195,-21.24,-20.202,-47.851,1
5.941021,0.642,0.258,1.151,-19.592,-15.319,-44.86,1
5.947871,0.647,0.229,1.088,-17.333,-9.765,-41.564,1
5.95568,0.661,0.208,1.024,-15.441,-5.493,-38.33,1
5.964266,0.661,0.191,0.947,-13.916,-1.892,-35.156,1
5.971513,0.656,0.192,0.871,-13.244,2.746,-31.494,1
5.979253,0.653,0.196,0.796,-12.756,5.432,-28.076,1
5.987002,0.652,0.206,0.721,-11.901,7.934,-25.207,1
5.994624,0.65,0.209,0.655,-10.742,9.643,-22.338,1
6.003333,0.648,0.222,0.598,-9.948,10.986,-19.653,1
6.010514,0.652,0.226,0.553,-8.3,11.962,-17.089,1
6.018187,0.651,0.237,0.504,-6.774,13.183,-14.099,1
6.027433,0.655,0.243,0.468,-6.774,13.854,-11.413,1
6.034461,0.663,0.252,0.437,-7.08,14.831,-9.094,1
6.042265,0.67,0.27,0.395,-7.263,15.686,-6.286,1
6.051282,0.663,0.291,0.359,-6.835,16.113,-3.906,1
6.058788,0.665,0.312,0.325,-6.774,15.93,-1.77,1
6.067271,0.668,0.326,0.293,-6.53,15.747,0.427,1
6.074102,0.676,0.339,0.269,-6.042,15.686,2.685,1
6.081321,0.68,0.362,0.248,-6.347,15.258,4.699,1
6.08941,0.683,0.379,0.228,-6.896,14.587,6.286,1
6.09772,0.691,0.401,0.217,-6.652,14.099,7.812,1
6.106337,0.695,0.429,0.207,-5.615,13.305,9.216,1
6.113283,0.705,0.448,0.202,-5.92,12.329,10.559,1
6.122346,0.714,0.462,0.197,-7.08,11.718,11.413,1
6.129439,0.716,0.476,0.199,-7.995,10.803,12.329,1
6.136695,0.722,0.482,0.201,-7.995,10.375,13.427,1
6.146065,0.719,0.508,0.201,-7.812,10.009,14.526,1
6.153666,0.714,0.529,0.193,-8.117,9.399,15.563,1
6.160759,0.713,0.55,0.183,-7.873,8.605,16.235,1
6.16831,0.706,0.567,0.183,-6.896,7.812,16.845,1
6.177756,0.703,0.579,0.181,-5.371,7.141,17.15,1
6.185094,0.708,0.597,0.179,-4.455,6.469,17.822,1
6.193907,0.714,0.616,0.178,-3.601,5.676,18.066,1
6.2015,0.714,0.651,0.179,-2.807,4.638,18.31,1
6.208356,0.707,0.671,0.187,-2.197,4.028,18.188,1
6.216364,0.709,0.687,0.196,-1.892,3.784,18.188,1
6.224362,0.711,0.705,0.191,-2.319,3.112,17.822,1
6.23196,0.719,0.716,0.191,-3.356,2.685,17.089,1
6.240763,0.725,0.733,0.186,-3.601,2.502,16.479,1
6.24831,0.729,0.742,0.188,-3.723,2.136,16.052,1
6.256854,0.738,0.755,0.189,-2.868,1.464,15.502,1
6.264394,0.742,0.773,0.184,-1.586,0.915,14.526,1
6.273267,0.745,0.785,0.181,-0.854,0.061,13.854,1
6.28114,0.746,0.792,0.185,-0.244,-0.427,12.939,1
6.289065,0.749,0.801,0.19,0.244,-0.854,11.596,1
6.296267,0.746,0.809,0.199,0.793,-1.037,10.437,1
6.30363,0.74,0.815,0.199,1.098,-1.281,9.765,1
6.311703,0.731,0.823,0.202,0.305,-1.098,8.544,1
6.320517,0.724,0.827,0.206,0.0,-1.586,7.385,1
6.328393,0.716,0.824,0.208,0.183,-1.708,6.408,1
6.335374,0.712,0.82,0.2,0.061,-1.708,5.554,1
6.343177,0.714,0.811,0.198,-0.183,-1.831,4.516,1
6.352505,0.719,0.804,0.193,0.0,-2.38,3.906,1
6.359227,0.719,0.789,0.195,0.549,-2.685,3.234,1
6.367594,0.714,0.781,0.198,2.014,-3.173,2.563,1
6.375804,0.716,0.766,0.205,3.295,-3.54,1.77,1
6.383012,0.719,0.756,0.204,3.662,-3.906,1.525,1
6.389554,0.724,0.756,0.207,3.173,-3.967,1.342,1
6.398036,0.72,0.751,0.204,3.662,-4.516,1.037,1
6.404862,0.717,0.748,0.207,4.333,-4.821,0.427,1
6.412797,0.721,0.738,0.207,4.638,-5.126,0.122,1
6.419371,0.721,0.732,0.208,4.455,-5.31,-0.122,1
6.427337,0.727,0.728,0.207,3.479,-5.249,-0.366,1
6.435359,0.723,0.721,0.213,3.234,-5.798,-0.488,1
6.445049,0.724,0.716,0.216,4.333,-6.042,-0.976,1
6.451597,0.727,0.712,0.221,4.638,-6.164,-1.159,1
6.459465,0.727,0.707,0.228,4.577,-6.591,-1.403,1
6.468326,0.722,0.69,0.232,4.394,-6.652,-1.586,1
6.475369,0.715,0.684,0.247,4.028,-6.774,-1.77,1
6.484529,0.708,0.677,0.271,4.455,-7.019,-1.77,1
6.490997,0.706,0.671,0.288,4.76,-6.774,-1.525,1
6.499212,0.701,0.663,0.3,4.638,-6.286,-1.525,1
6.50692,0.702,0.661,0.304,3.967,-5.615,-1.342,1
6.515764,0.696,0.664,0.301,3.723,-5.249,-1.037,1
6.522584,0.697,0.658,0.303,3.967,-5.065,-0.854,1
6.530687,0.694,0.656,0.294,4.943,-4.882,-0.732,1
6.539104,0.696,0.654,0.288,5.31,-4.699,-0.488,1
6.546683,0.696,0.653,0.292,5.859,-4.638,-0.61,1
6.554915,0.688,0.653,0.3,5.981,-4.394,-0.183,1
6.562019,0.696,0.651,0.306,5.676,-4.089,0.122,1
6.570273,0.698,0.65,0.308,5.737,-3.723,0.366,1
6.577539,0.697,0.648,0.313,5.371,-3.417,0.366,1
6.58501,0.699,0.649,0.315,5.187,-3.295,0.732,1
6.592561,0.695,0.654,0.315,4.455,-2.685,0.915,1
6.600902,0.7,0.655,0.316,4.272,-2.38,1.037,1
6.608323,0.705,0.658,0.317,4.455,-2.319,1.403,1
6.617322,0.708,0.658,0.32,4.821,-1.77,1.342,1
6.624425,0.713,0.656,0.322,4.882,-1.892,1.342,1
6.63351,0.713,0.659,0.324,5.065,-1.525,1.586,1
6.640503,0.712,0.661,0.324,4.943,-1.037,1.525,1
6.648569,0.714,0.668,0.322,4.272,-0.732,1.525,1
6.655502,0.717,0.673,0.321,4.272,-0.366,1.464,1
6.662984,0.717,0.676,0.32,4.699,0.061,1.525,1
6.670509,0.712,0.679,0.315,5.187,0.183,1.22,1
6.679743,0.705,0.681,0.305,5.615,0.366,1.098,1
6.686847,0.707,0.682,0.299,5.676,0.366,1.342,1
6.693123,0.702,0.686,0.3,5.737,0.366,1.098,1
6.701192,0.705,0.686,0.289,5.615,0.549,1.037,1
6.709007,0.706,0.69,0.292,5.004,0.488,0.732,1
6.716726,0.707,0.69,0.292,4.028,0.61,0.671,1
6.72586,0.711,0.688,0.296,3.356,0.671,0.366,1
6.732711,0.714,0.685,0.304,3.234,0.549,0.122,1
6.740589,0.713,0.684,0.311,3.54,0.671,0.183,1
6.748278,0.711,0.675,0.309,3.54,0.732,0.061,1
6.755393,0.712,0.671,0.307,3.662,0.976,0.244,1
6.764212,0.709,0.672,0.305,4.15,1.281,0.122,1
6.772476,0.711,0.672,0.299,4.272,1.403,-0.183,1
6.779264,0.71,0.68,0.298,4.516,1.037,0.061,1
6.787355,0.705,0.678,0.293,4.577,1.098,0.244,1
6.79605,0.706,0.679,0.295,4.821,1.22,-0.061,1
6.804038,0.705,0.677,0.298,5.187,1.037,-0.244,1
6.810807,0.708,0.671,0.302,4.882,0.915,-0.122,1
6.819833,0.707,0.669,0.307,3.784,1.281,-0.305,1
6.826793,0.704,0.671,0.316,3.173,1.342,-0.488,1
6.835769,0.702,0.669,0.32,2.563,1.403,-0.61,1
6.842727,0.693,0.664,0.332,2.441,1.77,-0.427,1
6.850613,0.695,0.661,0.332,2.258,1.892,-0.305,1
6.858125,0.699,0.659,0.343,2.38,2.258,-0.488,1
6.866549,0.704,0.659,0.347,2.563,2.807,-0.244,1
6.874204,0.703,0.657,0.339,1.77,3.234,-0.183,1
6.88333,0.706,0.659,0.333,1.403,3.662,-0.122,1
6.890544,0.709,0.664,0.324,1.464,3.906,0.0,1
6.899548,0.711,0.663,0.315,1.586,4.455,0.061,1
6.906922,0.709,0.664,0.307,2.319,4.272,0.183,1
6.91411,0.71,0.662,0.298,1.953,4.394,0.366,1
6.921495,0.708,0.662,0.29,2.014,4.211,0.366,1
6.930344,0.704,0.659,0.284,1.953,4.455,0.549,1
6.937531,0.705,0.657,0.284,1.159,4.272,0.366,1
6.944316,0.701,0.654,0.285,0.732,4.577,0.732,1
6.953239,0.697,0.657,0.278,0.671,4.577,0.793,1
6.961203,0.698,0.658,0.269,0.366,4.577,1.281,1
6.968266,0.696,0.661,0.263,-0.244,4.577,1.22,1
6.976644,0.694,0.664,0.257,-0.122,4.394,1.22,1
6.984115,0.7,0.671,0.244,0.244,4.394,1.22,1
6.9928,0.699,0.669,0.24,0.305,4.028,1.403,1
6.999971,0.706,0.668,0.234,0.0,3.784,1.464,1
7.008127,0.707,0.671,0.227,-0.183,3.479,1.281,1
7.015988,0.71,0.678,0.226,-0.183,3.173,1.22,1
7.02389,0.711,0.674,0.222,-0.061,2.868,1.037,1
7.033319,0.718,0.671,0.224,-0.061,2.38,0.915,1
7.039746,0.721,0.671,0.228,-0.183,2.014,0.854,1
7.047284,0.716,0.669,0.231,0.488,1.647,0.854,1
7.05515,0.71,0.66,0.235,0.244,1.403,0.915,1
7.062641,0.712,0.668,0.242,-0.488,1.342,1.037,1
7.071739,0.708,0.669,0.243,-0.976,1.281,1.22,1
7.078619,0.709,0.671,0.239,-1.464,1.159,1.281,1
7.086415,0.708,0.678,0.237,-1.403,0.976,1.159,1
7.095156,0.709,0.681,0.234,-0.671,0.732,1.159,1
7.101856,0.708,0.687,0.229,-0.793,0.366,1.281,1
7.110649,0.708,0.69,0.231,-1.037,0.0,1.098,1
7.117976,0.713,0.693,0.23,-0.854,-0.366,1.098,1
7.125831,0.712,0.7,0.235,-0.305,-0.732,0.854,1
7.133423,0.711,0.703,0.241,0.061,-0.854,0.61,1
7.141421,0.706,0.706,0.234,-0.366,-0.854,0.366,1
7.149,0.704,0.713,0.235,-1.281,-1.159,0.244,1
7.158236,0.708,0.711,0.235,-0.976,-1.22,-0.183,1
7.165223,0.709,0.708,0.244,-0.549,-1.403,-0.366,1
7.174691,0.712,0.716,0.25,-0.915,-1.708,-0.732,1
7.181178,0.709,0.707,0.261,-0.671,-1.953,-0.854,1
7.189486,0.709,0.707,0.272,-0.305,-2.136,-1.342,1
7.196849,0.713,0.699,0.278,0.244,-1.892,-1.403,1
7.204627,0.709,0.689,0.286,0.488,-1.953,-1.281,1
7.212535,0.707,0.685,0.288,0.488,-1.77,-1.464,1
7.221391,0.704,0.681,0.287,-0.244,-1.403,-1.342,1
7.230375,0.697,0.682,0.281,-1.586,-1.098,-1.342,1
7.237753,0.697,0.685,0.274,-1.953,-0.915,-1.342,1
7.245544,0.701,0.682,0.27,-0.854,-1.281,-1.525,1
7.254367,0.701,0.679,0.262,0.0,-1.464,-1.464,1
7.262261,0.702,0.678,0.252,-0.061,-1.525,-1.831,1
7.270668,0.7,0.67,0.252,-0.488,-1.892,-1.77,1
7.279509,0.706,0.666,0.247,-0.915,-2.258,-1.708,1
7.286111,0.709,0.664,0.254,-0.488,-2.502,-1.708,1
7.295289,0.713,0.653,0.262,-0.732,-2.624,-1.586,1
7.302332,0.709,0.65,0.267,-0.549,-2.807,-1.403,1
7.311496,0.708,0.644,0.278,-0.366,-2.868,-1.281,1
7.318554,0.705,0.643,0.274,-0.183,-2.746,-1.098,1
7.327904,0.702,0.644,0.277,-0.183,-2.807,-0.732,1
7.335377,0.699,0.636,0.282,-0.061,-2.624,-0.427,1
7.343139,0.699,0.639,0.277,-0.061,-2.502,-0.366,1
7.350367,0.697,0.64,0.27,-0.183,-2.441,-0.244,1
7.359672,0.697,0.638,0.267,0.122,-2.746,-0.061,1
7.366768,0.703,0.636,0.261,-0.122,-2.807,0.305,1
7.374262,0.705,0.634,0.263,-0.122,-2.99,0.549,1
7.382751,0.71,0.633,0.27,0.854,-3.295,0.854,1
7.390025,0.712,0.63,0.27,1.586,-3.479,1.22,1
7.397211,0.705,0.624,0.278,1.464,-3.601,1.342,1
7.406397,0.704,0.618,0.289,1.159,-3.295,1.77,1
7.414097,0.702,0.619,0.29,0.854,-3.295,2.075,1
7.42135,0.7,0.619,0.291,0.854,-3.356,2.258,1
7.428681,0.701,0.624,0.29,0.671,-3.051,2.441,1
7.436074,0.697,0.629,0.291,0.915,-3.112,2.929,1
7.443599,0.694,0.635,0.294,0.732,-3.051,3.234,1
7.451197,0.697,0.642,0.296,0.61,-2.929,3.54,1
7.459777,0.697,0.644,0.288,0.61,-2.746,3.54,1
7.466979,0.698,0.647,0.29,0.732,-2.868,3.723,1
7.475948,0.699,0.648,0.29,0.61,-2.746,3.784,1
7.482815,0.705,0.648,0.287,0.915,-2.99,4.028,1
7.490394,0.706,0.649,0.286,0.915,-3.112,4.272,1
7.499103,0.704,0.646,0.285,1.525,-3.234,4.15,1
7.506129,0.705,0.646,0.283,1.892,-2.868,4.394,1
7.513641,0.703,0.651,0.284,1.892,-3.234,4.638,1
7.523429,0.704,0.65,0.288,2.258,-3.173,4.699,1
7.530302,0.705,0.658,0.293,2.441,-3.295,4.699,1
7.537061,0.707,0.656,0.287,1.892,-3.234,4.821,1
7.545899,0.705,0.659,0.289,1.953,-3.479,4.76,1
7.552858,0.704,0.661,0.296,2.441,-3.356,5.004,1
7.562128,0.701,0.66,0.299,2.502,-3.54,4.882,1
7.568954,0.701,0.655,0.302,3.112,-3.723,4.699,1
7.577489,0.696,0.642,0.317,3.662,-3.845,4.76,1
7.584001,0.695,0.637,0.328,4.15,-3.723,4.821,1
7.592411,0.702,0.627,0.335,4.577,-3.845,5.004,1
7.600925,0.709,0.62,0.342,5.004,-3.845,5.371,1
7.608945,0.713,0.618,0.34,5.31,-3.723,5.92,1
7.616086,0.721,0.619,0.343,5.615,-3.723,6.347,1
7.62503,0.714,0.631,0.341,6.896,-3.906,6.835,1
7.632239,0.71,0.637,0.343,8.544,-4.211,7.141,1
7.639705,0.708,0.635,0.347,10.131,-4.516,7.446,1
7.648493,0.698,0.642,0.351,11.23,-4.699,7.568,1
7.655307,0.695,0.646,0.358,12.145,-4.821,7.873,1
7.662782,0.684,0.649,0.373,12.512,-4.394,7.568,1
7.671494,0.679,0.646,0.381,13.061,-4.272,7.751,1
7.678602,0.672,0.643,0.396,13.793,-4.028,7.751,1
7.686565,0.662,0.635,0.402,15.319,-3.845,7.812,1
7.694115,0.658,0.625,0.414,16.723,-3.54,8.056,1
7.701481,0.651,0.618,0.429,18.249,-3.295,8.3,1
7.709047,0.646,0.607,0.445,19.592,-2.807,8.666,1
7.718386,0.634,0.603,0.47,21.789,-2.563,8.911,1
7.725479,0.625,0.594,0.497,24.475,-1.892,9.521,1
7.733109,0.62,0.583,0.513,26.855,-1.403,10.07,1
7.7412,0.61,0.568,0.531,28.076,-0.671,10.925,1
7.748885,0.604,0.553,0.562,29.541,0.427,12.023,1
7.756546,0.602,0.539,0.595,30.944,0.976,12.695,1
7.764021,0.591,0.52,0.632,32.104,1.953,13.977,1
7.772971,0.569,0.515,0.675,32.836,3.173,15.075,1
7.781544,0.553,0.508,0.734,34.545,5.126,16.418,1
7.787367,0.548,0.503,0.798,36.743,7.141,17.822,1
7.795041,0.549,0.492,0.865,38.33,9.399,19.409,1
7.804098,0.525,0.49,0.929,39.489,12.451,21.301,1
7.811955,0.508,0.502,1.016,41.32,15.93,22.949,1
7.819807,0.511,0.504,1.112,45.532,20.324,25.146,1
7.826904,0.568,0.487,1.205,50.964,24.414,26.977,1
7.83451,0.588,0.453,1.299,55.908,28.747,28.686,1
7.842892,0.59,0.424,1.41,61.706,34.179,31.127,1
7.850368,0.56,0.398,1.483,71.472,40.527,34.057,1
7.858613,0.536,0.36,1.554,77.575,46.325,36.376,1
7.865485,0.45,0.332,1.614,78.857,53.039,40.1,1
7.872855,0.466,0.31,1.647,80.2,60.119,42.907,1
7.880357,0.416,0.29,1.685,78.735,67.382,46.508,1
7.889135,0.352,0.266,1.699,74.401,75.256,49.743,1
7.897357,0.335,0.268,1.728,72.265,83.679,53.405,1
7.904459,0.298,0.282,1.73,71.838,91.796,56.823,1
7.913005,0.25,0.293,1.725,71.472,99.548,60.424,1
7.919833,0.204,0.324,1.705,72.204,108.581,64.453,1
7.928578,0.138,0.369,1.681,71.655,115.661,67.993,1
7.934997,0.09,0.446,1.656,70.922,122.802,71.472,1
7.942866,0.025,0.549,1.617,71.472,129.516,74.279,1
7.950945,-0.025,0.639,1.58,72.753,135.62,76.232,1
7.957843,-0.04,0.705,1.547,74.829,141.723,77.88,1
7.964363,-0.064,0.752,1.521,75.561,146.362,79.223,1
7.973967,-0.094,0.814,1.502,74.096,152.465,80.322,1
7.980463,-0.143,0.87,1.499,71.838,159.423,81.115,1
7.988658,-0.196,0.919,1.507,72.387,165.405,81.665,1
7.995545,-0.246,0.972,1.521,74.829,171.752,82.458,1
8.00331,-0.299,1.01,1.528,77.819,178.161,83.007,1
8.01222,-0.36,1.063,1.517,77.697,184.997,83.496,1
8.019289,-0.42,1.139,1.51,78.002,191.894,83.74,1
8.026979,-0.482,1.21,1.491,79.711,198.425,83.435,1
8.0347,-0.534,1.276,1.453,81.787,204.956,82.885,1
8.042676,-0.576,1.339,1.421,84.655,211.242,82.275,1
8.049739,-0.625,1.413,1.388,86.791,218.811,81.42,1
8.057845,-0.663,1.487,1.349,86.303,224.853,80.2,1
8.065434,-0.697,1.567,1.311,85.815,230.895,78.491,1
8.072953,-0.738,1.645,1.27,85.266,237.243,76.171,1
8.080684,-0.774,1.709,1.227,82.58,243.225,73.791,1
8.088426,-0.816,1.769,1.174,76.538,249.694,70.8,1
8.097791,-0.865,1.825,1.116,69.519,255.798,66.65,1
8.104679,-0.919,1.892,1.034,65.734,262.268,61.889,1
8.112157,-0.958,1.937,0.946,66.65,267.15,57.067,1
8.119722,-0.999,1.976,0.849,67.26,272.155,52.368,1
8.128462,-1.042,2.03,0.73,65.612,276.428,46.936,1
8.135031,-1.073,2.085,0.612,66.711,279.602,41.442,1
8.142777,-1.079,2.115,0.476,69.396,282.348,35.705,1
8.15017,-1.085,2.145,0.324,71.838,284.484,29.785,1
8.158786,-1.084,2.171,0.166,74.768,285.644,24.047,1
8.167457,-1.057,2.181,-0.035,75.561,286.193,18.066,1
8.175289,-1.063,2.196,-0.204,73.913,285.522,11.108,1
8.182852,-1.074,2.205,-0.359,73.913,283.691,4.577,1
8.190268,-1.029,2.189,-0.545,77.575,280.822,-1.586,1
8.199003,-0.999,2.155,-0.718,80.017,276.855,-8.789,1
8.206692,-0.965,2.114,-0.89,78.613,271.728,-14.343,1
8.215835,-0.936,2.072,-1.0,76.354,265.441,-20.629,1
8.223527,-0.898,2.02,-1.115,77.087,259.277,-25.878,1
8.230707,-0.854,1.958,-1.243,76.782,252.99,-30.395,1
8.239522,-0.769,1.916,-1.407,74.035,244.628,-35.278,1
8.246853,-0.696,1.874,-1.537,70.922,235.839,-39.733,1
8.254519,-0.615,1.812,-1.653,66.711,227.172,-44.128,1
8.262709,-0.547,1.756,-1.736,61.706,216.003,-48.828,1
8.271282,-0.473,1.68,-1.814,58.715,206.42,-53.039,1
8.279917,-0.379,1.572,-1.904,55.48,196.105,-57.067,1
8.286724,-0.298,1.461,-1.949,49.743,183.349,-60.668,1
8.296217,-0.22,1.359,-1.957,45.654,172.607,-63.354,1
8.302697,-0.15,1.276,-1.953,46.264,161.804,-65.429,1
8.311043,-0.066,1.189,-1.945,52.246,148.742,-66.711,1
8.320307,-0.018,1.104,-1.937,54.87,138.427,-67.138,1
8.327087,0.042,1.002,-1.911,51.025,127.014,-67.382,1
8.33541,0.096,0.922,-1.865,45.776,117.736,-67.138,1
8.343782,0.153,0.833,-1.79,42.968,108.337,-66.589,1
8.35252,0.195,0.746,-1.718,42.236,97.839,-65.429,1
8.359673,0.232,0.653,-1.629,40.527,89.843,-63.842,1
8.368553,0.266,0.55,-1.52,36.865,81.665,-61.34,1
8.375682,0.286,0.487,-1.422,34.484,75.073,-58.532,1
8.384835,0.296,0.437,-1.327,34.423,69.152,-55.236,1
8.391623,0.311,0.384,-1.231,33.752,64.086,-52.001,1
8.400152,0.318,0.35,-1.152,29.357,58.898,-47.424,1
8.409115,0.325,0.312,-1.075,24.536,55.541,-44.189,1
8.41565,0.331,0.294,-0.999,21.484,51.696,-39.733,1
8.424123,0.347,0.281,-0.944,21.057,49.072,-36.56,1
8.432119,0.354,0.265,-0.917,19.714,46.264,-33.02,1
8.438781,0.373,0.247,-0.894,17.517,43.884,-29.724,1
8.446874,0.397,0.24,-0.88,15.38,41.076,-26.123,1
8.455378,0.416,0.257,-0.869,13.366,37.902,-22.277,1
8.462716,0.444,0.279,-0.875,10.925,34.912,-19.531,1
8.47151,0.457,0.297,-0.877,6.652,31.982,-17.089,1
8.480238,0.498,0.328,-0.877,-0.244,28.198,-14.526,1
8.487544,0.53,0.357,-0.864,-4.699,25.024,-12.512,1
8.495243,0.566,0.388,-0.855,-7.324,21.362,-10.864,1
8.505013,0.608,0.408,-0.851,-8.666,17.822,-9.521,1
8.512241,0.662,0.443,-0.836,-8.483,14.465,-8.361,1
8.519325,0.707,0.468,-0.822,-5.126,10.253,-6.958,1
8.528239,0.745,0.5,-0.801,-2.502,6.408,-5.798,1
8.535909,0.773,0.532,-0.758,-1.647,2.685,-4.882,1
8.544977,0.788,0.568,-0.721,-2.014,-0.244,-3.967,1
8.552538,0.803,0.609,-0.671,-1.647,-3.234,-3.601,1
8.560778,0.806,0.634,-0.637,-1.708,-5.432,-3.662,1
8.568688,0.803,0.657,-0.586,-2.441,-7.934,-3.662,1
8.577704,0.79,0.666,-0.543,-3.417,-9.399,-4.089,1
8.585214,0.774,0.688,-0.492,-3.417,-10.864,-4.333,1
8.594164,0.759,0.698,-0.442,-1.953,-11.962,-4.882,1
8.601404,0.73,0.708,-0.392,-0.549,-12.634,-5.31,1
8.609288,0.701,0.7,-0.347,-1.037,-12.756,-5.554,1
8.617209,0.672,0.681,-0.317,-2.502,-12.451,-5.92,1
8.626538,0.655,0.659,-0.301,-3.601,-12.268,-5.981,1
8.633452,0.639,0.643,-0.277,-4.394,-11.84,-5.615,1
8.642027,0.631,0.627,-0.27,-4.821,-11.352,-5.31,1
8.650425,0.623,0.619,-0.255,-4.577,-11.047,-4.638,1
8.657575,0.619,0.619,-0.25,-4.394,-10.803,-4.028,1
8.665952,0.62,0.61,-0.239,-4.211,-10.498,-3.295,1
8.675008,0.628,0.599,-0.235,-5.31,-9.948,-2.441,1
8.683757,0.634,0.599,-0.234,-7.08,-9.643,-1.77,1
8.690538,0.638,0.594,-0.234,-9.521,-9.155,-1.281,1
8.699104,0.646,0.604,-0.231,-10.253,-8.911,-0.671,1
8.708158,0.654,0.603,-0.222,-10.559,-8.666,-0.061,1
8.715202,0.657,0.6,-0.218,-10.253,-8.117,0.488,1
8.72278,0.666,0.607,-0.209,-9.033,-7.812,1.159,1
8.731986,0.67,0.616,-0.209,-7.934,-7.202,1.586,1
8.738653,0.677,0.63,-0.205,-7.263,-6.591,1.892,1
8.746799,0.684,0.641,-0.203,-7.019,-6.286,2.38,1
8.75521,0.697,0.65,-0.201,-6.591,-5.859,2.502,1
8.762925,0.704,0.655,-0.201,-6.469,-5.126,2.685,1
8.770455,0.707,0.665,-0.192,-6.652,-4.577,2.441,1
8.779388,0.708,0.668,-0.189,-6.958,-3.906,2.38,1
8.787305,0.717,0.667,-0.189,-7.568,-3.112,2.441,1
8.794898,0.725,0.669,-0.185,-7.263,-2.563,2.502,1
8.804906,0.727,0.678,-0.181,-7.141,-1.953,2.624,1
8.812092,0.723,0.702,-0.179,-7.385,-1.342,2.746,1
8.819007,0.717,0.716,-0.177,-7.446,-0.366,2.563,1
8.8269,0.713,0.727,-0.177,-6.958,0.244,2.441,1
8.835063,0.702,0.732,-0.186,-6.164,0.793,2.014,1
8.843383,0.7,0.732,-0.195,-5.92,1.831,1.708,1
8.851593,0.699,0.727,-0.204,-6.164,2.197,1.098,1
8.858804,0.692,0.731,-0.211,-6.53,2.624,0.732,1
8.865651,0.689,0.727,-0.217,-5.798,2.929,0.61,1
8.873469,0.68,0.727,-0.221,-4.699,3.234,0.244,1
8.890676,0.687,0.731,-0.225,-2.99,3.54,0.061,1
8.890708,0.685,0.735,-0.232,-2.502,3.784,-0.488,1
8.895659,0.679,0.733,-0.238,-3.417,4.028,-0.793,1
8.902805,0.68,0.728,-0.247,-4.882,4.577,-1.159,1
8.911092,0.675,0.726,-0.254,-5.737,4.516,-1.342,1
8.918199,0.673,0.724,-0.259,-6.103,4.882,-1.525,1
8.925661,0.679,0.715,-0.263,-5.981,5.126,-2.136,1
8.932365,0.682,0.706,-0.27,-5.92,5.126,-2.258,1
8.940131,0.681,0.692,-0.275,-6.347,5.31,-2.014,1
8.94843,0.682,0.682,-0.286,-6.591,5.554,-2.258,1
8.956217,0.676,0.681,-0.295,-6.408,5.737,-2.319,1
8.962644,0.679,0.678,-0.3,-5.249,5.615,-2.197,1
8.970976,0.688,0.667,-0.302,-4.272,5.737,-2.197,1
8.977477,0.688,0.66,-0.304,-3.723,5.676,-2.136,1
8.98555,0.691,0.655,-0.312,-3.906,5.737,-2.136,1
8.992434,0.692,0.646,-0.316,-4.516,5.798,-2.014,1
9.000181,0.692,0.634,-0.32,-5.126,5.981,-2.014,1
9.007248,0.685,0.631,-0.329,-4.943,5.92,-1.831,1
9.015302,0.693,0.626,-0.333,-4.333,5.798,-1.525,1
9.023571,0.689,0.617,-0.335,-4.577,5.859,-1.281,1
9.03006,0.688,0.616,-0.348,-4.699,5.615,-0.854,1
9.038357,0.692,0.625,-0.354,-4.455,5.249,-0.366,1
9.04529,0.683,0.631,-0.36,-3.234,5.126,-0.061,1
9.05366,0.684,0.629,-0.371,-2.38,4.577,-0.061,1
9.06063,0.68,0.63,-0.373,-2.014,4.15,0.244,1
9.068645,0.676,0.627,-0.374,-2.319,3.784,0.671,1
9.076346,0.679,0.627,-0.377,-2.014,3.417,0.854,1
9.084661,0.673,0.636,-0.375,-0.915,2.868,1.159,1
9.091932,0.673,0.644,-0.383,-0.061,2.319,1.403,1
9.100598,0.67,0.654,-0.389,-0.549,2.136,1.77,1
9.107506,0.671,0.662,-0.392,-1.037,1.77,1.647,1
9.115894,0.676,0.663,-0.399,-1.586,1.159,1.892,1
9.124205,0.676,0.673,-0.401,-1.464,0.427,1.708,1
9.13201,0.675,0.673,-0.399,-0.854,-0.122,1.525,1
9.139921,0.679,0.667,-0.395,-0.488,-0.854,1.464,1
9.147946,0.678,0.664,-0.391,-0.244,-1.342,1.647,1
9.156483,0.673,0.676,-0.38,-0.366,-1.586,1.586,1
9.164068,0.68,0.675,-0.374,0.061,-1.892,1.464,1
9.171877,0.686,0.667,-0.374,-1.22,-2.197,1.525,1
9.179799,0.678,0.669,-0.372,-2.014,-2.441,1.464,1
9.187824,0.674,0.672,-0.357,-2.197,-2.929,1.77,1
9.196331,0.668,0.67,-0.349,-1.464,-3.234,1.831,1
9.20388,0.668,0.672,-0.346,-0.976,-3.54,1.586,1
9.212268,0.665,0.672,-0.334,0.061,-3.845,1.892,1
9.219883,0.664,0.672,-0.327,1.281,-4.211,1.831,1
9.228976,0.668,0.677,-0.32,1.892,-4.394,2.014,1
9.237744,0.666,0.687,-0.316,1.464,-4.516,1.708,1
9.24519,0.663,0.69,-0.317,-0.427,-4.516,1.647,1
9.252195,0.669,0.693,-0.316,-2.929,-4.15,1.647,1
9.260971,0.672,0.704,-0.309,-5.004,-4.333,1.464,1
9.267892,0.679,0.704,-0.301,-5.187,-4.15,1.281,1
9.277158,0.688,0.712,-0.288,-4.211,-3.784,1.037,1
9.283944,0.693,0.709,-0.28,-3.356,-3.479,0.671,1
9.292419,0.707,0.705,-0.28,-3.112,-3.295,0.671,1
9.301061,0.707,0.709,-0.282,-1.953,-2.868,0.305,1
9.307754,0.708,0.715,-0.283,-0.305,-2.624,0.122,1
9.315927,0.71,0.729,-0.293,0.854,-2.746,-0.183,1
9.324258,0.7,0.738,-0.3,2.624,-2.746,-0.427,1
9.332477,0.694,0.745,-0.315,3.54,-2.685,-1.098,1
9.340946,0.701,0.742,-0.329,3.234,-3.112,-1.892,1
9.349532,0.698,0.737,-0.335,1.037,-3.234,-2.502,1
9.357623,0.684,0.733,-0.339,-0.244,-3.723,-3.173,1
9.3658,0.674,0.718,-0.328,-0.305,-4.089,-3.845,1
9.37404,0.685,0.686,-0.318,0.793,-4.272,-3.967,1
9.382651,0.679,0.682,-0.309,0.366,-4.272,-3.906,1
9.39083,0.675,0.681,-0.289,0.732,-4.394,-3.845,1
9.399524,0.672,0.684,-0.272,1.281,-4.272,-3.662,1
9.406363,0.67,0.68,-0.255,1.281,-3.784,-3.723,1
9.414756,0.666,0.673,-0.243,0.915,-3.112,-3.784,1
9.422933,0.674,0.671,-0.244,0.732,-2.563,-3.662,1
9.431176,0.674,0.663,-0.247,-0.732,-1.708,-3.845,1
9.44042,0.685,0.647,-0.258,-1.953,-1.281,-3.54,1
9.447851,0.692,0.647,-0.273,-2.258,-1.037,-3.356,1
9.457115,0.693,0.656,-0.273,-1.464,-0.854,-2.929,1
9.46484,0.697,0.675,-0.281,-0.793,-0.671,-2.807,1
9.472562,0.69,0.676,-0.287,-1.464,-0.488,-2.929,1
9.480852,0.7,0.673,-0.292,-3.051,-0.122,-3.051,1
9.48879,0.687,0.668,-0.291,-3.967,0.0,-3.112,1
9.497204,0.681,0.654,-0.291,-4.516,0.122,-3.173,1
9.505904,0.675,0.639,-0.289,-5.065,0.305,-3.234,1
9.51405,0.671,0.621,-0.28,-5.187,0.549,-2.99,1
9.521809,0.667,0.626,-0.268,-1.403,0.549,-2.563,1
9.529337,0.67,0.635,-0.284,0.793,0.854,-2.197,1
9.536708,0.672,0.647,-0.288,0.366,0.732,-1.892,1
9.544834,0.671,0.651,-0.293,-0.854,1.22,-1.708,1
9.552918,0.679,0.653,-0.297,-1.647,0.793,-1.831,1
9.560897,0.681,0.647,-0.302,-2.136,0.976,-1.77,1
9.56865,0.687,0.634,-0.31,-3.234,1.098,-2.014,1
9.576971,0.689,0.62,-0.309,-4.577,0.671,-1.708,1
9.585064,0.692,0.609,-0.308,-5.493,0.671,-1.464,1
9.59319,0.693,0.61,-0.304,-3.356,0.671,-0.549,1
9.601629,0.698,0.627,-0.3,-0.732,0.915,-0.427,1
9.60937,0.702,0.641,-0.308,0.671,0.488,0.122,1
9.616904,0.706,0.637,-0.309,0.183,0.671,0.244,1
9.624048,0.708,0.643,-0.312,-0.366,0.793,0.366,1
9.631047,0.705,0.641,-0.315,-0.488,0.793,0.366,1
9.639552,0.707,0.631,-0.317,-0.244,0.854,0.549,1
9.646841,0.707,0.622,-0.324,0.061,0.854,0.61,1
9.655123,0.704,0.618,-0.331,1.159,0.427,1.098,1
9.663226,0.697,0.629,-0.33,2.563,0.183,1.281,1
9.670261,0.699,0.634,-0.328,2.868,0.122,1.281,1
9.679469,0.697,0.639,-0.331,2.502,-0.183,1.831,1
9.687485,0.699,0.642,-0.329,2.014,-0.061,1.708,1
9.694721,0.698,0.647,-0.327,1.464,0.061,1.892,1
9.703196,0.694,0.646,-0.319,0.915,-0.061,1.892,1
9.711493,0.69,0.64,-0.324,0.0,-0.244,1.77,1
9.718236,0.693,0.637,-0.329,-0.61,0.061,2.197,1
9.727119,0.691,0.644,-0.324,0.122,0.061,2.197,1
9.735531,0.684,0.653,-0.332,1.892,-0.061,2.258,1
9.742893,0.681,0.666,-0.328,2.99,-0.488,2.563,1
9.750864,0.684,0.678,-0.334,2.807,-0.427,2.441,1
9.758075,0.689,0.681,-0.331,1.831,-0.671,2.502,1
9.767072,0.688,0.683,-0.33,0.671,-0.671,2.075,1
9.774942,0.695,0.683,-0.329,-0.732,-0.671,2.075,1
9.78246,0.678,0.69,-0.324,-0.549,-1.037,2.014,1
9.792124,0.688,0.683,-0.322,-0.732,-1.098,1.892,1
9.799208,0.687,0.672,-0.331,-1.586,-0.976,1.892,1
9.808213,0.69,0.674,-0.329,-1.647,-0.976,2.075,1
9.815183,0.682,0.681,-0.334,-0.976,-1.464,2.014,1
9.823911,0.681,0.697,-0.329,-0.549,-1.586,2.075,1
9.832891,0.684,0.708,-0.329,0.122,-1.77,2.014,1
9.839696,0.694,0.714,-0.33,-0.061,-2.136,1.953,1
9.847567,0.686,0.72,-0.329,0.0,-1.892,1.342,1
9.855209,0.683,0.714,-0.326,-1.037,-2.014,0.854,1
9.864433,0.691,0.698,-0.329,-1.708,-1.892,0.427,1
9.871617,0.694,0.687,-0.328,-2.136,-1.953,0.061,1
9.880832,0.683,0.694,-0.33,-0.366,-1.831,-0.122,1
9.88826,0.686,0.704,-0.333,2.563,-2.502,-0.061,1
9.896482,0.69,0.712,-0.335,3.234,-2.502,-0.061,1
9.903887,0.7,0.717,-0.338,1.342,-2.38,-0.488,1
9.911571,0.702,0.723,-0.345,0.671,-2.746,-0.915,1
9.920904,0.692,0.72,-0.343,-0.732,-2.99,-1.342,1
9.928635,0.702,0.708,-0.345,-1.953,-3.051,-1.708,1
9.936971,0.701,0.691,-0.341,-2.99,-3.479,-1.953,1
9.945323,0.702,0.698,-0.334,-1.831,-3.845,-2.075,1
9.952545,0.711,0.708,-0.329,1.953,-4.089,-2.136,1
9.96099,0.705,0.711,-0.318,3.662,-4.577,-2.258,1
9.969114,0.696,0.708,-0.311,2.258,-4.089,-2.441,1
9.978106,0.7,0.705,-0.315,-1.403,-3.784,-2.746,1
9.989029,0.708,0.706,-0.313,-3.662,-3.54,-2.868,1
9.997424,0.713,0.699,-0.312,-3.051,-3.051,-3.356,1
