timestamp_s,ax,ay,az,gx,gy,gz,label
0.005502,0.664,0.69,-0.287,0.427,0.244,0.244,1
0.014098,0.663,0.686,-0.287,0.366,0.244,0.366,1
0.020866,0.665,0.687,-0.289,-0.061,0.305,0.427,1
0.029096,0.665,0.687,-0.289,-0.183,0.427,0.244,1
0.036144,0.664,0.687,-0.294,-0.305,0.183,0.671,1
0.043363,0.667,0.683,-0.294,-0.305,0.366,0.61,1
0.051366,0.664,0.684,-0.294,0.305,0.366,0.549,1
0.057835,0.669,0.685,-0.296,0.549,0.183,0.854,1
0.065772,0.663,0.682,-0.297,0.976,0.183,0.854,1
0.073756,0.66,0.686,-0.299,1.037,0.183,1.037,1
0.080852,0.661,0.686,-0.302,0.732,0.183,1.037,1
0.089634,0.661,0.687,-0.307,0.549,-0.122,1.037,1
0.096168,0.661,0.69,-0.302,0.0,0.122,1.098,1
0.104973,0.665,0.69,-0.309,0.061,-0.183,1.281,1
0.112026,0.662,0.696,-0.307,0.061,-0.122,1.281,1
0.120723,0.666,0.7,-0.308,-0.366,-0.244,1.342,1
0.129032,0.665,0.702,-0.308,-0.549,-0.305,1.342,1
0.135305,0.664,0.706,-0.31,-0.549,-0.549,1.159,1
0.14333,0.669,0.705,-0.307,0.122,-0.854,1.22,1
0.151785,0.666,0.711,-0.306,0.244,-0.854,1.342,1
0.159767,0.668,0.711,-0.3,0.244,-0.854,1.098,1
0.167229,0.668,0.715,-0.306,0.305,-0.976,0.976,1
0.178442,0.664,0.715,-0.304,0.427,-0.976,0.671,1
0.184703,0.663,0.719,-0.303,0.61,-1.098,0.915,1
0.19329,0.662,0.723,-0.303,0.305,-1.098,0.671,1
0.202467,0.666,0.718,-0.302,0.122,-1.098,0.305,1
0.209304,0.66,0.722,-0.298,0.305,-1.098,0.366,1
0.216837,0.66,0.72,-0.299,0.854,-1.403,0.305,1
0.225929,0.668,0.716,-0.298,0.915,-1.403,0.0,1
0.233469,0.666,0.717,-0.296,0.183,-1.281,0.061,1
0.241762,0.663,0.719,-0.296,0.244,-1.647,-0.122,1
0.248512,0.668,0.718,-0.291,0.305,-1.708,-0.305,1
0.25779,0.664,0.716,-0.293,0.427,-1.281,-0.427,1
0.265586,0.665,0.715,-0.288,0.183,-1.586,-0.671,1
0.272631,0.666,0.712,-0.288,0.305,-1.586,-0.427,1
0.281159,0.666,0.712,-0.288,0.305,-1.525,-0.671,1
0.290125,0.664,0.708,-0.286,0.366,-1.525,-0.61,1
0.297711,0.662,0.711,-0.281,0.305,-1.525,-0.732,1
0.306953,0.662,0.706,-0.284,0.122,-1.647,-0.976,1
0.313971,0.663,0.708,-0.284,0.122,-1.464,-0.854,1
0.323402,0.661,0.699,-0.281,0.183,-1.342,-0.854,1
0.332127,0.661,0.7,-0.275,0.244,-1.281,-0.793,1
0.339768,0.663,0.698,-0.273,0.549,-1.281,-0.793,1
0.34761,0.666,0.695,-0.274,0.793,-1.281,-0.793,1
0.355419,0.665,0.688,-0.27,1.159,-0.976,-0.915,1
0.36409,0.664,0.688,-0.273,0.793,-0.793,-0.854,1
0.372872,0.664,0.687,-0.267,0.488,-0.488,-0.732,1
0.380398,0.662,0.689,-0.272,0.305,-0.61,-0.732,1
0.38857,0.664,0.686,-0.271,0.366,-0.61,-0.549,1
0.39684,0.661,0.69,-0.275,0.549,-0.183,-0.427,1
0.403457,0.665,0.687,-0.27,0.366,-0.244,-0.122,1
0.412525,0.663,0.689,-0.27,0.305,0.0,-0.244,1
0.420186,0.662,0.687,-0.271,0.61,-0.061,-0.122,1
0.427416,0.663,0.687,-0.272,0.732,0.061,0.122,1
0.435075,0.668,0.684,-0.269,0.671,0.122,0.244,1
0.443932,0.668,0.687,-0.271,0.305,0.061,0.305,1
0.451113,0.664,0.688,-0.274,0.427,0.366,0.305,1
0.460118,0.661,0.688,-0.272,0.549,0.244,0.488,1
0.467307,0.664,0.692,-0.274,0.305,0.549,0.427,1
0.475706,0.664,0.69,-0.274,0.366,0.732,0.732,1
0.483076,0.663,0.689,-0.272,0.244,0.549,0.671,1
0.491419,0.664,0.693,-0.271,0.488,0.854,0.732,1
0.497656,0.666,0.693,-0.275,0.366,0.671,0.854,1
0.505254,0.663,0.694,-0.276,0.122,1.037,0.793,1
0.512995,0.665,0.697,-0.278,0.244,0.976,0.732,1
0.521074,0.665,0.703,-0.276,0.366,0.976,0.793,1
0.528242,0.667,0.702,-0.28,0.244,1.098,0.793,1
0.537375,0.666,0.702,-0.281,0.305,1.22,0.854,1
0.543493,0.665,0.704,-0.283,0.549,1.037,0.793,1
0.552131,0.663,0.709,-0.284,0.793,1.281,0.793,1
0.560322,0.667,0.703,-0.281,0.793,1.22,0.732,1
0.567271,0.666,0.702,-0.283,0.488,1.281,0.549,1
0.574605,0.664,0.704,-0.282,0.488,1.342,0.732,1
0.582726,0.664,0.711,-0.288,0.305,1.342,0.549,1
0.589809,0.664,0.711,-0.287,0.549,1.037,0.793,1
0.597544,0.666,0.712,-0.289,0.183,1.281,0.61,1
0.605242,0.664,0.713,-0.291,0.122,1.037,0.671,1
0.612335,0.664,0.709,-0.291,0.183,1.037,0.366,1
0.619905,0.664,0.71,-0.293,0.366,1.281,0.305,1
0.628199,0.661,0.709,-0.294,0.488,1.098,0.183,1
0.634183,0.663,0.713,-0.29,0.122,1.342,0.061,1
0.641963,0.664,0.711,-0.293,0.427,0.976,0.305,1
0.649687,0.666,0.711,-0.292,0.549,1.037,0.061,1
0.657296,0.664,0.716,-0.296,0.793,0.976,0.305,1
0.66599,0.662,0.709,-0.295,0.671,0.854,0.183,1
0.673566,0.661,0.712,-0.299,0.549,1.159,0.183,1
0.681043,0.658,0.711,-0.297,0.427,0.976,0.0,1
0.690476,0.659,0.713,-0.297,-0.061,1.159,-0.122,1
0.697536,0.664,0.716,-0.3,-0.244,1.037,0.0,1
0.70536,0.662,0.714,-0.302,-0.305,1.098,-0.427,1
0.714214,0.665,0.712,-0.3,-0.671,0.915,-0.183,1
0.723462,0.665,0.712,-0.299,-0.915,0.61,-0.061,1
0.730747,0.667,0.716,-0.299,-0.488,0.61,-0.488,1
0.739177,0.669,0.719,-0.299,-0.183,0.61,-0.488,1
0.748073,0.66,0.718,-0.298,0.244,0.366,-0.427,1
0.756662,0.666,0.72,-0.3,0.183,0.366,-0.61,1
0.764217,0.662,0.715,-0.296,0.122,0.427,-0.976,1
0.771819,0.663,0.714,-0.294,0.0,0.366,-1.037,1
0.779858,0.665,0.719,-0.296,0.183,0.305,-1.22,1
0.786715,0.664,0.711,-0.292,0.305,0.305,-1.281,1
0.794515,0.661,0.708,-0.294,0.183,0.366,-1.22,1
0.802258,0.663,0.705,-0.295,0.305,0.061,-1.342,1
0.810594,0.662,0.7,-0.292,0.427,0.305,-1.342,1
0.81807,0.666,0.697,-0.297,0.061,0.305,-1.281,1
0.826533,0.655,0.698,-0.295,-0.122,0.244,-1.159,1
0.83366,0.657,0.694,-0.299,0.488,0.244,-1.098,1
0.841507,0.66,0.695,-0.299,0.793,0.122,-1.037,1
0.849181,0.658,0.694,-0.297,0.732,0.0,-0.793,1
0.858453,0.662,0.691,-0.294,0.366,-0.061,-0.915,1
0.865754,0.662,0.689,-0.292,0.305,-0.122,-0.854,1
0.87432,0.659,0.691,-0.295,0.305,-0.244,-0.915,1
0.882223,0.659,0.685,-0.294,0.366,-0.061,-0.732,1
0.890088,0.661,0.688,-0.292,0.122,-0.244,-0.61,1
0.898222,0.663,0.686,-0.292,0.244,-0.061,-0.549,1
0.905621,0.666,0.686,-0.29,-0.061,-0.183,-0.488,1
0.914407,0.661,0.685,-0.289,-0.183,-0.183,-0.427,1
0.923176,0.664,0.685,-0.291,0.244,-0.183,-0.305,1
0.931649,0.664,0.683,-0.288,0.488,-0.061,-0.244,1
0.938719,0.663,0.685,-0.287,0.732,-0.061,-0.061,1
0.947368,0.657,0.689,-0.286,0.244,-0.122,0.122,1
0.956151,0.662,0.684,-0.292,-0.122,0.0,-0.122,1
0.962907,0.661,0.684,-0.29,-0.122,-0.061,0.305,1
0.972124,0.665,0.687,-0.293,-0.183,0.122,0.366,1
0.978807,0.662,0.687,-0.291,0.183,0.0,0.427,1
0.987482,0.66,0.691,-0.287,0.122,0.0,0.488,1
0.995021,0.667,0.686,-0.287,0.427,-0.183,0.793,1
1.002236,0.665,0.689,-0.287,0.671,-0.061,0.854,1
1.009957,0.665,0.693,-0.29,0.244,0.061,0.61,1
1.016808,0.665,0.693,-0.284,0.244,0.244,0.732,1
1.025058,0.666,0.696,-0.286,0.122,0.305,0.61,1
1.031916,0.666,0.694,-0.285,0.305,0.122,0.793,1
1.039897,0.665,0.701,-0.283,0.366,0.183,0.854,1
1.046706,0.661,0.699,-0.282,0.488,0.122,0.732,1
1.054257,0.66,0.703,-0.284,0.488,0.244,0.976,1
1.062312,0.662,0.705,-0.28,0.427,0.244,0.854,1
1.070154,0.663,0.706,-0.281,0.183,0.427,0.976,1
1.078751,0.662,0.708,-0.28,0.061,0.61,0.793,1
1.085814,0.659,0.709,-0.282,0.0,0.488,0.793,1
1.093266,0.66,0.715,-0.28,0.915,0.488,0.732,1
1.10081,0.661,0.71,-0.282,1.159,0.305,0.61,1
1.108838,0.661,0.714,-0.28,0.732,0.549,0.549,1
1.116526,0.665,0.713,-0.281,0.61,0.671,0.549,1
1.123863,0.666,0.714,-0.282,0.488,0.732,0.427,1
1.132977,0.661,0.714,-0.281,0.305,0.793,0.305,1
1.139435,0.665,0.714,-0.286,0.122,1.037,0.305,1
1.148341,0.664,0.716,-0.286,0.427,0.793,0.183,1
1.155182,0.664,0.717,-0.29,0.61,0.793,0.122,1
1.163628,0.665,0.715,-0.291,0.183,0.915,-0.061,1
1.170223,0.666,0.715,-0.291,-0.061,0.976,-0.305,1
1.179073,0.661,0.711,-0.292,0.244,0.793,-0.305,1
1.18796,0.661,0.707,-0.288,0.488,0.61,-0.305,1
1.195068,0.67,0.709,-0.293,1.22,0.61,-0.183,1
1.204159,0.665,0.702,-0.291,1.098,0.793,-0.183,1
1.211224,0.661,0.7,-0.292,0.305,0.976,-0.244,1
1.220474,0.664,0.699,-0.293,0.244,0.915,-0.427,1
1.228055,0.663,0.699,-0.291,0.732,0.854,-0.244,1
1.236921,0.663,0.702,-0.292,0.488,1.037,-0.427,1
1.243924,0.662,0.7,-0.296,0.183,0.915,-0.427,1
1.253027,0.659,0.7,-0.296,-0.305,0.976,-0.549,1
1.260947,0.658,0.699,-0.298,0.061,0.915,-0.183,1
1.267872,0.657,0.698,-0.297,0.488,0.915,-0.244,1
1.27659,0.661,0.698,-0.295,0.549,0.671,-0.244,1
1.282622,0.658,0.695,-0.293,0.793,0.793,-0.305,1
1.291102,0.656,0.699,-0.294,0.793,0.671,-0.122,1
1.299651,0.656,0.694,-0.294,0.732,0.61,-0.183,1
1.30725,0.662,0.695,-0.295,0.427,0.976,-0.244,1
1.316432,0.658,0.694,-0.298,0.488,0.671,-0.122,1
1.322656,0.661,0.691,-0.299,0.671,0.61,0.122,1
1.330211,0.66,0.692,-0.299,0.244,0.671,0.244,1
1.339213,0.659,0.694,-0.296,0.183,0.61,0.061,1
1.346712,0.656,0.695,-0.3,0.244,0.61,0.305,1
1.353768,0.658,0.698,-0.301,0.305,0.549,0.366,1
1.361937,0.658,0.697,-0.299,0.488,0.366,0.305,1
1.369715,0.658,0.695,-0.299,0.366,0.427,0.427,1
1.378276,0.658,0.698,-0.3,0.122,0.488,0.305,1
1.386182,0.657,0.693,-0.3,-0.061,0.305,0.732,1
1.394552,0.657,0.697,-0.298,-0.183,0.0,0.671,1
1.401286,0.661,0.698,-0.299,0.183,0.061,0.366,1
1.409511,0.661,0.701,-0.302,0.183,0.183,0.61,1
1.417669,0.66,0.699,-0.298,0.305,0.0,0.671,1
1.424456,0.659,0.703,-0.298,0.61,0.061,0.549,1
1.433017,0.662,0.704,-0.295,0.61,0.061,0.549,1
1.440807,0.661,0.703,-0.299,0.671,0.122,0.61,1
1.44796,0.657,0.705,-0.296,0.61,0.061,0.793,1
1.457059,0.659,0.705,-0.294,0.671,-0.122,0.671,1
1.464285,0.66,0.706,-0.292,0.122,-0.061,0.61,1
1.472252,0.655,0.706,-0.294,-0.061,-0.061,0.488,1
1.480019,0.66,0.708,-0.289,0.0,-0.183,0.793,1
1.489595,0.661,0.709,-0.289,0.061,-0.061,0.854,1
1.497654,0.658,0.712,-0.287,0.244,0.122,0.366,1
1.505176,0.657,0.71,-0.286,0.549,0.122,0.549,1
1.512587,0.656,0.711,-0.29,0.488,-0.061,0.427,1
1.521259,0.658,0.71,-0.284,0.366,0.183,0.427,1
1.528008,0.658,0.712,-0.284,0.305,0.183,0.366,1
1.536467,0.657,0.71,-0.287,0.183,0.488,0.427,1
1.543191,0.657,0.708,-0.288,0.122,0.366,0.244,1
1.550736,0.656,0.71,-0.287,-0.122,0.427,0.244,1
1.560048,0.658,0.713,-0.292,-0.488,0.427,0.122,1
1.567381,0.658,0.711,-0.292,-0.732,0.305,0.183,1
1.574729,0.652,0.707,-0.29,-0.366,0.305,0.244,1
1.582855,0.668,0.708,-0.29,0.732,0.122,0.183,1
1.591457,0.659,0.706,-0.289,0.488,0.244,0.0,1
1.597872,0.659,0.701,-0.29,0.061,0.244,0.183,1
1.60564,0.664,0.707,-0.285,0.183,0.305,0.244,1
1.613291,0.66,0.709,-0.282,0.305,0.366,0.122,1
1.620782,0.661,0.704,-0.282,0.244,0.549,-0.183,1
1.628595,0.657,0.706,-0.285,0.183,0.488,0.061,1
1.636074,0.658,0.703,-0.287,0.427,0.671,-0.305,1
1.643436,0.657,0.703,-0.287,0.671,0.854,-0.244,1
1.652062,0.657,0.701,-0.289,0.549,0.732,-0.061,1
1.659009,0.656,0.705,-0.289,0.427,0.732,-0.244,1
1.666653,0.652,0.698,-0.292,0.427,0.732,-0.305,1
1.675716,0.656,0.698,-0.293,0.549,0.732,-0.305,1
1.682626,0.655,0.696,-0.291,0.305,0.488,-0.122,1
1.690471,0.658,0.698,-0.294,-0.061,0.671,0.0,1
1.698467,0.656,0.696,-0.294,-0.244,0.732,-0.122,1
1.706761,0.658,0.7,-0.295,-0.366,0.671,0.061,1
1.715222,0.656,0.696,-0.297,-0.244,0.61,0.244,1
1.721934,0.663,0.699,-0.294,-0.061,0.549,0.122,1
1.729505,0.658,0.698,-0.297,0.305,0.488,0.427,1
1.738554,0.657,0.698,-0.296,0.305,0.549,0.366,1
1.745642,0.657,0.698,-0.298,0.305,0.427,0.305,1
1.754352,0.655,0.701,-0.294,0.244,0.61,0.183,1
1.761537,0.657,0.699,-0.291,-0.061,0.427,0.305,1
1.770325,0.657,0.696,-0.295,0.183,0.549,0.305,1
1.777389,0.655,0.696,-0.295,0.244,0.488,0.366,1
1.784723,0.655,0.694,-0.293,0.122,0.549,0.305,1
1.792466,0.658,0.695,-0.296,-0.183,0.488,0.366,1
1.801205,0.662,0.694,-0.294,-0.366,0.427,0.427,1
1.808568,0.651,0.696,-0.296,-0.061,0.61,0.549,1
1.817829,0.659,0.688,-0.296,-0.549,0.793,0.671,1
1.824863,0.669,0.697,-0.299,-1.586,0.671,0.854,1
1.831744,0.656,0.705,-0.297,-1.586,1.098,0.671,1
1.841253,0.659,0.695,-0.301,-1.281,0.61,0.793,1
1.848394,0.658,0.694,-0.305,-1.159,0.61,0.976,1
1.856579,0.652,0.697,-0.306,-1.037,0.488,0.976,1
1.863421,0.654,0.7,-0.31,-0.854,0.122,1.037,1
1.871211,0.65,0.696,-0.311,-0.305,0.244,1.22,1
1.880142,0.651,0.698,-0.311,0.122,0.061,1.098,1
1.8883,0.652,0.699,-0.311,0.305,0.0,1.159,1
1.894931,0.647,0.699,-0.309,-0.366,-0.244,1.342,1
1.903255,0.654,0.697,-0.306,-0.793,-0.122,1.22,1
1.912536,0.647,0.699,-0.308,-0.61,0.0,1.525,1
1.919111,0.647,0.7,-0.308,-0.122,-0.244,1.403,1
1.928226,0.652,0.704,-0.312,0.244,-0.061,1.22,1
1.935147,0.646,0.693,-0.311,0.793,-0.427,1.403,1
1.944161,0.647,0.692,-0.317,1.037,-0.427,1.464,1
1.951193,0.645,0.69,-0.327,0.61,-0.244,1.586,1
1.960526,0.642,0.687,-0.339,-0.244,-0.366,1.708,1
1.968831,0.638,0.687,-0.353,-0.854,-0.305,1.892,1
1.975513,0.626,0.686,-0.379,-2.197,-0.549,1.892,1
1.983791,0.61,0.683,-0.409,-4.333,-0.549,2.014,1
1.99145,0.597,0.675,-0.443,-6.958,-0.671,2.075,1
1.999898,0.569,0.661,-0.504,-9.338,-0.793,2.136,1
2.008973,0.563,0.661,-0.571,-12.207,-1.098,2.258,1
2.015526,0.564,0.648,-0.659,-12.939,-2.319,2.319,1
2.024818,0.547,0.627,-0.757,-12.573,-3.723,2.319,1
2.031911,0.537,0.604,-0.892,-11.657,-6.652,2.99,1
2.040652,0.544,0.569,-1.022,-10.864,-9.887,3.845,1
2.04759,0.533,0.539,-1.173,-14.221,-13.732,4.943,1
2.055716,0.523,0.524,-1.327,-24.414,-18.615,6.835,1
2.063269,0.506,0.532,-1.471,-33.386,-24.23,8.544,1
2.072466,0.473,0.54,-1.626,-36.743,-31.005,10.498,1
2.080488,0.444,0.545,-1.839,-38.024,-39.55,13.427,1
2.089497,0.425,0.569,-2.064,-43.823,-48.889,16.174,1
2.097674,0.413,0.64,-2.317,-54.321,-60.791,19.287,1
2.105548,0.423,0.707,-2.529,-59.143,-73.974,21.362,1
2.11263,0.413,0.778,-2.736,-57.739,-88.867,22.888,1
2.12029,0.369,0.854,-2.879,-56.03,-107.666,24.78,1
2.129149,0.299,0.935,-2.976,-56.945,-124.816,25.756,1
2.136329,0.239,1.051,-3.02,-57.8,-142.883,26.0,1
2.144236,0.135,1.16,-3.0,-52.734,-164.428,24.963,1
2.152554,0.037,1.256,-2.938,-49.56,-182.189,23.62,1
2.161566,-0.109,1.388,-2.844,-52.124,-202.575,21.057,1
2.170168,-0.238,1.491,-2.705,-53.405,-219.726,18.066,1
2.17765,-0.386,1.589,-2.479,-52.734,-235.229,14.526,1
2.186628,-0.507,1.653,-2.274,-53.405,-251.281,9.216,1
2.193635,-0.622,1.655,-2.024,-59.814,-264.465,3.112,1
2.202517,-0.716,1.615,-1.809,-70.19,-274.353,-1.22,1
2.211231,-0.823,1.612,-1.556,-79.65,-284.24,-5.676,1
2.219064,-0.949,1.608,-1.281,-86.975,-293.396,-9.948,1
2.227501,-1.051,1.653,-0.947,-85.021,-301.147,-13.244,1
2.236886,-1.158,1.691,-0.626,-78.735,-308.105,-18.005,1
2.243357,-1.241,1.704,-0.248,-76.782,-310.729,-22.888,1
2.251439,-1.26,1.673,0.057,-83.007,-311.462,-28.808,1
2.260533,-1.224,1.633,0.339,-91.857,-310.302,-33.264,1
2.269462,-1.142,1.607,0.695,-91.003,-307.678,-37.658,1
2.276417,-1.105,1.601,1.018,-78.918,-304.443,-42.114,1
2.284886,-1.029,1.57,1.424,-55.664,-298.034,-47.912,1
2.293678,-0.922,1.479,1.771,-36.804,-288.146,-53.039,1
2.302658,-0.84,1.37,1.995,-29.479,-273.803,-58.837,1
2.310573,-0.689,1.198,2.151,-38.696,-255.737,-62.805,1
2.319363,-0.52,1.065,2.229,-53.71,-240.478,-64.636,1
2.328115,-0.352,0.919,2.251,-66.467,-223.022,-64.941,1
2.335517,-0.237,0.844,2.222,-66.833,-209.35,-63.781,1
2.344321,-0.051,0.682,2.145,-63.171,-197.265,-61.889,1
2.352246,0.001,0.638,2.123,-57.434,-184.509,-59.326,1
2.359314,0.068,0.623,2.068,-47.302,-173.522,-57.128,1
2.368511,0.064,0.642,2.107,-27.832,-165.222,-55.969,1
2.375828,0.123,0.615,2.12,-4.638,-153.503,-55.786,1
2.383002,0.157,0.57,2.145,3.662,-141.174,-55.175,1
2.392467,0.185,0.524,2.062,-2.136,-129.577,-54.626,1
2.400115,0.239,0.471,2.11,-11.901,-117.126,-53.466,1
2.408649,0.276,0.416,2.01,-21.667,-101.745,-51.269,1
2.415358,0.372,0.36,1.949,-25.695,-91.125,-49.255,1
2.423251,0.426,0.262,1.793,-30.09,-79.895,-46.02,1
2.431287,0.568,0.25,1.686,-38.33,-70.739,-42.602,1
2.440103,0.554,0.256,1.64,-26.0,-63.964,-39.062,1
2.448413,0.608,0.233,1.532,-20.629,-56.152,-35.949,1
2.456036,0.551,0.266,1.481,-14.953,-50.415,-32.836,1
2.463715,0.562,0.269,1.442,-7.568,-42.968,-30.334,1
2.471747,0.55,0.284,1.364,-7.934,-36.926,-28.137,1
2.480573,0.534,0.302,1.3,-9.216,-30.212,-25.756,1
2.487795,0.543,0.312,1.216,-12.023,-24.108,-23.437,1
2.495376,0.543,0.306,1.133,-12.084,-18.005,-21.362,1
2.504728,0.56,0.291,1.046,-12.39,-13.671,-19.47,1
2.513513,0.584,0.273,0.942,-13.549,-9.338,-16.906,1
2.520301,0.627,0.266,0.865,-12.39,-6.835,-14.831,1
2.528711,0.642,0.272,0.797,-7.995,-4.638,-11.657,1
2.537181,0.643,0.283,0.741,-5.554,-3.051,-9.277,1
2.544246,0.644,0.3,0.691,-5.859,-1.892,-7.019,1
2.552505,0.63,0.334,0.651,-7.324,-0.61,-4.699,1
2.560835,0.611,0.363,0.629,-8.361,0.183,-3.112,1
2.567356,0.606,0.372,0.612,-8.85,1.098,-1.77,1
2.576746,0.61,0.388,0.598,-8.361,2.197,-0.549,1
2.583653,0.617,0.395,0.571,-5.554,3.051,0.732,1
2.591282,0.654,0.392,0.527,-2.99,3.967,2.136,1
2.600161,0.68,0.394,0.486,-3.54,4.638,3.906,1
2.60727,0.703,0.403,0.449,-4.699,5.249,5.004,1
2.616142,0.72,0.416,0.415,-5.249,5.493,6.286,1
2.622899,0.735,0.435,0.386,-4.943,5.126,7.446,1
2.629987,0.748,0.453,0.369,-3.356,4.821,8.483,1
2.638202,0.744,0.484,0.359,-1.22,4.089,9.216,1
2.645399,0.732,0.512,0.355,0.915,3.54,9.582,1
2.652759,0.726,0.537,0.352,1.586,2.99,9.887,1
2.660502,0.723,0.553,0.351,0.061,3.051,10.131,1
2.669093,0.712,0.568,0.347,-3.295,2.807,10.131,1
2.676616,0.716,0.576,0.338,-7.202,2.685,10.07,1
2.685137,0.724,0.58,0.321,-10.498,2.441,9.887,1
2.691934,0.731,0.586,0.309,-10.864,1.77,9.582,1
2.700174,0.735,0.59,0.298,-9.338,0.671,9.277,1
2.708115,0.737,0.589,0.287,-7.141,-0.671,9.46,1
2.716958,0.726,0.596,0.282,-3.967,-2.197,9.277,1
2.724271,0.711,0.603,0.292,0.0,-3.662,9.216,1
2.730949,0.703,0.606,0.302,3.051,-4.699,9.46,1
2.740512,0.7,0.612,0.313,3.906,-5.676,9.399,1
2.747135,0.7,0.618,0.328,4.455,-6.225,9.338,1
2.754613,0.704,0.629,0.35,5.737,-6.713,9.155,1
2.763434,0.716,0.631,0.369,6.408,-7.263,8.789,1
2.770508,0.729,0.637,0.383,5.432,-6.958,8.483,1
2.778459,0.742,0.654,0.39,3.784,-6.713,8.3,1
2.78593,0.752,0.673,0.398,0.976,-6.774,7.507,1
2.794818,0.751,0.685,0.405,-1.77,-6.103,6.713,1
2.802075,0.76,0.693,0.398,-4.15,-5.859,5.859,1
2.810292,0.766,0.701,0.39,-6.225,-5.859,5.065,1
2.819356,0.769,0.713,0.378,-6.774,-6.347,4.089,1
2.826481,0.762,0.716,0.369,-4.943,-6.835,3.112,1
2.835539,0.753,0.713,0.369,-2.746,-7.812,2.197,1
2.842287,0.75,0.707,0.363,-2.075,-7.934,1.464,1
2.851277,0.747,0.696,0.37,-2.136,-8.972,1.037,1
2.858271,0.733,0.689,0.38,-1.586,-9.094,0.671,1
2.865931,0.734,0.679,0.391,-1.647,-9.399,0.0,1
2.874818,0.734,0.669,0.396,-2.807,-8.911,-0.61,1
2.883268,0.741,0.655,0.403,-6.164,-8.544,-1.098,1
2.892452,0.742,0.649,0.406,-7.202,-8.178,-1.647,1
2.901144,0.747,0.647,0.41,-5.859,-8.178,-2.075,1
2.907844,0.744,0.647,0.42,-2.929,-8.789,-2.502,1
2.916597,0.74,0.645,0.429,-1.586,-8.544,-3.051,1
2.924826,0.739,0.639,0.442,-2.441,-8.117,-3.234,1
2.933684,0.741,0.644,0.457,-3.54,-7.629,-3.479,1
2.940715,0.738,0.65,0.47,-3.234,-7.141,-4.028,1
2.949457,0.74,0.645,0.485,-2.868,-6.958,-4.272,1
2.956912,0.736,0.638,0.495,-3.356,-6.042,-4.638,1
2.965769,0.738,0.625,0.493,-4.699,-5.126,-5.31,1
2.974491,0.74,0.614,0.487,-3.967,-4.272,-6.103,1
2.982612,0.735,0.611,0.486,-1.953,-3.845,-6.347,1
2.991263,0.722,0.602,0.471,-0.732,-3.356,-6.958,1
3.000425,0.715,0.595,0.464,-0.366,-3.295,-7.263,1
3.007364,0.706,0.593,0.465,-0.366,-3.112,-7.568,1
3.016563,0.691,0.586,0.464,-0.366,-2.868,-8.056,1
3.024109,0.69,0.576,0.458,-0.732,-2.197,-7.812,1
3.032908,0.693,0.57,0.454,-0.488,-1.953,-7.873,1
3.040049,0.704,0.559,0.447,-0.61,-1.708,-7.446,1
3.049144,0.707,0.551,0.435,-0.732,-1.098,-7.507,1
3.057667,0.711,0.551,0.418,0.366,-1.098,-7.141,1
3.065107,0.711,0.544,0.414,2.38,-1.22,-6.835,1
3.072895,0.712,0.536,0.409,4.15,-1.342,-6.347,1
3.079376,0.705,0.542,0.405,4.455,-1.525,-5.615,1
3.0874,0.697,0.546,0.405,4.394,-1.525,-5.493,1
3.095029,0.686,0.55,0.411,4.638,-1.77,-5.004,1
3.103815,0.688,0.557,0.41,4.333,-1.892,-4.638,1
3.111176,0.677,0.562,0.414,3.906,-1.831,-4.455,1
3.1198,0.688,0.561,0.413,2.868,-1.831,-4.516,1
3.127277,0.701,0.568,0.433,3.601,-2.014,-4.394,1
3.135885,0.703,0.566,0.437,2.807,-1.953,-4.516,1
3.14378,0.712,0.558,0.438,0.793,-1.708,-4.821,1
3.152678,0.744,0.548,0.444,-1.342,-1.586,-4.516,1
3.159935,0.753,0.552,0.447,-2.319,-1.281,-4.333,1
3.168412,0.753,0.556,0.462,-0.976,-1.586,-3.723,1
3.177573,0.75,0.561,0.466,1.037,-1.525,-3.54,1
3.184607,0.751,0.558,0.476,4.089,-1.342,-3.173,1
3.191426,0.753,0.562,0.478,4.943,-0.732,-2.99,1
3.199024,0.75,0.563,0.477,4.333,0.183,-2.624,1
3.20705,0.749,0.567,0.476,3.784,0.732,-2.441,1
3.213487,0.748,0.565,0.471,3.967,1.525,-2.563,1
3.22085,0.751,0.562,0.465,3.356,2.075,-2.624,1
3.228327,0.754,0.558,0.459,2.929,2.563,-2.441,1
3.236317,0.751,0.549,0.437,2.136,3.051,-2.319,1
3.244927,0.748,0.549,0.425,1.159,3.479,-1.77,1
3.252041,0.745,0.555,0.414,1.525,3.417,-1.892,1
3.260041,0.737,0.559,0.405,3.051,3.295,-1.708,1
3.267246,0.732,0.553,0.39,3.906,3.051,-1.403,1
3.275961,0.727,0.547,0.385,2.868,3.112,-1.464,1
3.282056,0.726,0.544,0.38,1.22,2.868,-1.403,1
3.291414,0.728,0.541,0.372,0.61,2.685,-1.281,1
3.299338,0.73,0.537,0.366,0.671,2.502,-0.976,1
3.305739,0.734,0.537,0.365,1.708,1.525,-0.671,1
3.313236,0.723,0.538,0.367,2.563,0.915,-0.366,1
3.321654,0.724,0.532,0.363,2.929,0.61,-0.183,1
3.330109,0.721,0.529,0.363,2.38,0.732,0.244,1
3.337139,0.707,0.53,0.363,1.892,0.427,0.366,1
3.344174,0.712,0.526,0.354,2.197,0.061,0.549,1
3.351777,0.715,0.521,0.35,2.014,-0.488,0.915,1
3.36055,0.718,0.513,0.345,1.342,-0.793,1.281,1
3.367596,0.718,0.52,0.34,1.403,-1.22,1.647,1
3.376711,0.723,0.528,0.339,2.075,-2.014,2.258,1
3.383715,0.726,0.532,0.349,2.319,-2.807,2.38,1
3.391012,0.72,0.54,0.356,2.746,-3.295,2.807,1
3.398692,0.714,0.548,0.366,3.112,-3.601,2.807,1
3.406193,0.714,0.549,0.375,3.601,-3.967,3.051,1
3.415521,0.716,0.549,0.389,3.417,-4.211,2.99,1
3.422129,0.712,0.549,0.385,1.525,-3.662,3.051,1
3.431031,0.73,0.549,0.39,0.61,-3.845,3.051,1
3.438157,0.739,0.549,0.391,1.831,-3.54,3.051,1
3.446095,0.744,0.546,0.385,2.746,-4.028,3.295,1
3.454243,0.748,0.547,0.384,3.173,-4.394,3.417,1
3.460921,0.743,0.559,0.386,3.173,-4.76,3.54,1
3.468722,0.739,0.566,0.39,2.99,-5.065,3.845,1
3.477482,0.732,0.568,0.402,2.258,-5.493,3.967,1
3.485398,0.731,0.573,0.413,-0.183,-5.371,3.967,1
3.493171,0.729,0.574,0.422,-2.624,-4.821,4.089,1
3.501002,0.732,0.577,0.433,-3.967,-4.516,3.784,1
3.508246,0.732,0.584,0.437,-3.173,-4.211,3.479,1
3.515844,0.737,0.577,0.436,-1.953,-3.967,3.295,1
3.52353,0.743,0.572,0.429,-1.037,-3.906,3.234,1
3.532587,0.75,0.572,0.428,0.122,-3.967,2.929,1
3.539773,0.746,0.574,0.432,2.319,-4.15,3.54,1
3.547575,0.746,0.576,0.432,3.662,-4.394,3.601,1
3.555179,0.737,0.589,0.43,3.479,-4.272,3.479,1
3.562764,0.729,0.594,0.435,2.807,-4.089,3.54,1
3.571783,0.722,0.596,0.438,1.037,-4.15,3.051,1
3.578881,0.726,0.597,0.438,-0.366,-3.967,3.051,1
3.586979,0.719,0.6,0.445,-1.464,-3.723,2.929,1
3.595782,0.721,0.601,0.445,-1.342,-3.54,2.624,1
3.602714,0.71,0.605,0.447,-0.122,-3.54,2.563,1
3.609959,0.708,0.603,0.454,1.586,-3.723,2.197,1
3.617681,0.705,0.606,0.452,2.075,-3.356,2.258,1
3.626947,0.708,0.604,0.451,0.854,-3.234,1.953,1
3.63382,0.716,0.61,0.458,0.854,-3.051,2.075,1
3.643207,0.715,0.611,0.455,1.647,-2.807,1.953,1
3.650425,0.723,0.611,0.464,1.77,-2.624,1.77,1
3.657544,0.717,0.607,0.464,1.342,-2.441,1.464,1
3.66511,0.719,0.606,0.468,0.793,-2.136,1.464,1
3.672813,0.714,0.603,0.467,0.427,-2.014,0.915,1
3.681165,0.722,0.598,0.465,0.061,-2.014,0.915,1
3.688519,0.723,0.589,0.467,-0.122,-1.403,0.671,1
3.696614,0.731,0.574,0.467,0.122,-1.525,0.488,1
3.704748,0.735,0.574,0.461,1.22,-1.22,0.366,1
3.712052,0.723,0.572,0.452,1.77,-1.098,0.61,1
3.719465,0.719,0.568,0.448,1.77,-1.22,0.732,1
3.727927,0.711,0.571,0.446,1.892,-0.976,0.732,1
3.735246,0.704,0.565,0.445,2.014,-1.22,1.037,1
3.744272,0.697,0.571,0.447,1.464,-1.037,1.464,1
3.7512,0.693,0.572,0.457,1.159,-0.976,1.098,1
3.758817,0.685,0.573,0.457,0.915,-0.671,1.464,1
3.766449,0.694,0.57,0.46,0.122,-0.427,1.22,1
3.775542,0.691,0.57,0.46,-0.488,0.0,1.281,1
3.782332,0.702,0.564,0.456,-1.098,0.183,1.098,1
3.789848,0.711,0.56,0.453,-1.708,0.854,1.342,1
3.797489,0.72,0.554,0.442,-0.976,0.793,1.464,1
3.80676,0.735,0.551,0.438,-0.183,0.549,1.647,1
3.813685,0.731,0.551,0.431,1.342,0.427,1.953,1
3.820945,0.731,0.553,0.433,2.441,0.305,2.441,1
3.830098,0.726,0.555,0.425,3.051,-0.305,3.173,1
3.837335,0.715,0.559,0.43,3.051,-0.122,3.295,1
3.845786,0.708,0.563,0.432,2.38,-0.061,3.112,1
3.852667,0.702,0.568,0.431,1.708,0.0,3.295,1
3.859853,0.696,0.569,0.433,0.61,0.244,3.417,1
3.868803,0.697,0.565,0.429,0.244,0.305,3.295,1
3.876045,0.698,0.559,0.426,-0.244,0.427,3.295,1
3.884342,0.702,0.556,0.424,-0.793,0.305,3.417,1
3.891058,0.705,0.555,0.416,-0.854,0.183,3.723,1
3.899206,0.708,0.553,0.41,-0.366,0.061,3.967,1
3.907838,0.706,0.559,0.417,0.732,-0.183,4.211,1
3.914584,0.705,0.569,0.418,2.136,-0.366,4.577,1
3.922312,0.704,0.577,0.418,3.234,-0.427,4.516,1
3.931228,0.7,0.574,0.419,3.784,-0.61,4.577,1
3.938508,0.703,0.575,0.414,2.99,-0.732,4.516,1
3.945753,0.708,0.574,0.419,2.441,-0.61,4.577,1
3.954839,0.707,0.569,0.417,2.746,-0.732,4.577,1
3.962753,0.703,0.573,0.419,3.662,-1.281,4.821,1
3.970816,0.701,0.578,0.428,4.943,-1.464,5.126,1
3.977715,0.692,0.582,0.426,5.187,-1.647,5.249,1
3.985194,0.691,0.583,0.425,3.784,-1.403,5.31,1
3.992925,0.692,0.581,0.424,1.953,-0.976,5.126,1
4.001283,0.698,0.576,0.421,0.732,-0.854,5.004,1
4.00951,0.707,0.572,0.417,0.183,-0.976,5.065,1
4.016629,0.715,0.572,0.412,0.732,-0.976,4.943,1
4.025335,0.717,0.568,0.415,1.77,-1.586,5.432,1
4.032581,0.721,0.57,0.413,2.136,-2.136,5.432,1
4.04156,0.716,0.571,0.421,1.464,-2.136,5.615,1
4.048476,0.711,0.57,0.417,0.366,-2.014,5.981,1
4.057749,0.711,0.572,0.423,-0.854,-2.136,6.042,1
4.064651,0.706,0.573,0.421,-1.647,-2.136,6.164,1
4.073042,0.703,0.569,0.421,-2.258,-2.197,6.591,1
4.080291,0.705,0.571,0.42,-1.647,-2.136,6.53,1
4.08951,0.696,0.57,0.418,-0.549,-2.441,6.53,1
4.096812,0.685,0.57,0.416,0.305,-2.563,6.591,1
4.104581,0.676,0.568,0.409,0.061,-2.624,6.958,1
4.112276,0.668,0.57,0.412,-1.403,-2.746,6.958,1
4.119198,0.656,0.573,0.414,-3.417,-2.868,7.141,1
4.128641,0.651,0.575,0.414,-5.737,-2.685,7.019,1
4.135869,0.662,0.57,0.41,-7.568,-2.685,6.896,1
4.143272,0.671,0.559,0.41,-8.056,-2.929,6.958,1
4.150489,0.688,0.546,0.408,-7.812,-2.99,7.202,1
4.159768,0.707,0.536,0.407,-6.53,-3.479,7.507,1
4.167744,0.707,0.536,0.412,-2.258,-3.906,7.69,1
4.175586,0.709,0.532,0.417,0.122,-4.394,8.666,1
4.183577,0.707,0.526,0.419,0.0,-4.516,9.094,1
4.190561,0.701,0.538,0.421,-0.549,-4.699,9.948,1
4.1995,0.696,0.547,0.423,0.122,-4.699,10.498,1
4.206084,0.693,0.555,0.432,0.732,-4.821,10.925,1
4.213641,0.688,0.56,0.437,1.037,-4.76,10.864,1
4.221486,0.684,0.568,0.436,1.892,-4.821,11.779,1
4.230738,0.679,0.576,0.436,1.831,-4.699,12.145,1
4.238791,0.681,0.59,0.438,2.502,-4.638,12.145,1
4.246271,0.675,0.607,0.441,3.662,-4.882,12.39,1
4.253779,0.676,0.615,0.448,4.455,-4.882,12.512,1
4.26281,0.668,0.629,0.458,4.699,-4.821,12.145,1
4.270137,0.661,0.641,0.467,4.455,-4.821,12.451,1
4.278115,0.66,0.656,0.477,4.821,-4.76,12.145,1
4.285259,0.653,0.667,0.479,4.516,-4.455,12.084,1
4.294093,0.658,0.671,0.489,2.319,-3.784,11.474,1
4.301648,0.661,0.674,0.489,0.244,-3.479,11.108,1
4.310567,0.672,0.68,0.488,-0.61,-3.051,10.681,1
4.317913,0.673,0.692,0.489,0.854,-3.051,10.314,1
4.325924,0.684,0.701,0.493,4.455,-3.234,9.887,1
4.333173,0.689,0.707,0.5,6.896,-3.356,9.338,1
4.342132,0.683,0.712,0.5,7.69,-3.417,8.911,1
4.349252,0.673,0.714,0.504,7.263,-3.173,8.361,1
4.356452,0.666,0.719,0.51,5.981,-2.807,7.568,1
4.365884,0.671,0.718,0.515,4.089,-2.38,6.774,1
4.373116,0.675,0.723,0.517,2.746,-1.953,6.042,1
4.38116,0.668,0.727,0.52,2.075,-1.159,5.371,1
4.388702,0.675,0.723,0.52,1.831,-0.793,4.455,1
4.396872,0.678,0.723,0.516,2.014,-0.244,3.54,1
4.404855,0.677,0.719,0.509,1.831,0.244,3.112,1
4.411858,0.677,0.715,0.511,2.014,0.488,2.502,1
4.41925,0.677,0.71,0.509,2.624,1.037,1.831,1
4.428198,0.676,0.708,0.507,3.601,1.159,1.22,1
4.435276,0.676,0.7,0.508,3.967,1.403,0.854,1
4.442107,0.67,0.693,0.504,3.295,1.831,0.366,1
4.451383,0.665,0.69,0.51,2.929,2.136,-0.061,1
4.458135,0.657,0.683,0.511,2.563,2.563,-0.61,1
4.465676,0.666,0.67,0.511,1.464,3.173,-0.915,1
4.473693,0.664,0.656,0.505,0.122,3.662,-1.159,1
4.481246,0.666,0.642,0.497,-0.427,4.272,-1.586,1
4.489516,0.672,0.627,0.486,-0.427,4.516,-1.708,1
4.497621,0.672,0.615,0.477,-0.183,4.76,-1.77,1
4.505804,0.672,0.606,0.47,0.244,5.004,-1.586,1
4.512786,0.666,0.591,0.464,1.098,4.821,-1.342,1
4.520396,0.666,0.58,0.453,0.488,4.76,-0.976,1
4.529133,0.657,0.572,0.464,1.464,4.882,-0.793,1
4.537817,0.647,0.561,0.455,1.647,5.31,-0.549,1
4.545184,0.652,0.549,0.442,0.305,5.371,-0.122,1
4.552024,0.662,0.535,0.43,-0.305,5.737,0.183,1
4.560903,0.666,0.527,0.413,0.122,5.859,0.976,1
4.567559,0.668,0.523,0.395,0.976,5.798,1.098,1
4.574476,0.67,0.528,0.38,2.014,5.371,2.319,1
4.583176,0.676,0.53,0.365,2.685,5.126,3.112,1
4.590442,0.676,0.537,0.358,0.732,4.577,4.211,1
4.598329,0.669,0.544,0.352,-0.732,4.15,5.31,1
4.605928,0.676,0.555,0.346,-1.403,3.54,5.981,1
4.613867,0.689,0.561,0.341,-1.586,2.746,6.713,1
4.620204,0.685,0.558,0.336,-1.953,2.075,7.019,1
4.628538,0.686,0.565,0.333,-1.953,1.403,7.751,1
4.635488,0.683,0.566,0.325,-1.77,0.366,8.3,1
4.643965,0.679,0.571,0.322,-2.136,-0.305,8.85,1
4.653231,0.666,0.585,0.328,-1.647,-0.915,9.033,1
4.660623,0.649,0.598,0.335,-0.427,-2.075,9.033,1
4.669734,0.643,0.604,0.339,-0.244,-3.051,9.277,1
4.6767,0.643,0.609,0.342,-1.647,-3.662,9.46,1
4.683962,0.636,0.622,0.353,-2.807,-3.967,9.155,1
4.692922,0.631,0.634,0.357,-2.685,-4.638,8.85,1
4.699635,0.627,0.647,0.367,-1.708,-5.554,8.728,1
4.707878,0.625,0.649,0.369,-0.61,-6.469,8.3,1
4.716501,0.617,0.65,0.375,-0.488,-7.019,7.995,1
4.723506,0.611,0.657,0.379,-0.671,-7.568,7.934,1
4.732913,0.604,0.664,0.385,-0.244,-8.117,7.751,1
4.739441,0.598,0.663,0.392,0.305,-8.972,7.263,1
4.747305,0.596,0.661,0.404,0.793,-9.338,7.324,1
4.754862,0.598,0.663,0.418,1.586,-9.765,7.08,1
4.762624,0.599,0.657,0.441,2.685,-10.803,6.774,1
4.770953,0.6,0.655,0.472,2.746,-10.864,6.958,1
4.777625,0.601,0.659,0.504,1.159,-10.925,6.835,1
4.785517,0.604,0.665,0.546,0.183,-10.62,7.019,1
4.792458,0.592,0.679,0.581,-0.732,-9.887,6.835,1
4.800754,0.594,0.688,0.631,-1.403,-9.765,6.591,1
4.809712,0.586,0.683,0.682,-1.708,-8.666,6.347,1
4.816341,0.59,0.675,0.742,-1.953,-7.202,6.225,1
4.824725,0.587,0.67,0.814,0.061,-5.554,6.042,1
4.831761,0.579,0.682,0.911,6.286,-4.272,6.042,1
4.840375,0.58,0.672,1.021,15.319,-2.441,6.164,1
4.847317,0.575,0.653,1.139,22.766,0.488,5.981,1
4.855898,0.581,0.627,1.273,27.16,5.004,6.774,1
4.863277,0.581,0.599,1.413,29.113,11.047,8.483,1
4.871895,0.548,0.597,1.573,31.86,17.883,10.498,1
4.878964,0.528,0.59,1.708,39.306,25.695,12.939,1
4.886361,0.48,0.572,1.846,43.518,33.691,14.953,1
4.894748,0.445,0.549,1.97,42.053,42.846,16.845,1
4.902697,0.437,0.54,2.103,39.306,52.185,19.104,1
4.909177,0.411,0.542,2.252,45.288,62.438,21.118,1
4.918261,0.351,0.519,2.37,51.635,73.12,23.01,1
4.925316,0.322,0.505,2.516,57.8,84.777,25.329,1
4.932799,0.27,0.511,2.637,69.458,98.327,27.893,1
4.941813,0.164,0.515,2.766,78.674,111.755,30.212,1
4.949172,0.077,0.514,2.869,82.397,126.159,32.104,1
4.956736,0.02,0.506,2.954,79.467,142.456,34.301,1
4.963824,-0.067,0.541,3.028,76.232,158.752,36.193,1
4.971527,-0.159,0.568,3.094,75.439,175.17,37.841,1
4.980414,-0.285,0.607,3.163,78.491,191.711,39.855,1
4.98742,-0.404,0.622,3.214,83.74,208.19,41.87,1
4.994794,-0.54,0.632,3.25,86.791,228.027,44.433,1
5.004146,-0.666,0.666,3.266,89.782,245.117,47.119,1
5.010837,-0.816,0.726,3.249,93.383,261.535,49.804,1
5.018498,-0.984,0.802,3.218,96.374,278.015,52.795,1
5.026342,-1.15,0.876,3.167,94.604,294.799,55.053,1
5.0351,-1.325,0.98,3.104,91.491,314.086,57.617,1
5.041767,-1.54,1.116,3.013,90.881,329.406,59.082,1
5.050096,-1.738,1.241,2.94,95.52,343.627,60.546,1
5.058045,-1.938,1.387,2.846,106.323,357.666,61.645,1
5.064835,-2.15,1.52,2.736,120.91,370.544,62.805,1
5.073269,-2.366,1.621,2.605,132.507,383.544,64.941,1
5.080272,-2.562,1.712,2.423,135.131,397.399,67.504,1
5.088982,-2.8,1.856,2.139,129.821,410.827,68.847,1
5.096008,-2.972,1.976,1.852,117.797,425.292,68.054,1
5.104883,-3.103,2.096,1.493,106.018,436.035,64.941,1
5.112037,-3.211,2.192,1.121,92.468,444.274,59.326,1
5.120517,-3.333,2.289,0.656,71.594,452.514,49.987,1
5.12886,-3.434,2.409,0.239,56.091,457.397,40.1,1
5.13562,-3.414,2.476,-0.215,46.63,457.58,28.93,1
5.143924,-3.416,2.503,-0.626,47.912,454.711,16.784,1
5.151796,-3.375,2.508,-1.008,56.701,449.584,6.286,1
5.159981,-3.3,2.53,-1.453,63.72,443.664,-3.723,1
5.166848,-3.188,2.532,-1.803,70.007,431.64,-14.831,1
5.176083,-3.113,2.496,-2.107,76.721,418.945,-23.132,1
5.183151,-2.973,2.406,-2.41,72.631,406.86,-29.846,1
5.191943,-2.806,2.358,-2.628,54.443,391.54,-38.085,1
5.200866,-2.618,2.304,-2.808,41.015,378.845,-45.593,1
5.207969,-2.408,2.236,-3.055,34.545,359.985,-55.053,1
5.216255,-2.235,2.138,-3.233,31.188,343.078,-62.683,1
5.224447,-2.002,1.998,-3.422,18.127,322.265,-71.472,1
5.231832,-1.795,1.873,-3.513,13.061,302.49,-78.552,1
5.240398,-1.59,1.722,-3.589,18.92,281.921,-84.899,1
5.249092,-1.416,1.487,-3.632,15.747,256.835,-91.735,1
5.256322,-1.338,1.301,-3.619,6.835,238.037,-96.74,1
5.264819,-1.011,1.103,-3.545,-5.493,216.369,-101.196,1
5.272279,-0.868,1.002,-3.544,7.385,195.861,-103.393,1
5.281198,-0.719,0.807,-3.541,11.23,175.72,-104.553,1
5.289035,-0.562,0.654,-3.549,-9.399,155.517,-104.675,1
5.298032,-0.416,0.55,-3.522,-24.841,136.23,-104.125,1
5.30495,-0.263,0.427,-3.446,-18.31,113.159,-102.355,1
5.313835,-0.165,0.291,-3.363,-7.995,92.407,-99.365,1
5.320975,-0.083,0.144,-3.228,-1.892,74.096,-95.886,1
5.32912,-0.003,-0.009,-3.061,-4.516,55.664,-90.148,1
5.338296,0.08,-0.082,-2.923,-9.582,41.442,-85.021,1
5.346874,0.141,-0.122,-2.77,-6.713,24.536,-78.063,1
5.354275,0.256,-0.175,-2.633,-4.15,10.681,-71.594,1
5.363477,0.306,-0.209,-2.5,-11.291,-3.601,-63.72,1
5.372314,0.33,-0.215,-2.353,-23.071,-16.357,-56.579,1
5.379682,0.322,-0.167,-2.182,-23.132,-27.526,-50.354,1
5.389065,0.297,-0.141,-2.036,-13.977,-40.466,-44.067,1
5.397939,0.291,-0.134,-1.867,-7.629,-51.147,-38.269,1
5.404639,0.304,-0.095,-1.705,-8.3,-59.387,-32.409,1
5.413186,0.31,-0.047,-1.581,-6.835,-65.979,-27.77,1
5.42215,0.299,-0.005,-1.441,-4.943,-71.105,-24.047,1
5.430017,0.296,0.029,-1.325,-4.272,-76.171,-19.836,1
5.437865,0.313,0.076,-1.211,-4.943,-79.772,-16.54,1
5.446569,0.333,0.137,-1.087,-5.615,-81.97,-13.916,1
5.453723,0.345,0.187,-0.984,-5.859,-84.533,-11.108,1
5.462386,0.366,0.252,-0.87,-6.713,-85.571,-8.605,1
5.470056,0.371,0.324,-0.755,-6.225,-86.242,-7.263,1
5.478852,0.381,0.365,-0.665,-5.859,-85.937,-6.164,1
5.48668,0.398,0.398,-0.57,-7.995,-84.838,-5.615,1
5.495891,0.432,0.425,-0.492,-10.437,-82.824,-4.943,1
5.503044,0.474,0.454,-0.4,-10.253,-80.444,-4.333,1
5.510819,0.517,0.463,-0.307,-12.023,-76.416,-3.662,1
5.519974,0.556,0.472,-0.241,-17.395,-72.57,-3.173,1
5.527833,0.579,0.509,-0.166,-20.019,-67.321,-2.868,1
5.536314,0.589,0.538,-0.128,-20.446,-63.232,-2.685,1
5.544414,0.605,0.561,-0.089,-19.592,-59.02,-2.868,1
5.552317,0.619,0.577,-0.071,-16.967,-54.077,-2.746,1
5.560552,0.627,0.593,-0.075,-15.441,-50.17,-2.929,1
5.569543,0.63,0.603,-0.077,-16.235,-45.471,-3.479,1
5.577505,0.634,0.624,-0.08,-17.944,-41.748,-3.906,1
5.584604,0.641,0.633,-0.091,-18.798,-37.475,-4.821,1
5.593326,0.637,0.643,-0.098,-18.371,-34.24,-5.432,1
5.600605,0.631,0.65,-0.112,-16.479,-30.822,-6.53,1
5.609791,0.633,0.648,-0.127,-14.526,-28.442,-7.507,1
5.617397,0.635,0.638,-0.138,-12.695,-25.695,-8.3,1
5.626611,0.634,0.631,-0.157,-11.413,-22.888,-9.338,1
5.633654,0.651,0.626,-0.17,-11.169,-20.263,-10.192,1
5.6419,0.662,0.627,-0.185,-10.009,-18.371,-10.925,1
5.651274,0.66,0.62,-0.199,-9.643,-16.479,-11.718,1
5.659667,0.664,0.609,-0.204,-11.047,-14.282,-12.451,1
5.66655,0.674,0.603,-0.222,-11.901,-12.207,-12.878,1
5.676293,0.677,0.589,-0.239,-10.498,-10.192,-13.977,1
5.683218,0.679,0.563,-0.26,-7.873,-8.911,-14.465,1
5.692344,0.696,0.543,-0.274,-6.286,-7.568,-14.587,1
5.700268,0.726,0.531,-0.281,-4.882,-6.225,-14.892,1
5.708239,0.731,0.523,-0.292,-4.211,-4.76,-15.136,1
5.718061,0.735,0.503,-0.308,-5.126,-3.479,-15.258,1
5.724697,0.735,0.488,-0.326,-6.53,-1.77,-15.197,1
5.733379,0.744,0.475,-0.349,-9.826,-0.488,-15.075,1
5.740813,0.75,0.472,-0.372,-12.573,0.671,-15.014,1
5.749953,0.739,0.463,-0.385,-12.939,1.403,-14.953,1
5.758343,0.727,0.447,-0.413,-13.061,1.77,-14.953,1
5.765277,0.723,0.432,-0.43,-12.329,2.075,-14.831,1
5.772781,0.745,0.438,-0.444,-10.131,2.441,-14.526,1
5.782466,0.757,0.441,-0.461,-6.469,2.258,-14.16,1
5.790096,0.753,0.435,-0.48,-5.126,2.014,-13.793,1
5.797991,0.758,0.428,-0.491,-7.08,2.38,-13.549,1
5.805923,0.754,0.426,-0.495,-8.422,2.746,-13.244,1
5.815012,0.76,0.413,-0.502,-7.629,2.685,-13.244,1
5.821545,0.753,0.395,-0.511,-7.324,2.807,-13.0,1
5.830846,0.751,0.382,-0.518,-7.568,3.051,-12.634,1
5.838104,0.75,0.368,-0.513,-8.178,3.234,-12.451,1
5.846433,0.741,0.347,-0.523,-8.666,3.479,-12.023,1
5.853363,0.737,0.333,-0.532,-9.094,3.601,-11.047,1
5.862635,0.735,0.318,-0.543,-9.399,3.54,-10.192,1
5.870531,0.735,0.313,-0.556,-8.422,3.234,-9.521,1
5.87873,0.732,0.308,-0.564,-7.141,2.929,-8.789,1
5.886174,0.726,0.301,-0.566,-5.187,2.319,-7.812,1
5.895394,0.725,0.293,-0.574,-3.356,1.77,-7.08,1
5.903465,0.735,0.284,-0.575,-2.38,1.342,-5.981,1
5.911726,0.736,0.278,-0.583,-2.746,0.854,-4.821,1
5.919827,0.746,0.29,-0.587,-3.54,0.671,-3.54,1
5.927474,0.741,0.298,-0.583,-2.38,0.183,-2.99,1
5.935407,0.735,0.302,-0.577,-1.464,-0.305,-1.953,1
5.94391,0.728,0.303,-0.571,-2.014,-0.488,-1.037,1
5.951571,0.736,0.312,-0.567,-4.943,-0.244,-0.122,1
5.959675,0.739,0.341,-0.56,-5.065,-0.61,0.366,1
5.968094,0.729,0.353,-0.546,-2.563,-0.854,0.915,1
5.977021,0.723,0.357,-0.533,-1.464,-0.854,1.22,1
5.98388,0.708,0.361,-0.519,-0.915,-0.671,1.953,1
5.992061,0.716,0.365,-0.519,0.366,-0.732,2.38,1
5.999775,0.715,0.375,-0.513,-0.183,-0.366,2.624,1
6.007679,0.708,0.379,-0.517,-0.976,0.122,2.929,1
6.016861,0.712,0.397,-0.516,-0.549,0.488,3.54,1
6.023744,0.699,0.404,-0.512,1.403,0.488,3.479,1
6.032596,0.698,0.407,-0.514,2.746,0.671,3.967,1
6.040608,0.689,0.406,-0.506,3.479,1.037,4.211,1
6.047628,0.685,0.403,-0.511,3.479,1.281,4.516,1
6.056547,0.695,0.413,-0.506,4.638,1.22,4.882,1
6.064514,0.7,0.432,-0.499,7.08,1.525,5.126,1
6.071826,0.705,0.443,-0.51,6.958,1.525,5.249,1
6.080181,0.691,0.452,-0.51,5.249,1.647,5.249,1
6.08693,0.692,0.458,-0.51,3.356,2.319,4.943,1
6.094749,0.704,0.469,-0.508,2.868,2.563,4.821,1
6.102068,0.704,0.471,-0.5,4.089,2.929,4.882,1
6.110144,0.704,0.479,-0.499,2.807,3.356,4.455,1
6.117528,0.703,0.483,-0.508,0.488,4.15,4.211,1
6.125103,0.708,0.494,-0.506,0.0,4.394,3.784,1
6.133549,0.709,0.497,-0.513,1.525,4.455,3.54,1
6.141237,0.717,0.497,-0.52,3.234,4.699,3.356,1
6.149059,0.719,0.506,-0.523,3.906,4.638,2.929,1
6.158325,0.715,0.498,-0.532,3.601,5.126,2.807,1
6.165713,0.717,0.497,-0.538,3.356,5.004,2.441,1
6.172768,0.721,0.482,-0.542,2.624,5.371,2.258,1
6.181698,0.725,0.488,-0.556,1.77,5.371,2.136,1
6.188588,0.73,0.504,-0.564,3.234,5.126,2.014,1
6.196064,0.728,0.507,-0.573,4.699,4.638,1.403,1
6.205039,0.721,0.505,-0.574,4.821,4.15,1.22,1
6.211924,0.717,0.497,-0.578,3.112,3.784,0.732,1
6.22071,0.717,0.499,-0.578,0.549,4.089,0.549,1
6.227885,0.711,0.511,-0.587,-1.403,4.028,0.061,1
6.2355,0.713,0.516,-0.587,-0.183,3.723,-0.305,1
6.244124,0.711,0.509,-0.591,1.403,3.112,-0.793,1
6.251635,0.714,0.506,-0.601,1.77,2.685,-1.464,1
6.260789,0.719,0.5,-0.609,1.281,2.319,-1.525,1
6.267526,0.727,0.5,-0.608,1.892,1.77,-2.014,1
6.27515,0.732,0.486,-0.611,3.845,1.342,-2.136,1
6.282784,0.733,0.478,-0.612,5.187,0.549,-2.319,1
6.291913,0.731,0.465,-0.609,6.103,0.244,-2.624,1
6.299097,0.732,0.453,-0.606,6.164,-0.244,-2.441,1
6.307,0.732,0.447,-0.604,4.882,-0.488,-2.502,1
6.314773,0.723,0.438,-0.604,2.075,-0.793,-2.197,1
6.323833,0.721,0.441,-0.598,1.037,-0.854,-1.953,1
6.332121,0.716,0.442,-0.593,0.915,-1.525,-2.014,1
6.339507,0.716,0.437,-0.588,0.915,-1.831,-1.586,1
6.34737,0.72,0.435,-0.578,0.549,-2.014,-1.525,1
6.355954,0.717,0.449,-0.578,-0.122,-2.075,-1.464,1
6.362995,0.711,0.455,-0.569,0.244,-2.258,-1.647,1
6.37116,0.707,0.456,-0.561,1.647,-2.441,-1.586,1
6.379531,0.709,0.449,-0.557,2.441,-2.563,-1.708,1
6.385858,0.707,0.445,-0.546,2.441,-2.746,-1.708,1
6.393332,0.713,0.447,-0.541,2.868,-2.441,-1.77,1
6.402206,0.712,0.438,-0.545,1.953,-2.441,-1.831,1
6.409333,0.705,0.434,-0.538,0.549,-1.892,-1.892,1
6.418571,0.708,0.436,-0.541,0.122,-1.892,-1.647,1
6.425504,0.706,0.433,-0.541,0.549,-1.708,-1.647,1
6.434586,0.71,0.431,-0.54,1.525,-1.892,-1.647,1
6.442029,0.711,0.436,-0.537,2.258,-2.075,-1.281,1
6.450748,0.72,0.426,-0.537,1.342,-1.586,-1.342,1
6.458293,0.726,0.427,-0.536,-0.732,-1.342,-0.793,1
6.467301,0.734,0.432,-0.534,-1.647,-1.464,-0.549,1
6.476138,0.718,0.423,-0.532,-2.746,-1.342,-0.793,1
6.484889,0.722,0.433,-0.529,-1.464,-0.976,-0.305,1
6.491643,0.711,0.436,-0.528,0.305,-1.403,-0.183,1
6.499265,0.703,0.437,-0.52,1.525,-0.854,0.122,1
6.508086,0.709,0.439,-0.521,1.22,-0.915,0.366,1
6.515299,0.707,0.448,-0.516,1.098,-0.732,0.427,1
6.524279,0.713,0.445,-0.519,0.732,-0.549,0.549,1
6.530904,0.715,0.453,-0.52,-0.183,-0.732,0.549,1
6.539201,0.709,0.454,-0.517,-0.122,-0.549,0.549,1
6.548294,0.708,0.451,-0.518,0.183,-0.366,0.61,1
6.555086,0.707,0.453,-0.513,1.22,-0.427,0.366,1
6.56258,0.712,0.446,-0.505,1.525,0.061,0.549,1
6.571345,0.714,0.444,-0.505,0.61,0.305,0.61,1
6.578481,0.726,0.446,-0.507,0.061,0.488,0.671,1
6.586013,0.731,0.453,-0.509,0.183,0.976,0.61,1
6.595288,0.729,0.459,-0.511,0.976,1.098,0.427,1
6.602136,0.72,0.456,-0.514,0.854,1.159,0.671,1
6.61065,0.72,0.462,-0.515,-0.244,1.525,0.549,1
6.617411,0.718,0.461,-0.519,0.061,1.708,0.549,1
6.624448,0.715,0.459,-0.519,1.159,1.77,0.427,1
6.633584,0.711,0.457,-0.525,1.708,1.647,0.488,1
6.640747,0.712,0.457,-0.531,1.464,1.831,0.305,1
6.648764,0.709,0.46,-0.532,1.281,2.014,0.244,1
6.656112,0.713,0.457,-0.536,1.647,1.953,0.366,1
6.664991,0.712,0.463,-0.532,2.38,1.708,0.366,1
6.672339,0.709,0.458,-0.535,2.99,1.892,0.183,1
6.67989,0.708,0.456,-0.539,2.746,2.075,0.061,1
6.687606,0.718,0.456,-0.538,1.892,2.38,0.183,1
6.695853,0.727,0.46,-0.542,1.281,2.38,0.0,1
6.703994,0.73,0.461,-0.544,2.136,2.197,-0.122,1
6.712392,0.733,0.459,-0.547,2.624,2.38,-0.122,1
6.71948,0.734,0.457,-0.552,2.563,2.136,-0.061,1
6.728156,0.733,0.465,-0.554,2.441,2.075,0.0,1
6.735751,0.723,0.464,-0.558,2.136,2.014,-0.061,1
6.743396,0.718,0.461,-0.558,1.831,1.953,0.0,1
6.752235,0.708,0.462,-0.563,1.586,2.075,-0.427,1
6.760146,0.698,0.459,-0.56,1.77,1.77,-0.305,1
6.767403,0.698,0.454,-0.565,2.38,1.708,-0.366,1
6.775982,0.701,0.458,-0.571,1.708,1.403,-0.366,1
6.784723,0.704,0.457,-0.569,2.136,1.159,-0.183,1
6.792232,0.702,0.458,-0.568,2.319,1.037,-0.183,1
6.799407,0.708,0.459,-0.565,1.525,0.976,-0.183,1
6.808725,0.713,0.462,-0.565,0.732,0.732,-0.305,1
6.816051,0.719,0.462,-0.567,0.122,0.61,-0.305,1
6.82501,0.716,0.464,-0.569,-0.488,0.732,-0.61,1
6.832653,0.72,0.46,-0.569,-0.61,0.61,-0.305,1
6.8402,0.721,0.452,-0.573,-1.037,0.488,-0.366,1
6.848442,0.72,0.442,-0.572,-1.525,0.488,-0.427,1
6.855916,0.724,0.439,-0.571,-1.586,0.305,-0.244,1
6.8646,0.727,0.438,-0.57,-0.488,0.061,0.061,1
6.871403,0.72,0.435,-0.567,0.366,0.061,0.244,1
6.880461,0.713,0.431,-0.566,-0.366,-0.061,0.366,1
6.887438,0.707,0.433,-0.563,-1.037,-0.122,0.549,1
6.895204,0.704,0.437,-0.563,-0.915,-0.305,0.854,1
6.903865,0.698,0.439,-0.562,-0.305,-0.488,1.098,1
6.911513,0.687,0.445,-0.567,-0.244,-0.366,0.976,1
6.920646,0.689,0.447,-0.57,-0.488,-0.366,1.22,1
6.927975,0.69,0.445,-0.57,-0.61,-0.732,1.22,1
6.937227,0.699,0.449,-0.57,-0.915,-0.793,1.159,1
6.945,0.706,0.457,-0.57,-0.427,-1.098,1.464,1
6.952213,0.708,0.462,-0.569,0.732,-1.342,1.403,1
6.961036,0.709,0.466,-0.567,1.281,-1.403,1.525,1
6.967986,0.708,0.47,-0.565,0.549,-1.77,1.342,1
6.976795,0.72,0.481,-0.56,-0.488,-1.953,0.915,1
6.984235,0.721,0.492,-0.555,-0.549,-2.197,0.732,1
6.992562,0.724,0.496,-0.545,0.793,-2.441,0.488,1
7.001683,0.731,0.494,-0.541,1.342,-2.441,0.244,1
7.008316,0.716,0.496,-0.533,1.159,-2.624,-0.061,1
7.017422,0.721,0.495,-0.523,0.244,-2.319,-0.549,1
7.024691,0.731,0.499,-0.517,1.037,-2.38,-0.488,1
7.033534,0.729,0.495,-0.494,2.685,-1.953,-0.976,1
7.040419,0.729,0.494,-0.49,3.417,-2.136,-0.976,1
7.048078,0.729,0.495,-0.484,2.685,-1.464,-1.281,1
7.056863,0.726,0.497,-0.479,2.685,-0.976,-1.647,1
7.065501,0.724,0.494,-0.474,2.929,-0.732,-1.708,1
7.072554,0.721,0.491,-0.468,2.929,-0.183,-2.014,1
7.081413,0.717,0.489,-0.467,2.868,0.305,-2.258,1
7.088413,0.722,0.485,-0.459,3.234,0.732,-2.319,1
7.097766,0.724,0.482,-0.457,4.333,1.159,-2.563,1
7.104602,0.727,0.482,-0.452,4.638,1.586,-2.502,1
7.112973,0.722,0.479,-0.45,4.638,2.502,-2.929,1
7.120358,0.723,0.476,-0.45,4.76,3.051,-3.173,1
7.129063,0.722,0.472,-0.447,4.943,3.723,-3.356,1
7.135996,0.719,0.469,-0.448,4.943,4.089,-3.356,1
7.144261,0.716,0.47,-0.45,5.187,4.882,-3.479,1
7.15176,0.716,0.464,-0.443,5.737,5.859,-3.54,1
7.159539,0.704,0.452,-0.442,6.225,6.652,-3.662,1
7.167994,0.706,0.449,-0.434,6.652,7.446,-3.54,1
7.175121,0.711,0.442,-0.42,8.422,8.422,-3.662,1
7.183951,0.711,0.426,-0.42,12.145,9.094,-3.54,1
7.191363,0.706,0.4,-0.419,16.601,10.314,-3.356,1
7.198976,0.696,0.38,-0.426,17.822,11.413,-2.624,1
7.207483,0.68,0.368,-0.447,17.395,12.756,-1.647,1
7.214124,0.667,0.355,-0.467,15.686,14.099,-1.098,1
7.222859,0.648,0.347,-0.499,13.366,15.747,-0.244,1
7.230653,0.609,0.341,-0.529,9.826,16.967,0.305,1
7.238068,0.585,0.333,-0.565,8.483,18.615,0.732,1
7.246186,0.58,0.322,-0.608,8.911,19.653,1.403,1
7.253562,0.568,0.302,-0.641,8.483,20.751,2.319,1
7.261962,0.539,0.284,-0.692,6.835,21.362,3.112,1
7.269483,0.508,0.262,-0.74,5.92,21.911,4.272,1
7.276993,0.491,0.227,-0.784,5.187,22.888,5.676,1
7.284663,0.477,0.195,-0.831,3.051,23.803,7.324,1
7.292384,0.464,0.173,-0.885,-1.525,25.329,9.399,1
7.301494,0.459,0.15,-0.951,-7.141,26.184,11.596,1
7.308482,0.454,0.129,-1.009,-11.718,26.733,14.038,1
7.316066,0.465,0.092,-1.097,-18.859,28.076,17.333,1
7.324975,0.477,0.059,-1.198,-30.639,28.442,20.324,1
7.332261,0.477,0.026,-1.303,-47.241,29.663,23.864,1
7.340067,0.432,0.007,-1.444,-65.673,29.724,27.832,1
7.348716,0.364,-0.001,-1.562,-78.857,28.32,32.409,1
7.357038,0.315,-0.037,-1.688,-83.557,26.0,36.987,1
7.364073,0.259,-0.114,-1.836,-94.421,23.315,42.053,1
7.373187,0.209,-0.184,-2.086,-117.126,20.629,48.889,1
7.380316,0.117,-0.239,-2.336,-123.168,13.916,55.786,1
7.389425,0.046,-0.4,-2.698,-115.6,4.272,65.429,1
7.397132,0.028,-0.59,-3.158,-116.333,-6.53,75.134,1
7.406125,0.001,-0.801,-3.759,-126.281,-21.484,86.547,1
7.41321,-0.152,-0.987,-4.237,-153.137,-43.457,101.623,1
7.422763,-0.291,-1.123,-4.681,-169.372,-69.335,118.713,1
7.430116,-0.452,-1.219,-5.0,-169.006,-96.74,133.972,1
7.439429,-0.681,-1.299,-5.238,-163.452,-131.713,152.465,1
7.448242,-0.969,-1.349,-5.359,-168.151,-169.738,171.203,1
7.455403,-1.286,-1.336,-5.345,-165.466,-203.063,188.171,1
7.464209,-1.652,-1.232,-5.248,-147.094,-243.225,207.824,1
7.472746,-2.1,-1.111,-5.067,-133.605,-278.32,224.731,1
7.481124,-2.525,-0.919,-4.789,-117.797,-317.016,244.018,1
7.489729,-2.936,-0.659,-4.409,-109.008,-351.501,262.634,1
7.496409,-3.318,-0.263,-3.927,-104.37,-378.845,278.381,1
7.504859,-3.73,0.136,-3.478,-100.036,-402.099,292.358,1
7.513895,-4.138,0.567,-3.0,-110.839,-426.94,306.335,1
7.520897,-4.554,1.069,-2.448,-106.079,-443.542,315.979,1
7.528754,-4.983,1.557,-1.834,-99.06,-462.829,321.96,1
7.537656,-5.42,2.109,-1.187,-81.542,-472.534,322.814,1
7.546421,-5.661,2.727,-0.46,-45.471,-482.91,315.734,1
7.553274,-5.674,3.191,0.185,-14.953,-487.243,300.415,1
7.561541,-5.513,3.669,0.941,13.122,-486.938,279.907,1
7.569902,-5.182,4.072,1.574,54.87,-483.337,246.826,1
7.57843,-4.77,4.251,2.214,83.923,-473.144,214.05,1
7.5855,-4.279,4.232,2.676,92.224,-456.542,174.072,1
7.594129,-3.855,4.119,3.113,86.425,-435.241,141.357,1
7.601449,-3.242,3.701,3.454,29.846,-407.836,118.103,1
7.610498,-2.663,3.884,3.645,16.723,-372.68,86.608,1
7.617824,-1.905,3.786,3.981,62.072,-353.027,61.889,1
7.626438,-1.321,3.502,4.116,82.214,-318.969,39.245,1
7.633715,-0.85,3.254,4.222,47.424,-282.836,15.258,1
7.642978,-0.428,3.049,4.182,12.207,-246.643,-1.281,1
7.650792,0.003,2.814,4.086,-10.986,-212.341,-17.272,1
7.6601,0.349,2.497,3.879,-12.084,-185.302,-28.015,1
7.667927,0.595,2.224,3.668,-14.038,-158.935,-38.024,1
7.674913,0.777,1.978,3.451,-17.822,-138.305,-43.762,1
7.683756,0.882,1.79,3.215,-18.493,-116.882,-48.583,1
7.690744,0.889,1.7,3.01,-15.441,-101.684,-52.856,1
7.700363,0.848,1.589,2.826,-20.263,-86.364,-57.434,1
7.707664,0.75,1.482,2.599,-32.348,-69.763,-62.072,1
7.715392,0.674,1.36,2.394,-36.254,-57.678,-66.284,1
7.723857,0.584,1.227,2.187,-35.339,-44.433,-70.678,1
7.732305,0.52,1.072,1.98,-35.4,-34.79,-73.974,1
7.739176,0.488,0.911,1.778,-34.362,-26.672,-75.927,1
7.747513,0.474,0.745,1.576,-35.705,-19.531,-76.599,1
7.755367,0.469,0.668,1.436,-34.362,-12.512,-75.439,1
7.763776,0.437,0.621,1.334,-22.46,-7.446,-73.974,1
7.771794,0.409,0.579,1.226,-7.324,-1.464,-71.472,1
7.7808,0.393,0.541,1.118,-5.004,3.051,-69.213,1
7.788152,0.406,0.491,0.994,-10.986,9.399,-65.856,1
7.795696,0.427,0.454,0.881,-17.578,13.549,-62.683,1
7.803292,0.441,0.416,0.778,-19.104,16.174,-60.058,1
7.811178,0.463,0.371,0.687,-15.563,17.7,-56.823,1
7.818977,0.493,0.312,0.581,-11.413,18.981,-53.588,1
7.828297,0.502,0.27,0.507,-9.338,19.409,-49.377,1
7.835477,0.5,0.246,0.441,-11.84,19.775,-46.02,1
7.844348,0.499,0.244,0.401,-13.732,19.531,-42.846,1
7.852544,0.507,0.246,0.372,-12.756,18.92,-38.696,1
7.859868,0.52,0.256,0.344,-11.535,18.493,-35.766,1
7.86889,0.53,0.262,0.318,-10.009,18.127,-32.409,1
7.875882,0.534,0.283,0.307,-8.422,18.127,-29.785,1
7.883161,0.535,0.304,0.289,-6.652,17.211,-27.16,1
7.892137,0.54,0.322,0.285,-5.004,16.601,-25.024,1
7.899399,0.554,0.313,0.271,-3.356,16.54,-22.583,1
7.90781,0.573,0.308,0.263,-4.455,16.784,-19.836,1
7.917536,0.6,0.311,0.238,-7.385,16.784,-17.089,1
7.924884,0.64,0.328,0.233,-7.324,16.174,-14.526,1
7.931796,0.644,0.362,0.247,-3.784,16.296,-12.329,1
7.940956,0.641,0.394,0.248,-1.037,16.296,-9.948,1
7.947336,0.653,0.413,0.238,-2.197,16.784,-8.3,1
7.956739,0.661,0.438,0.243,-4.455,16.479,-6.53,1
7.964185,0.671,0.483,0.257,-6.713,16.479,-5.126,1
7.971996,0.672,0.524,0.265,-5.31,16.967,-3.601,1
7.978834,0.683,0.55,0.238,-3.295,16.906,-2.441,1
7.986952,0.695,0.567,0.219,-2.685,16.54,-1.77,1
7.994323,0.708,0.583,0.193,-3.479,16.662,-0.976,1
8.003186,0.72,0.607,0.164,-5.187,15.991,-0.183,1
8.01,0.73,0.637,0.142,-6.408,15.258,0.183,1
8.017372,0.747,0.651,0.128,-7.324,14.648,0.244,1
8.024934,0.752,0.663,0.124,-8.544,13.488,0.427,1
8.032154,0.752,0.685,0.137,-9.521,12.878,0.549,1
8.040051,0.749,0.713,0.14,-7.751,11.962,0.305,1
8.04949,0.746,0.746,0.14,-5.615,11.23,-0.488,1
8.056753,0.734,0.759,0.14,-5.126,10.314,-1.403,1
8.064761,0.731,0.769,0.14,-7.324,10.131,-2.258,1
8.071593,0.732,0.776,0.131,-9.338,9.948,-3.234,1
8.079246,0.732,0.778,0.113,-9.826,9.46,-4.211,1
8.088138,0.731,0.778,0.09,-8.117,8.422,-5.493,1
8.095366,0.735,0.77,0.081,-4.638,7.324,-6.652,1
8.104031,0.73,0.755,0.058,-4.516,6.591,-7.629,1
8.111325,0.745,0.737,0.026,-7.629,5.615,-8.117,1
8.119215,0.753,0.727,0.01,-9.765,4.272,-8.728,1
8.127261,0.77,0.707,0.006,-10.192,2.868,-9.704,1
8.136352,0.78,0.691,0.014,-9.216,1.403,-10.07,1
8.144903,0.78,0.677,0.029,-7.751,-0.427,-10.314,1
8.15182,0.779,0.663,0.04,-7.751,-1.586,-10.681,1
8.159499,0.771,0.649,0.056,-8.422,-2.563,-10.742,1
8.168861,0.763,0.636,0.067,-8.056,-3.417,-11.047,1
8.17578,0.762,0.621,0.066,-7.019,-4.028,-10.681,1
8.184829,0.748,0.605,0.061,-6.347,-5.004,-10.559,1
8.192183,0.746,0.588,0.049,-6.835,-6.042,-9.948,1
8.199586,0.753,0.581,0.043,-6.713,-7.141,-9.765,1
8.208077,0.733,0.586,0.051,-4.394,-8.483,-9.216,1
8.215779,0.738,0.582,0.055,-3.112,-10.009,-8.728,1
8.224098,0.737,0.572,0.068,-3.723,-10.681,-8.239,1
8.231708,0.737,0.57,0.09,-5.493,-11.779,-7.568,1
8.240465,0.738,0.576,0.122,-5.615,-12.268,-6.774,1
8.248299,0.748,0.58,0.145,-4.028,-12.512,-6.286,1
8.256767,0.747,0.584,0.177,-2.685,-12.512,-5.371,1
8.264957,0.752,0.586,0.186,-3.051,-12.145,-4.699,1
8.273576,0.761,0.591,0.197,-3.906,-11.474,-4.516,1
8.280807,0.764,0.604,0.202,-3.662,-10.803,-3.967,1
8.289562,0.776,0.596,0.206,-3.479,-10.62,-3.54,1
8.296738,0.784,0.591,0.209,-4.15,-10.009,-3.051,1
8.305341,0.793,0.594,0.216,-4.15,-9.704,-2.624,1
8.313227,0.794,0.597,0.23,-2.807,-8.972,-2.38,1
8.321764,0.788,0.599,0.247,-1.953,-8.544,-2.075,1
8.328865,0.785,0.598,0.254,-2.624,-7.385,-1.647,1
8.336471,0.785,0.608,0.264,-2.319,-6.469,-1.342,1
8.344692,0.785,0.612,0.265,-1.953,-5.859,-1.22,1
8.353993,0.771,0.614,0.263,-2.38,-4.699,-1.098,1
8.360897,0.765,0.619,0.26,-4.272,-3.845,-0.976,1
8.370113,0.752,0.62,0.262,-5.554,-2.624,-0.854,1
8.376357,0.753,0.626,0.251,-5.554,-2.075,-0.488,1
8.385417,0.742,0.624,0.238,-4.76,-1.403,-0.427,1
8.392875,0.733,0.615,0.229,-4.638,-0.915,-0.122,1
8.40132,0.726,0.619,0.218,-4.333,-0.61,0.305,1
8.409771,0.72,0.626,0.208,-3.173,-0.549,0.305,1
8.417373,0.719,0.626,0.204,-1.77,-0.244,0.61,1
8.424103,0.719,0.623,0.199,-1.586,-0.183,1.037,1
8.432403,0.717,0.619,0.196,-1.342,-0.366,1.403,1
8.441276,0.711,0.625,0.2,0.0,-0.244,1.586,1
8.447845,0.71,0.629,0.199,0.305,-0.183,2.075,1
8.456062,0.723,0.625,0.195,-1.281,-0.305,2.258,1
8.464828,0.725,0.631,0.197,-2.99,0.0,2.99,1
8.471988,0.742,0.628,0.204,-2.38,-0.122,2.807,1
8.478896,0.745,0.63,0.207,-1.281,0.549,3.295,1
8.487865,0.745,0.644,0.204,-0.183,0.488,3.601,1
8.4952,0.743,0.66,0.203,1.892,0.732,3.479,1
8.503591,0.753,0.667,0.193,2.685,0.854,3.295,1
8.510722,0.756,0.672,0.186,1.159,0.732,3.54,1
8.51902,0.755,0.675,0.185,0.183,0.854,3.417,1
8.526431,0.757,0.677,0.189,0.183,0.61,2.99,1
8.53452,0.756,0.675,0.195,1.647,0.61,2.929,1
8.54257,0.753,0.675,0.19,1.831,0.671,2.929,1
8.550457,0.751,0.68,0.187,1.464,0.488,2.746,1
8.557552,0.747,0.686,0.193,2.014,0.671,2.624,1
8.566307,0.74,0.692,0.196,2.624,0.061,2.258,1
8.572883,0.737,0.682,0.2,2.014,0.061,2.075,1
8.579843,0.743,0.678,0.203,1.342,0.122,2.014,1
8.587494,0.746,0.67,0.208,0.61,0.122,2.197,1
8.595467,0.75,0.659,0.2,-0.122,0.61,1.892,1
8.603008,0.755,0.655,0.202,0.305,0.549,2.136,1
8.611565,0.759,0.655,0.197,1.831,0.366,2.258,1
8.618649,0.763,0.652,0.187,3.051,0.244,2.502,1
8.626179,0.763,0.646,0.176,2.441,0.305,2.746,1
8.633652,0.764,0.645,0.169,1.22,0.244,2.563,1
8.642553,0.763,0.649,0.17,1.281,-0.061,2.929,1
8.649151,0.761,0.658,0.167,2.502,-0.549,2.99,1
8.656731,0.757,0.666,0.172,3.906,-0.915,3.173,1
8.665052,0.752,0.675,0.177,4.394,-1.22,2.99,1
8.672592,0.744,0.67,0.176,2.99,-1.159,2.624,1
8.679388,0.746,0.67,0.187,1.831,-1.708,2.685,1
8.686884,0.741,0.679,0.199,2.319,-1.708,2.319,1
8.697217,0.746,0.67,0.198,3.479,-1.831,1.953,1
8.704861,0.75,0.662,0.191,3.234,-2.014,1.953,1
8.712042,0.749,0.653,0.187,3.112,-2.197,1.77,1
8.719518,0.763,0.65,0.188,3.356,-2.502,1.831,1
8.7287,0.766,0.653,0.19,4.943,-3.112,1.892,1
8.73504,0.758,0.653,0.192,6.713,-3.234,1.831,1
8.743911,0.756,0.657,0.202,7.812,-3.601,1.831,1
8.751419,0.747,0.656,0.211,8.239,-3.662,1.708,1
8.758027,0.738,0.66,0.226,8.3,-3.723,1.586,1
8.766404,0.727,0.668,0.236,7.629,-3.479,1.525,1
8.773352,0.721,0.664,0.246,6.164,-3.295,1.77,1
8.781682,0.721,0.665,0.248,4.211,-2.502,1.525,1
8.789002,0.725,0.655,0.252,2.563,-1.831,1.586,1
8.796878,0.729,0.656,0.247,0.61,-1.159,1.77,1
8.804467,0.728,0.645,0.245,-0.915,-0.793,1.831,1
8.812388,0.735,0.646,0.237,-1.22,-0.061,2.136,1
8.821251,0.751,0.641,0.222,-0.793,0.0,2.38,1
8.827961,0.756,0.643,0.223,-0.122,-0.061,2.502,1
8.835545,0.748,0.647,0.226,1.22,-0.183,2.685,1
8.843432,0.752,0.646,0.228,1.647,-0.061,2.685,1
8.852387,0.751,0.647,0.23,2.38,0.061,2.624,1
8.859844,0.752,0.653,0.232,2.746,0.183,2.99,1
8.867213,0.751,0.655,0.231,2.746,0.488,3.051,1
8.875178,0.75,0.659,0.231,2.319,0.793,2.929,1
8.883056,0.757,0.658,0.228,1.403,0.915,3.051,1
8.890148,0.757,0.669,0.231,0.61,1.037,2.685,1
8.898049,0.753,0.642,0.231,-2.136,1.281,3.234,1
8.906106,0.755,0.673,0.226,-2.197,2.075,2.99,1
8.913046,0.751,0.684,0.223,-0.732,1.586,2.441,1
8.921652,0.749,0.669,0.217,1.464,1.892,2.136,1
8.92966,0.747,0.663,0.202,-0.183,1.892,2.014,1
8.937458,0.739,0.669,0.198,-0.793,1.831,2.014,1
8.9453,0.735,0.669,0.185,-0.122,2.014,2.319,1
8.953237,0.733,0.662,0.174,0.244,1.647,2.136,1
8.960188,0.722,0.66,0.164,-0.244,1.281,2.014,1
8.96791,0.725,0.662,0.158,-0.488,0.915,2.014,1
8.975516,0.711,0.669,0.16,0.244,0.793,2.075,1
8.983172,0.715,0.666,0.154,0.366,0.366,1.831,1
8.992387,0.712,0.666,0.155,0.488,-0.061,1.892,1
9.000327,0.707,0.669,0.159,-0.305,-0.61,1.953,1
9.007679,0.71,0.673,0.164,-1.037,-0.793,2.014,1
9.01622,0.709,0.684,0.175,-0.244,-1.403,2.014,1
9.023819,0.718,0.691,0.18,1.342,-1.708,1.708,1
9.032652,0.727,0.691,0.183,2.441,-2.014,1.464,1
9.039302,0.733,0.689,0.19,2.563,-2.197,1.342,1
9.04838,0.737,0.688,0.2,1.525,-2.197,1.403,1
9.055888,0.747,0.69,0.204,0.305,-1.892,1.342,1
9.064874,0.748,0.693,0.206,-0.305,-1.831,1.098,1
9.072038,0.756,0.698,0.213,-0.427,-1.647,1.037,1
9.079275,0.757,0.698,0.215,-0.366,-1.831,0.915,1
9.087363,0.755,0.699,0.222,-0.366,-1.525,0.427,1
9.096726,0.759,0.698,0.226,-0.793,-0.976,0.305,1
9.104592,0.754,0.704,0.225,-1.22,-0.976,0.183,1
9.113442,0.753,0.698,0.211,-1.647,-0.61,-0.061,1
9.120231,0.76,0.699,0.206,-2.136,-0.671,-0.244,1
9.128446,0.761,0.691,0.198,-1.586,-0.671,-0.915,1
9.137593,0.763,0.687,0.198,-0.793,-0.732,-0.793,1
9.144632,0.756,0.683,0.197,0.183,-1.22,-1.037,1
9.152998,0.747,0.677,0.203,1.098,-1.342,-1.22,1
9.161109,0.748,0.672,0.209,0.854,-1.22,-1.342,1
9.168409,0.734,0.665,0.216,-0.366,-0.976,-1.342,1
9.176937,0.723,0.672,0.225,-0.915,-0.366,-1.464,1
9.184289,0.729,0.671,0.225,-0.427,-0.244,-1.159,1
9.19346,0.732,0.664,0.215,1.159,0.0,-1.403,1
9.201113,0.734,0.66,0.209,2.502,0.305,-1.647,1
9.208517,0.737,0.654,0.207,2.929,0.061,-1.403,1
9.21598,0.738,0.654,0.206,3.479,0.0,-1.342,1
9.224803,0.74,0.652,0.205,4.577,-0.427,-1.22,1
9.232401,0.739,0.646,0.207,4.76,-0.122,-0.854,1
9.240553,0.74,0.645,0.208,4.699,0.0,-0.671,1
9.248263,0.739,0.652,0.209,4.821,-0.488,-0.671,1
9.255679,0.739,0.661,0.215,7.873,-0.732,-0.671,1
9.263828,0.74,0.663,0.229,14.038,-1.403,-0.671,1
9.272056,0.743,0.663,0.234,20.202,-1.586,-0.671,1
9.280266,0.748,0.658,0.23,23.559,-1.708,-0.305,1
9.28704,0.742,0.65,0.221,22.399,-1.403,-0.427,1
9.296287,0.738,0.647,0.218,17.7,-1.403,-0.305,1
9.304616,0.738,0.646,0.229,13.854,-1.098,-0.305,1
9.312217,0.737,0.643,0.233,13.0,-0.976,-0.244,1
9.319282,0.744,0.643,0.234,14.404,-1.098,0.0,1
9.328406,0.744,0.647,0.233,19.104,-0.854,0.122,1
9.33456,0.75,0.635,0.213,21.911,-1.22,0.366,1
9.342553,0.751,0.622,0.203,20.263,-1.281,0.793,1
9.351024,0.735,0.621,0.19,15.869,-1.098,0.976,1
9.359122,0.728,0.626,0.19,10.986,-0.854,1.159,1
9.366203,0.729,0.627,0.184,7.385,-0.976,1.647,1
9.373181,0.723,0.633,0.195,5.615,-0.976,1.77,1
9.381854,0.711,0.642,0.193,6.286,-1.098,1.77,1
9.38885,0.711,0.642,0.187,8.544,-1.586,1.953,1
9.396372,0.733,0.639,0.192,10.742,-2.319,1.892,1
9.40549,0.728,0.641,0.178,18.066,-3.112,2.502,1
9.412639,0.703,0.649,0.197,21.85,-4.699,2.319,1
9.420181,0.707,0.655,0.205,22.338,-4.516,2.136,1
9.427798,0.725,0.665,0.223,19.531,-4.882,1.953,1
9.435205,0.723,0.664,0.23,13.671,-4.15,1.525,1
9.442531,0.722,0.673,0.244,6.591,-3.601,1.159,1
9.450104,0.728,0.682,0.254,2.746,-2.99,1.159,1
9.459023,0.739,0.675,0.258,0.732,-2.502,1.037,1
9.4655,0.747,0.67,0.262,-0.915,-2.014,0.915,1
9.474877,0.757,0.666,0.263,-2.38,-1.464,1.159,1
9.481915,0.746,0.668,0.259,-2.441,-1.342,0.976,1
9.490576,0.775,0.663,0.254,-1.159,-1.464,1.22,1
9.498382,0.77,0.669,0.262,1.525,-1.342,1.281,1
9.505053,0.754,0.683,0.267,4.882,-1.77,1.342,1
9.513839,0.758,0.689,0.266,7.629,-1.708,1.586,1
9.520507,0.751,0.69,0.277,8.911,-1.831,1.281,1
9.528357,0.731,0.703,0.29,8.972,-1.77,1.037,1
9.53652,0.731,0.711,0.294,7.263,-1.342,0.793,1
9.544489,0.737,0.714,0.302,3.234,-0.488,0.366,1
9.551093,0.721,0.72,0.308,0.061,0.061,-0.366,1
9.558845,0.714,0.713,0.31,-2.075,0.671,-0.671,1
9.567199,0.717,0.712,0.311,-5.126,1.098,-1.098,1
9.574113,0.715,0.709,0.313,-7.995,1.708,-1.586,1
9.582613,0.792,0.667,0.287,-10.681,2.075,-1.342,1
9.589801,0.759,0.694,0.295,-13.793,-0.122,-1.708,1
9.596299,0.718,0.684,0.311,-7.263,2.563,-1.403,1
9.604853,0.733,0.682,0.285,-3.601,0.244,-1.22,1
9.611669,0.744,0.678,0.299,2.624,1.403,-1.281,1
9.619193,0.745,0.667,0.281,3.662,0.61,-1.403,1
9.627581,0.734,0.663,0.291,0.976,1.464,-1.525,1
9.635326,0.745,0.651,0.279,-5.615,2.075,-1.647,1
9.644326,0.712,0.661,0.294,-7.812,2.624,-1.953,1
9.651555,0.71,0.664,0.284,-7.141,2.502,-2.014,1
9.660638,0.701,0.661,0.287,-4.394,2.929,-2.075,1
9.667721,0.711,0.662,0.28,-0.854,2.807,-1.953,1
9.675062,0.721,0.66,0.285,3.662,2.929,-1.831,1
9.682769,0.712,0.666,0.274,7.873,2.868,-1.586,1
9.692164,0.714,0.658,0.265,10.559,3.173,-1.464,1
9.699377,0.728,0.661,0.258,12.39,2.807,-1.342,1
9.707475,0.793,0.652,0.245,13.732,2.502,-1.464,1
9.716107,0.857,0.608,0.195,8.789,0.976,-0.793,1
9.723805,0.918,0.575,0.168,-7.202,-1.831,-0.244,1
9.731214,0.796,0.622,0.213,-7.263,-3.662,-0.549,1
9.740068,0.739,0.637,0.222,5.371,-6.469,-0.061,1
9.747816,0.7,0.629,0.256,19.409,-8.728,-0.305,1
9.755089,0.649,0.611,0.266,31.188,-10.314,-0.854,1
9.764113,0.643,0.605,0.291,35.827,-11.108,-0.671,1
9.771286,0.645,0.602,0.313,38.757,-10.559,-0.671,1
9.780585,0.633,0.61,0.336,41.381,-9.704,-0.122,1
9.78859,0.674,0.617,0.355,43.334,-9.277,-0.122,1
9.795383,0.702,0.627,0.396,46.264,-7.69,0.122,1
9.802101,0.714,0.652,0.415,52.246,-6.835,0.427,1
9.810043,0.708,0.638,0.435,54.809,-5.249,0.732,1
9.818926,0.67,0.616,0.447,44.616,-2.38,1.037,1
9.825493,0.65,0.606,0.473,27.099,2.38,2.258,1
9.833358,0.648,0.606,0.486,5.31,7.751,3.662,1
9.840222,0.653,0.629,0.492,-14.282,13.549,4.943,1
9.847939,0.677,0.661,0.473,-27.038,18.432,6.286,1
9.856669,0.66,0.697,0.439,-33.203,22.521,7.019,1
9.863446,0.68,0.733,0.396,-31.249,24.78,7.019,1
9.871126,0.693,0.754,0.358,-22.46,26.55,6.347,1
9.878779,0.688,0.764,0.31,-16.601,26.916,5.249,1
9.887836,0.705,0.757,0.265,-17.395,27.587,3.906,1
9.894827,0.759,0.766,0.227,-18.188,27.099,2.624,1
9.902031,0.759,0.779,0.208,-13.793,26.062,0.793,1
9.909953,0.768,0.783,0.184,-6.958,23.925,-1.342,1
9.918696,0.794,0.77,0.165,-0.549,21.667,-3.601,1
9.926557,0.801,0.758,0.157,6.347,19.47,-5.554,1
9.933181,0.806,0.747,0.147,15.075,16.54,-7.568,1
9.940816,0.812,0.727,0.131,19.531,14.221,-9.033,1
9.950119,0.811,0.699,0.126,19.47,12.512,-9.948,1
9.957256,0.801,0.67,0.122,14.953,11.047,-10.681,1
9.964483,0.791,0.645,0.125,9.521,10.437,-10.62,1
9.972208,0.795,0.631,0.138,6.103,9.399,-10.375,1
9.981527,0.784,0.613,0.147,6.347,8.605,-9.765,1
9.988581,0.785,0.603,0.155,6.713,8.056,-8.85,1
9.996101,0.782,0.612,0.181,8.3,7.507,-7.934,1
