timestamp_s,ax,ay,az,gx,gy,gz,label
0.00627,0.497,0.415,0.74,2.014,1.586,-1.281,1
0.012542,0.5,0.412,0.743,2.746,1.281,-0.976,1
0.020016,0.495,0.412,0.745,3.845,1.098,-1.098,1
0.028222,0.5,0.405,0.744,4.699,0.854,-0.976,1
0.0357,0.502,0.409,0.731,4.638,0.488,-0.854,1
0.043507,0.502,0.409,0.728,4.272,0.183,-0.61,1
0.050237,0.495,0.408,0.731,3.173,0.244,-0.61,1
0.058151,0.5,0.401,0.733,2.746,0.0,-0.793,1
0.066508,0.499,0.402,0.744,2.746,-0.305,-0.366,1
0.07258,0.5,0.403,0.741,2.99,-0.61,-0.305,1
0.080015,0.505,0.399,0.745,3.234,-0.671,-0.366,1
0.08874,0.5,0.397,0.748,3.051,-0.732,-0.061,1
0.095534,0.503,0.395,0.748,1.953,-1.037,0.122,1
0.103316,0.503,0.393,0.748,0.793,-0.976,-0.183,1
0.111507,0.512,0.395,0.746,-0.183,-0.976,0.122,1
0.119365,0.511,0.4,0.746,-1.037,-0.976,0.244,1
0.128146,0.508,0.401,0.744,-1.708,-1.281,0.244,1
0.134873,0.512,0.41,0.74,-2.685,-1.22,0.427,1
0.142978,0.508,0.414,0.745,-2.868,-1.586,0.366,1
0.151129,0.506,0.415,0.749,-2.258,-1.77,0.793,1
0.158034,0.511,0.419,0.75,-1.525,-2.075,0.427,1
0.166558,0.506,0.423,0.747,-1.281,-2.197,0.549,1
0.173649,0.515,0.429,0.75,-1.708,-2.197,0.366,1
0.181282,0.511,0.432,0.75,-2.624,-2.441,0.366,1
0.18975,0.512,0.434,0.75,-3.356,-2.441,0.366,1
0.198408,0.51,0.44,0.753,-4.028,-2.746,0.183,1
0.205626,0.512,0.446,0.756,-4.15,-3.112,-0.122,1
0.21475,0.508,0.449,0.761,-3.845,-2.99,-0.366,1
0.221806,0.507,0.456,0.764,-3.784,-3.112,-0.488,1
0.231388,0.506,0.461,0.76,-4.089,-3.051,-0.854,1
0.237953,0.501,0.461,0.763,-4.76,-3.234,-1.403,1
0.247305,0.503,0.467,0.767,-4.76,-3.295,-1.647,1
0.254901,0.504,0.463,0.771,-4.394,-3.417,-2.075,1
0.262138,0.499,0.462,0.784,-3.784,-3.356,-2.624,1
0.270733,0.501,0.464,0.79,-2.563,-3.601,-3.112,1
0.279314,0.496,0.455,0.792,-0.305,-4.028,-3.479,1
0.286698,0.491,0.448,0.802,1.953,-4.333,-3.662,1
0.295542,0.49,0.437,0.805,3.906,-4.699,-4.089,1
0.302369,0.493,0.433,0.816,6.164,-4.882,-4.028,1
0.310248,0.496,0.425,0.82,6.835,-4.943,-4.211,1
0.318293,0.492,0.415,0.826,7.141,-5.065,-4.089,1
0.325141,0.493,0.414,0.831,7.263,-5.187,-4.394,1
0.333735,0.494,0.415,0.838,6.652,-5.065,-4.333,1
0.341602,0.496,0.419,0.846,5.798,-4.516,-4.455,1
0.349613,0.5,0.416,0.852,4.821,-4.333,-4.516,1
0.356371,0.504,0.421,0.853,3.234,-3.723,-4.516,1
0.364355,0.507,0.422,0.854,1.22,-3.051,-4.516,1
0.373228,0.51,0.421,0.856,-0.793,-2.441,-4.882,1
0.38226,0.502,0.423,0.864,-0.793,-2.014,-4.638,1
0.38941,0.502,0.426,0.862,-0.061,-1.464,-4.943,1
0.397608,0.492,0.427,0.864,1.77,-1.22,-5.187,1
0.406276,0.49,0.424,0.855,3.173,-0.793,-5.249,1
0.4136,0.49,0.413,0.851,4.272,-0.488,-5.31,1
0.421342,0.491,0.406,0.842,4.943,-0.122,-5.187,1
0.430286,0.496,0.398,0.833,4.577,0.366,-5.065,1
0.437282,0.502,0.394,0.818,2.929,0.732,-4.577,1
0.446186,0.506,0.39,0.813,0.854,0.915,-4.516,1
0.453412,0.508,0.391,0.809,-0.976,1.281,-4.455,1
0.460827,0.508,0.393,0.805,-1.708,1.525,-4.15,1
0.470037,0.503,0.395,0.799,-1.525,1.525,-4.15,1
0.477243,0.504,0.391,0.8,-0.976,1.586,-3.784,1
0.486384,0.502,0.397,0.795,-0.61,1.831,-3.784,1
0.493997,0.505,0.392,0.794,0.183,1.403,-3.601,1
0.501158,0.5,0.39,0.79,0.976,1.586,-3.234,1
0.50989,0.502,0.39,0.784,1.22,1.281,-2.99,1
0.51781,0.5,0.389,0.775,0.732,1.525,-2.807,1
0.525224,0.501,0.385,0.771,-0.244,1.77,-2.807,1
0.532805,0.5,0.386,0.764,-1.098,1.892,-2.441,1
0.541154,0.497,0.386,0.766,-2.014,1.77,-2.441,1
0.550054,0.494,0.379,0.764,-2.868,1.647,-2.136,1
0.556774,0.492,0.385,0.77,-2.807,1.708,-2.014,1
0.564365,0.485,0.377,0.769,-2.807,1.647,-2.075,1
0.573537,0.485,0.374,0.764,-2.563,1.464,-1.892,1
0.580722,0.484,0.375,0.766,-2.807,1.342,-1.77,1
0.590087,0.484,0.376,0.757,-3.784,1.281,-1.586,1
0.596683,0.489,0.383,0.76,-5.187,1.159,-1.342,1
0.604086,0.489,0.385,0.762,-5.981,1.037,-1.159,1
0.613311,0.498,0.392,0.77,-6.042,0.61,-1.037,1
0.620062,0.5,0.397,0.772,-5.493,0.549,-0.915,1
0.627945,0.497,0.402,0.771,-4.699,0.366,-0.854,1
0.635998,0.495,0.409,0.771,-4.089,0.183,-0.793,1
0.642953,0.498,0.411,0.774,-3.356,-0.061,-0.732,1
0.651527,0.495,0.416,0.77,-2.685,0.0,-0.793,1
0.657559,0.5,0.42,0.769,-2.624,0.061,-0.488,1
0.667119,0.498,0.42,0.767,-2.746,-0.183,-0.61,1
0.675622,0.498,0.423,0.772,-2.929,-0.183,-0.732,1
0.682262,0.499,0.426,0.774,-2.319,-0.183,-1.037,1
0.690754,0.495,0.425,0.773,-1.098,-0.366,-1.098,1
0.698124,0.496,0.424,0.787,-0.793,-0.488,-1.342,1
0.70644,0.491,0.421,0.784,-0.183,-0.671,-1.342,1
0.715006,0.495,0.422,0.782,-0.488,-0.488,-1.525,1
0.723767,0.496,0.423,0.777,-1.77,-0.549,-1.525,1
0.73072,0.499,0.426,0.772,-3.173,-0.671,-1.708,1
0.738326,0.501,0.422,0.769,-3.967,-0.488,-1.647,1
0.746735,0.501,0.424,0.767,-4.333,-0.427,-1.831,1
0.75424,0.499,0.419,0.769,-3.906,-0.549,-1.77,1
0.763472,0.501,0.427,0.769,-2.868,-0.793,-1.953,1
0.77032,0.503,0.427,0.773,-1.831,-0.915,-2.136,1
0.778358,0.504,0.421,0.773,-0.915,-1.159,-2.197,1
0.787131,0.503,0.427,0.767,-0.61,-1.403,-1.831,1
0.794795,0.504,0.424,0.766,-1.403,-1.098,-2.014,1
0.803369,0.51,0.427,0.766,-1.77,-1.22,-2.075,1
0.81068,0.505,0.419,0.769,-2.197,-1.342,-1.953,1
0.818308,0.506,0.415,0.767,-2.441,-1.525,-2.136,1
0.825638,0.506,0.419,0.765,-2.38,-1.831,-2.258,1
0.833088,0.505,0.415,0.765,-2.563,-1.708,-2.197,1
0.841278,0.509,0.414,0.769,-2.624,-1.953,-2.258,1
0.84965,0.501,0.413,0.768,-2.502,-2.014,-2.563,1
0.858989,0.506,0.418,0.77,-2.746,-1.953,-2.38,1
0.866125,0.51,0.414,0.768,-2.929,-2.38,-2.319,1
0.875716,0.509,0.409,0.771,-2.929,-2.258,-2.441,1
0.882063,0.508,0.41,0.77,-2.624,-2.441,-2.502,1
0.891227,0.506,0.414,0.77,-2.441,-2.38,-2.441,1
0.898764,0.507,0.413,0.768,-2.746,-2.38,-2.502,1
0.907612,0.512,0.415,0.769,-2.99,-2.685,-2.38,1
0.915424,0.506,0.419,0.774,-2.441,-2.685,-2.197,1
0.922991,0.503,0.419,0.776,-1.892,-2.99,-2.502,1
0.931943,0.505,0.422,0.772,-1.525,-3.173,-2.685,1
0.94072,0.5,0.419,0.781,-1.464,-3.173,-2.38,1
0.947784,0.502,0.417,0.785,-1.647,-2.99,-2.563,1
0.955272,0.499,0.417,0.783,-2.319,-3.112,-2.685,1
0.964108,0.499,0.419,0.779,-3.479,-3.051,-2.624,1
0.971601,0.501,0.423,0.774,-4.943,-3.051,-2.563,1
0.979112,0.5,0.426,0.775,-5.859,-2.929,-2.685,1
0.988286,0.498,0.429,0.778,-5.493,-2.99,-2.99,1
0.995955,0.499,0.433,0.781,-3.845,-3.417,-2.746,1
1.004234,0.497,0.433,0.786,-1.586,-3.54,-3.112,1
1.012611,0.493,0.431,0.784,0.122,-3.723,-2.99,1
1.019957,0.492,0.426,0.789,0.793,-3.906,-3.112,1
1.028375,0.493,0.421,0.789,0.976,-3.967,-3.234,1
1.035261,0.492,0.419,0.789,0.366,-4.028,-3.417,1
1.042415,0.49,0.416,0.787,-0.183,-3.845,-3.295,1
1.050492,0.497,0.415,0.791,-1.159,-3.784,-2.99,1
1.058897,0.491,0.416,0.788,-2.685,-3.601,-3.479,1
1.068123,0.496,0.415,0.784,-4.028,-3.295,-3.051,1
1.074402,0.497,0.419,0.788,-5.249,-3.295,-3.173,1
1.083657,0.496,0.422,0.794,-5.493,-3.051,-3.295,1
1.091084,0.496,0.428,0.797,-5.004,-3.234,-3.417,1
1.100277,0.501,0.432,0.799,-3.845,-3.234,-3.356,1
1.106757,0.499,0.436,0.799,-3.479,-2.929,-3.417,1
1.115802,0.5,0.439,0.798,-3.051,-3.051,-3.601,1
1.123011,0.501,0.439,0.798,-3.356,-2.807,-3.662,1
1.130669,0.5,0.447,0.798,-3.662,-2.563,-3.845,1
1.139614,0.499,0.452,0.801,-4.089,-2.441,-4.15,1
1.14699,0.503,0.45,0.797,-3.845,-2.38,-4.394,1
1.156029,0.506,0.447,0.798,-3.417,-2.38,-4.516,1
1.164186,0.503,0.448,0.79,-2.807,-2.197,-4.577,1
1.171067,0.501,0.444,0.789,-2.807,-2.197,-4.882,1
1.180399,0.5,0.442,0.785,-3.295,-2.014,-5.187,1
1.18742,0.498,0.438,0.786,-4.333,-2.075,-5.249,1
1.195698,0.499,0.443,0.78,-5.798,-1.892,-5.554,1
1.203998,0.501,0.446,0.781,-6.591,-1.892,-5.615,1
1.212301,0.5,0.446,0.781,-6.713,-1.953,-5.737,1
1.219124,0.506,0.446,0.781,-6.164,-1.892,-6.042,1
1.227274,0.502,0.445,0.783,-5.187,-1.892,-6.286,1
1.235439,0.507,0.442,0.773,-4.638,-1.647,-6.408,1
1.243476,0.512,0.447,0.768,-5.493,-1.77,-6.713,1
1.251784,0.522,0.441,0.77,-7.568,-1.464,-6.896,1
1.259998,0.522,0.444,0.768,-10.07,-0.793,-6.958,1
1.268201,0.519,0.45,0.757,-13.0,-0.549,-7.141,1
1.277785,0.521,0.46,0.755,-14.892,-0.061,-7.08,1
1.285856,0.521,0.47,0.737,-15.991,0.305,-7.263,1
1.292327,0.526,0.482,0.717,-17.517,0.366,-7.69,1
1.30053,0.526,0.474,0.701,-18.981,0.122,-7.69,1
1.308947,0.529,0.486,0.702,-20.08,0.183,-7.995,1
1.316848,0.535,0.486,0.69,-21.484,0.305,-8.361,1
1.323659,0.552,0.469,0.69,-23.681,-0.854,-8.789,1
1.332162,0.547,0.48,0.708,-22.583,-0.244,-9.155,1
1.340225,0.565,0.487,0.726,-17.761,-1.403,-9.765,1
1.348633,0.575,0.483,0.747,-12.939,-2.075,-10.437,1
1.357642,0.569,0.472,0.763,-5.676,-3.112,-10.742,1
1.365967,0.557,0.475,0.771,-1.586,-3.784,-11.108,1
1.373042,0.541,0.482,0.77,-0.61,-3.845,-11.535,1
1.381395,0.524,0.485,0.763,-4.699,-4.028,-12.207,1
1.389293,0.521,0.489,0.778,-10.803,-4.394,-12.573,1
1.398119,0.52,0.501,0.794,-16.052,-3.967,-13.061,1
1.40587,0.52,0.51,0.797,-19.836,-3.723,-13.305,1
1.41436,0.516,0.521,0.79,-22.155,-3.906,-13.793,1
1.421481,0.525,0.527,0.784,-24.902,-3.723,-14.831,1
1.430686,0.531,0.536,0.774,-27.709,-3.845,-15.319,1
1.437626,0.533,0.547,0.776,-30.761,-4.028,-16.296,1
1.44684,0.534,0.554,0.783,-31.127,-4.028,-17.028,1
1.453604,0.535,0.559,0.79,-30.273,-4.394,-18.249,1
1.462735,0.526,0.564,0.798,-28.015,-4.516,-19.409,1
1.470676,0.527,0.571,0.804,-25.512,-4.638,-20.385,1
1.47799,0.52,0.577,0.801,-22.705,-4.699,-21.301,1
1.486877,0.515,0.573,0.794,-19.104,-4.943,-22.46,1
1.495376,0.503,0.571,0.789,-15.93,-5.126,-23.559,1
1.502454,0.5,0.561,0.788,-11.718,-5.676,-24.475,1
1.511179,0.498,0.548,0.782,-8.239,-5.737,-25.329,1
1.519546,0.493,0.526,0.767,-4.577,-6.164,-26.367,1
1.526506,0.49,0.512,0.76,-2.319,-6.53,-26.733,1
1.535275,0.498,0.498,0.753,-1.708,-6.652,-27.038,1
1.543936,0.511,0.48,0.755,-3.906,-6.835,-27.038,1
1.550678,0.519,0.465,0.755,-6.958,-6.713,-27.038,1
1.558401,0.538,0.453,0.736,-9.948,-6.347,-26.794,1
1.567655,0.526,0.448,0.75,-12.145,-6.896,-26.55,1
1.575494,0.504,0.458,0.772,-12.939,-6.958,-26.489,1
1.583606,0.495,0.457,0.791,-12.39,-7.08,-26.611,1
1.591225,0.514,0.456,0.797,-10.07,-7.08,-26.55,1
1.600434,0.522,0.453,0.785,-6.53,-7.202,-26.367,1
1.607319,0.519,0.447,0.77,-3.662,-7.507,-26.489,1
1.615171,0.512,0.449,0.77,-1.831,-7.812,-26.55,1
1.623182,0.507,0.442,0.77,-0.427,-7.751,-26.55,1
1.631101,0.506,0.437,0.77,1.647,-8.117,-26.428,1
1.639128,0.504,0.423,0.775,4.516,-8.117,-26.672,1
1.646001,0.503,0.411,0.777,6.835,-8.3,-26.428,1
1.654601,0.505,0.398,0.779,7.629,-8.117,-26.428,1
1.663055,0.509,0.388,0.777,6.958,-8.056,-25.878,1
1.670165,0.505,0.378,0.77,5.493,-7.751,-25.878,1
1.677912,0.509,0.383,0.77,3.723,-7.568,-25.39,1
1.685369,0.506,0.373,0.774,2.38,-7.568,-24.963,1
1.694561,0.502,0.366,0.773,0.976,-7.263,-24.841,1
1.70153,0.506,0.354,0.778,0.122,-6.835,-24.108,1
1.710458,0.511,0.351,0.776,-0.122,-6.896,-23.803,1
1.717714,0.51,0.349,0.778,0.793,-6.469,-23.62,1
1.725203,0.51,0.352,0.775,2.014,-6.713,-23.071,1
1.7345,0.5,0.339,0.774,3.112,-6.591,-22.827,1
1.741357,0.501,0.323,0.777,4.028,-6.713,-22.46,1
1.749621,0.514,0.317,0.778,4.699,-6.591,-21.728,1
1.757121,0.52,0.321,0.774,5.004,-6.469,-21.179,1
1.76465,0.503,0.317,0.768,4.943,-6.469,-20.507,1
1.772335,0.502,0.308,0.777,4.577,-6.408,-19.836,1
1.781474,0.5,0.299,0.776,4.394,-6.225,-19.165,1
1.788788,0.499,0.291,0.771,3.845,-6.164,-18.371,1
1.797103,0.5,0.283,0.772,2.502,-5.92,-17.456,1
1.804291,0.508,0.28,0.774,0.671,-5.859,-16.479,1
1.813241,0.516,0.284,0.785,-0.915,-5.371,-15.686,1
1.819848,0.52,0.287,0.783,-2.197,-4.943,-14.709,1
1.828102,0.52,0.289,0.784,-4.15,-4.943,-13.671,1
1.835913,0.517,0.296,0.785,-6.713,-4.577,-12.939,1
1.844052,0.517,0.301,0.784,-8.117,-4.089,-12.512,1
1.851345,0.513,0.309,0.78,-8.361,-4.089,-11.779,1
1.860515,0.502,0.309,0.787,-7.629,-3.906,-11.657,1
1.86752,0.503,0.322,0.786,-5.737,-3.723,-11.23,1
1.87555,0.505,0.327,0.786,-4.272,-3.662,-11.108,1
1.88408,0.511,0.326,0.77,-3.112,-3.54,-10.864,1
1.892753,0.511,0.317,0.756,-2.014,-3.845,-10.437,1
1.899987,0.51,0.321,0.754,-1.77,-3.54,-10.498,1
1.90772,0.515,0.324,0.752,-2.258,-3.479,-10.253,1
1.916613,0.52,0.329,0.751,-3.967,-3.54,-9.765,1
1.92394,0.526,0.336,0.751,-6.103,-3.295,-9.582,1
1.932749,0.535,0.348,0.747,-9.033,-2.807,-9.521,1
1.939961,0.536,0.356,0.747,-10.192,-2.685,-8.911,1
1.948928,0.537,0.361,0.728,-11.108,-2.868,-9.46,1
1.95618,0.541,0.368,0.722,-11.535,-3.173,-9.582,1
1.964684,0.541,0.375,0.715,-11.779,-3.234,-9.826,1
1.973966,0.554,0.374,0.696,-10.925,-3.906,-10.253,1
1.980917,0.551,0.374,0.69,-9.521,-4.333,-10.742,1
1.988494,0.544,0.367,0.677,-7.69,-5.065,-10.986,1
1.99815,0.541,0.363,0.664,-6.042,-5.676,-11.657,1
2.005073,0.518,0.351,0.651,-4.882,-6.469,-12.023,1
2.013243,0.506,0.336,0.649,-4.15,-7.202,-12.634,1
2.022007,0.499,0.324,0.642,-4.394,-7.873,-13.122,1
2.029373,0.498,0.312,0.648,-5.31,-8.483,-13.305,1
2.038201,0.49,0.3,0.645,-7.507,-9.155,-13.244,1
2.046045,0.479,0.285,0.653,-9.155,-9.521,-13.366,1
2.052934,0.474,0.261,0.669,-10.009,-10.131,-13.183,1
2.061099,0.462,0.224,0.697,-8.728,-10.986,-12.207,1
2.070271,0.447,0.194,0.718,-6.958,-11.413,-11.108,1
2.077081,0.43,0.157,0.741,-5.737,-12.145,-9.704,1
2.085628,0.398,0.129,0.765,-3.479,-13.305,-7.812,1
2.094321,0.338,0.096,0.806,0.854,-14.709,-5.981,1
2.101528,0.268,0.073,0.861,7.69,-16.601,-3.54,1
2.110265,0.208,0.039,0.935,13.305,-17.028,-1.281,1
2.117519,0.129,0.002,1.022,19.287,-18.188,1.525,1
2.125717,0.047,-0.043,1.111,29.602,-19.47,5.065,1
2.135177,-0.014,-0.139,1.258,40.283,-20.263,8.789,1
2.141953,-0.045,-0.265,1.395,51.818,-19.042,14.465,1
2.150861,-0.05,-0.415,1.501,56.64,-16.601,20.751,1
2.158722,-0.062,-0.521,1.567,53.649,-13.61,29.418,1
2.166609,-0.059,-0.616,1.681,49.072,-10.437,37.353,1
2.175588,-0.031,-0.73,1.838,49.194,-5.554,47.79,1
2.182961,-0.042,-0.816,1.973,56.396,-1.708,56.884,1
2.192027,-0.087,-0.923,2.136,73.12,3.295,68.176,1
2.199296,-0.145,-1.045,2.258,89.66,7.812,78.43,1
2.206182,-0.228,-1.184,2.383,101.318,13.916,89.965,1
2.214911,-0.296,-1.294,2.453,102.6,22.766,102.355,1
2.222047,-0.364,-1.396,2.489,90.454,32.226,115.539,1
2.231536,-0.439,-1.462,2.557,69.946,44.616,131.774,1
2.238673,-0.49,-1.462,2.593,56.457,56.701,145.446,1
2.246368,-0.58,-1.424,2.607,47.607,70.068,161.499,1
2.254058,-0.684,-1.397,2.613,44.555,81.176,174.743,1
2.262602,-0.8,-1.395,2.626,43.212,92.468,187.927,1
2.271822,-0.94,-1.353,2.642,42.785,107.055,204.04,1
2.279225,-1.085,-1.249,2.59,40.283,120.788,216.857,1
2.286613,-1.279,-1.192,2.561,30.09,132.446,229.248,1
2.295498,-1.483,-1.048,2.581,26.733,148.559,242.919,1
2.302734,-1.655,-0.898,2.542,28.747,161.193,254.089,1
2.310712,-1.835,-0.726,2.507,29.052,172.363,264.526,1
2.320766,-1.973,-0.605,2.492,26.489,186.584,275.878,1
2.327773,-2.115,-0.346,2.421,23.742,202.148,287.231,1
2.336913,-2.234,-0.039,2.277,14.587,214.05,295.288,1
2.343433,-2.36,0.343,2.164,0.061,226.562,302.246,1
2.352385,-2.426,0.774,2.05,-8.422,239.562,305.969,1
2.360288,-2.498,1.142,1.919,-17.089,248.779,306.518,1
2.367389,-2.537,1.549,1.868,-12.145,258.911,304.199,1
2.376006,-2.542,1.945,1.753,1.831,267.517,300.048,1
2.38254,-2.592,2.154,1.653,17.028,277.221,292.724,1
2.391103,-2.445,2.266,1.479,52.124,279.663,291.015,1
2.397692,-2.558,2.463,1.285,85.632,284.729,285.156,1
2.406728,-2.436,2.666,0.98,77.88,287.597,279.418,1
2.41311,-2.458,2.846,0.77,60.791,288.757,270.935,1
2.4213,-2.267,3.0,0.641,53.894,290.832,260.314,1
2.428312,-2.107,3.135,0.441,51.269,292.358,248.229,1
2.436078,-2.025,3.265,0.247,37.231,293.029,234.13,1
2.444415,-1.88,3.307,0.076,17.944,293.823,218.933,1
2.451559,-1.713,3.384,-0.111,7.08,294.067,202.88,1
2.460452,-1.598,3.427,-0.347,-0.976,292.419,184.753,1
2.467545,-1.452,3.388,-0.558,-8.911,288.269,165.71,1
2.476836,-1.238,3.288,-0.758,-11.169,281.25,143.371,1
2.483651,-1.062,3.197,-0.896,-7.141,273.681,124.206,1
2.491107,-0.93,3.077,-1.028,-5.065,264.77,106.079,1
2.500189,-0.803,2.897,-1.08,2.685,253.723,87.89,1
2.507016,-0.697,2.69,-1.081,18.249,241.027,70.068,1
2.514582,-0.591,2.462,-1.032,29.418,230.59,57.373,1
2.522916,-0.491,2.278,-0.969,38.208,222.717,47.668,1
2.531504,-0.407,2.132,-0.996,46.203,214.233,39.733,1
2.539505,-0.397,2.025,-1.017,50.17,203.308,32.592,1
2.547086,-0.343,1.921,-0.999,50.476,194.152,28.015,1
2.554671,-0.242,1.809,-0.968,50.109,186.401,24.658,1
2.563521,-0.142,1.698,-0.959,47.912,178.405,21.606,1
2.570811,-0.074,1.593,-0.979,44.494,171.325,19.531,1
2.57858,-0.022,1.47,-0.992,42.968,163.818,18.005,1
2.586339,0.027,1.355,-0.987,42.602,156.311,16.601,1
2.595045,0.089,1.243,-0.98,39.55,148.254,15.93,1
2.602045,0.158,1.17,-0.975,35.888,141.784,15.258,1
2.609974,0.199,1.111,-0.973,34.912,134.948,14.709,1
2.61867,0.229,1.058,-0.982,37.536,127.929,14.587,1
2.625348,0.257,1.024,-0.98,43.09,119.506,14.038,1
2.633439,0.274,1.001,-0.98,45.349,113.708,13.732,1
2.641396,0.283,0.982,-0.958,45.776,105.895,13.488,1
2.648005,0.287,0.962,-0.921,43.64,99.121,13.427,1
2.656121,0.296,0.95,-0.862,42.236,93.261,12.939,1
2.662988,0.311,0.936,-0.791,42.724,88.439,13.122,1
2.671597,0.324,0.926,-0.725,43.334,83.19,12.878,1
2.678925,0.344,0.913,-0.663,43.212,78.674,12.634,1
2.686129,0.365,0.896,-0.62,41.259,74.707,12.695,1
2.69525,0.385,0.903,-0.593,37.658,70.434,12.573,1
2.702269,0.376,0.912,-0.581,36.621,66.589,12.573,1
2.709304,0.378,0.913,-0.551,37.658,62.499,12.634,1
2.718249,0.395,0.909,-0.52,38.024,59.02,12.207,1
2.724893,0.424,0.895,-0.496,36.376,56.274,12.145,1
2.733291,0.457,0.875,-0.485,34.24,53.649,12.451,1
2.739786,0.466,0.872,-0.484,32.287,50.903,12.634,1
2.747616,0.478,0.871,-0.477,31.372,47.668,12.512,1
2.75536,0.494,0.864,-0.468,30.273,44.616,12.39,1
2.764794,0.528,0.841,-0.453,27.893,41.503,12.145,1
2.771503,0.543,0.835,-0.431,25.085,38.146,12.329,1
2.780551,0.549,0.833,-0.425,23.193,35.034,12.268,1
2.787204,0.553,0.851,-0.412,20.69,32.043,12.207,1
2.795016,0.557,0.859,-0.386,19.47,28.808,11.84,1
2.803196,0.577,0.856,-0.356,20.69,25.512,11.596,1
2.810599,0.591,0.849,-0.326,21.301,22.888,11.535,1
2.8181,0.601,0.844,-0.299,19.348,20.935,11.291,1
2.825577,0.598,0.85,-0.277,16.479,18.798,11.352,1
2.83458,0.59,0.87,-0.262,14.526,16.784,10.864,1
2.841491,0.598,0.878,-0.235,12.695,15.075,10.253,1
2.848951,0.608,0.879,-0.211,11.596,13.549,9.643,1
2.856577,0.611,0.875,-0.197,10.864,11.779,9.155,1
2.865626,0.611,0.862,-0.188,9.826,9.826,7.995,1
2.873674,0.615,0.843,-0.175,7.751,8.117,8.056,1
2.880964,0.62,0.83,-0.148,3.784,6.53,7.446,1
2.888468,0.623,0.818,-0.112,0.305,5.493,7.69,1
2.897642,0.613,0.811,-0.083,-1.342,4.272,7.69,1
2.904648,0.626,0.815,-0.07,-0.976,2.929,8.056,1
2.911652,0.614,0.814,-0.07,-1.22,2.075,8.728,1
2.918996,0.61,0.836,-0.072,-3.356,1.037,9.033,1
2.926924,0.61,0.841,-0.062,-5.737,-0.305,9.582,1
2.936317,0.621,0.849,-0.059,-6.713,-1.403,9.704,1
2.943292,0.625,0.862,-0.046,-6.835,-2.99,9.46,1
2.95206,0.63,0.874,-0.032,-6.164,-4.272,9.277,1
2.959508,0.621,0.888,-0.028,-6.835,-5.126,8.911,1
2.968795,0.614,0.892,-0.018,-8.972,-6.591,7.934,1
2.976795,0.611,0.892,0.0,-10.437,-7.446,7.141,1
2.983718,0.614,0.889,0.013,-11.169,-8.728,6.591,1
2.99298,0.601,0.891,0.034,-11.474,-9.46,5.249,1
3.000534,0.595,0.891,0.039,-10.925,-10.131,4.699,1
3.009131,0.588,0.893,0.047,-10.314,-11.352,3.54,1
3.015872,0.565,0.892,0.077,-8.911,-12.207,2.746,1
3.024109,0.553,0.883,0.093,-7.873,-12.634,2.136,1
3.032394,0.55,0.874,0.115,-8.605,-13.0,1.708,1
3.040634,0.545,0.872,0.133,-9.704,-13.244,1.342,1
3.04791,0.542,0.861,0.145,-10.498,-13.0,1.098,1
3.05652,0.54,0.848,0.161,-11.23,-13.0,0.915,1
3.063502,0.538,0.84,0.175,-11.901,-12.939,0.671,1
3.071626,0.545,0.843,0.184,-11.047,-12.756,0.732,1
3.078517,0.535,0.841,0.187,-8.85,-12.756,0.915,1
3.086599,0.537,0.83,0.194,-7.69,-12.756,0.793,1
3.09541,0.538,0.822,0.2,-7.69,-12.207,0.854,1
3.102232,0.549,0.815,0.208,-8.483,-12.084,0.793,1
3.110986,0.553,0.813,0.211,-8.911,-11.962,1.098,1
3.118022,0.556,0.817,0.211,-8.728,-11.352,1.342,1
3.126134,0.544,0.813,0.205,-8.117,-11.23,1.464,1
3.134536,0.54,0.808,0.2,-8.422,-11.291,1.708,1
3.142782,0.54,0.797,0.21,-9.46,-11.352,2.136,1
3.151206,0.546,0.795,0.224,-9.277,-11.413,3.112,1
3.159657,0.55,0.795,0.255,-7.751,-11.047,2.929,1
3.166453,0.552,0.799,0.275,-6.103,-10.742,3.601,1
3.175213,0.55,0.812,0.299,-3.967,-10.07,3.967,1
3.182566,0.549,0.817,0.311,-1.708,-9.033,4.455,1
3.190752,0.557,0.82,0.316,-1.586,-8.117,4.76,1
3.197348,0.549,0.829,0.317,-2.441,-6.958,4.943,1
3.204031,0.539,0.839,0.317,-2.746,-5.859,5.004,1
3.211248,0.54,0.839,0.318,-2.868,-5.31,5.004,1
3.219084,0.542,0.843,0.315,-2.319,-4.211,5.126,1
3.226538,0.539,0.844,0.304,-3.051,-3.295,5.126,1
3.233974,0.53,0.844,0.294,-3.112,-2.563,4.882,1
3.241591,0.529,0.849,0.288,-2.441,-1.831,4.516,1
3.250395,0.538,0.851,0.287,-1.831,-1.098,4.211,1
3.258854,0.541,0.849,0.281,-1.464,-0.488,3.784,1
3.266177,0.535,0.852,0.275,-1.586,0.488,3.356,1
3.275008,0.537,0.852,0.271,-2.197,0.915,3.173,1
3.28184,0.538,0.85,0.263,-1.953,1.586,2.99,1
3.289435,0.542,0.854,0.257,-1.403,1.892,2.807,1
3.296802,0.548,0.854,0.252,-1.159,2.197,2.807,1
3.305609,0.554,0.855,0.256,-1.342,2.38,2.807,1
3.312404,0.556,0.861,0.253,-2.624,3.356,3.051,1
3.32016,0.558,0.858,0.245,-4.699,3.784,3.051,1
3.327624,0.565,0.861,0.236,-6.53,4.394,2.99,1
3.33498,0.568,0.878,0.224,-6.53,4.333,2.746,1
3.343857,0.575,0.89,0.217,-5.004,4.76,2.197,1
3.35063,0.578,0.897,0.203,-3.54,4.882,2.136,1
3.359592,0.583,0.908,0.192,-2.807,4.638,1.77,1
3.367057,0.58,0.913,0.189,-2.014,4.333,1.342,1
3.373986,0.579,0.914,0.184,-0.366,4.272,0.549,1
3.383317,0.579,0.909,0.19,0.732,4.15,-0.183,1
3.39019,0.567,0.908,0.19,1.586,3.967,-0.732,1
3.398124,0.563,0.904,0.193,1.159,4.455,-1.77,1
3.406735,0.56,0.901,0.203,0.732,4.638,-2.075,1
3.413452,0.555,0.893,0.2,1.037,4.943,-2.624,1
3.422163,0.544,0.887,0.196,2.075,5.004,-2.99,1
3.429363,0.541,0.875,0.183,2.502,5.126,-3.356,1
3.438124,0.544,0.87,0.178,2.624,5.31,-3.54,1
3.445295,0.558,0.858,0.167,2.258,5.126,-3.784,1
3.454174,0.56,0.85,0.168,2.197,5.065,-3.906,1
3.461728,0.563,0.84,0.173,2.38,5.187,-3.784,1
3.469273,0.562,0.834,0.171,1.525,5.371,-3.784,1
3.47673,0.564,0.83,0.175,0.183,5.187,-3.601,1
3.485838,0.56,0.832,0.175,-0.122,5.737,-3.723,1
3.4943,0.557,0.829,0.17,0.122,5.676,-3.601,1
3.501176,0.561,0.832,0.165,0.793,5.676,-3.662,1
3.508685,0.553,0.822,0.161,1.281,5.859,-3.723,1
3.516237,0.557,0.818,0.163,1.22,5.615,-3.845,1
3.525349,0.552,0.814,0.166,0.854,5.981,-3.906,1
3.532749,0.549,0.816,0.166,-0.183,6.225,-4.028,1
3.540782,0.552,0.818,0.164,-0.183,6.53,-3.906,1
3.54779,0.552,0.82,0.156,0.183,6.713,-3.784,1
3.555542,0.553,0.815,0.153,0.305,6.53,-3.601,1
3.563115,0.559,0.81,0.151,0.427,6.53,-3.295,1
3.571295,0.562,0.807,0.157,-0.305,6.713,-2.99,1
3.580358,0.562,0.803,0.162,-0.854,6.896,-2.685,1
3.587566,0.555,0.811,0.171,-1.098,7.019,-2.624,1
3.59671,0.549,0.816,0.175,-1.342,7.019,-2.38,1
3.603743,0.544,0.824,0.172,-1.586,7.69,-2.258,1
3.611087,0.542,0.824,0.169,-0.915,7.69,-2.014,1
3.618643,0.538,0.824,0.166,0.0,7.629,-1.953,1
3.626138,0.541,0.817,0.158,0.915,7.873,-1.953,1
3.633936,0.543,0.818,0.155,0.305,7.751,-1.892,1
3.642634,0.545,0.815,0.152,-0.305,7.995,-2.014,1
3.649964,0.55,0.813,0.149,-0.366,8.056,-2.014,1
3.65921,0.555,0.81,0.149,-0.488,8.117,-1.708,1
3.66606,0.555,0.814,0.15,-0.732,7.995,-1.586,1
3.674255,0.561,0.82,0.15,-1.403,7.995,-1.647,1
3.681398,0.561,0.816,0.153,-2.136,8.239,-1.464,1
3.690426,0.56,0.819,0.151,-2.929,8.361,-1.403,1
3.697682,0.557,0.823,0.142,-3.234,8.483,-1.342,1
3.70665,0.559,0.819,0.138,-1.953,8.3,-1.098,1
3.71408,0.561,0.818,0.133,-0.244,7.934,-1.098,1
3.722177,0.561,0.809,0.133,1.22,7.873,-1.098,1
3.728708,0.558,0.808,0.141,1.708,7.995,-0.793,1
3.737373,0.561,0.807,0.143,1.708,7.812,-0.671,1
3.745355,0.559,0.818,0.135,2.258,7.934,-0.61,1
3.753377,0.562,0.812,0.125,2.624,7.873,-0.671,1
3.760221,0.56,0.829,0.118,3.173,7.568,-0.671,1
3.768532,0.565,0.829,0.109,3.845,7.263,-0.732,1
3.775896,0.566,0.824,0.113,4.211,6.896,-0.671,1
3.784168,0.57,0.816,0.12,4.516,6.591,-0.61,1
3.792698,0.573,0.818,0.133,4.76,6.347,-0.549,1
3.800025,0.57,0.823,0.139,5.004,6.53,-0.549,1
3.807472,0.565,0.83,0.14,4.577,6.408,-0.854,1
3.816601,0.561,0.829,0.142,4.089,6.469,-0.732,1
3.823399,0.556,0.82,0.143,2.624,6.713,-1.037,1
3.832546,0.556,0.817,0.143,1.464,7.08,-0.915,1
3.839437,0.553,0.82,0.143,1.525,7.019,-1.098,1
3.846887,0.553,0.812,0.149,2.868,7.141,-0.854,1
3.855236,0.556,0.812,0.155,2.807,7.263,-0.915,1
3.862355,0.559,0.81,0.16,2.441,7.446,-0.61,1
3.871157,0.559,0.817,0.165,1.647,7.934,-0.549,1
3.878367,0.557,0.824,0.163,0.183,8.361,-0.366,1
3.88602,0.553,0.832,0.157,-0.854,8.85,-0.427,1
3.8936,0.563,0.834,0.152,0.0,9.277,-0.244,1
3.902949,0.573,0.841,0.139,0.366,9.338,-0.366,1
3.91017,0.578,0.838,0.118,-0.854,9.521,-0.061,1
3.918155,0.584,0.845,0.099,-3.784,9.765,-0.122,1
3.92657,0.586,0.844,0.083,-7.751,9.582,-0.183,1
3.933774,0.578,0.846,0.073,-15.808,9.887,0.061,1
3.942238,0.588,0.834,0.053,-27.038,10.681,0.0,1
3.949204,0.609,0.825,0.044,-33.752,10.742,0.183,1
3.957419,0.606,0.843,0.06,-29.968,9.399,0.0,1
3.964069,0.597,0.853,0.061,-22.094,8.666,-0.183,1
3.972696,0.612,0.846,0.044,-21.118,8.3,-0.305,1
3.979882,0.588,0.808,0.041,-22.338,7.385,0.0,1
3.989312,0.58,0.807,0.063,-19.897,6.469,0.122,1
3.996432,0.549,0.812,0.06,-15.869,6.53,-0.244,1
4.004809,0.549,0.803,0.047,-14.892,5.859,-0.244,1
4.011853,0.547,0.802,0.041,-15.441,5.493,-0.244,1
4.020246,0.54,0.814,0.032,-15.258,5.126,-0.183,1
4.02864,0.54,0.814,0.023,-12.939,4.455,-0.305,1
4.036189,0.56,0.821,0.028,-9.765,4.089,-0.366,1
4.043584,0.563,0.814,0.033,-8.789,2.746,-0.244,1
4.052363,0.562,0.818,0.052,-7.324,2.136,-0.244,1
4.059584,0.557,0.835,0.066,-5.126,1.464,-0.488,1
4.06775,0.548,0.852,0.087,-2.38,1.159,-0.854,1
4.075912,0.55,0.843,0.096,-0.244,1.159,-1.159,1
4.084488,0.545,0.834,0.104,-0.427,1.464,-1.098,1
4.091958,0.55,0.841,0.11,-0.61,1.464,-1.159,1
4.099086,0.562,0.834,0.107,-1.403,1.892,-1.22,1
4.108089,0.568,0.823,0.104,-3.234,1.892,-1.159,1
4.115012,0.569,0.82,0.105,-4.76,2.38,-0.793,1
4.124403,0.572,0.818,0.103,-6.408,2.441,-1.098,1
4.131593,0.567,0.822,0.108,-6.958,2.563,-0.671,1
4.139496,0.575,0.83,0.119,-6.713,2.929,-1.159,1
4.146529,0.579,0.829,0.128,-5.493,2.868,-1.037,1
4.155987,0.583,0.823,0.152,-4.333,2.624,-0.793,1
4.16302,0.573,0.821,0.186,-6.591,3.723,-0.976,1
4.171854,0.576,0.833,0.201,-12.145,5.493,-0.549,1
4.178991,0.559,0.844,0.202,-16.296,6.469,-0.488,1
4.188487,0.567,0.838,0.198,-19.409,7.69,0.061,1
4.19561,0.548,0.836,0.184,-23.498,9.216,0.732,1
4.202737,0.524,0.838,0.163,-32.531,10.803,1.464,1
4.211412,0.563,0.854,0.148,-41.931,12.451,1.525,1
4.219578,0.57,0.891,0.133,-45.532,13.977,1.342,1
4.227381,0.593,0.907,0.097,-36.926,13.183,1.037,1
4.234064,0.586,0.919,0.089,-22.46,12.451,0.122,1
4.243944,0.592,0.922,0.071,-6.958,11.169,-0.671,1
4.251676,0.614,0.907,0.066,3.173,10.681,-1.647,1
4.259086,0.621,0.901,0.062,4.76,10.864,-2.624,1
4.266474,0.619,0.91,0.06,4.272,10.803,-3.967,1
4.27524,0.615,0.915,0.057,6.958,10.986,-5.187,1
4.28308,0.613,0.92,0.053,13.671,10.131,-6.286,1
4.289976,0.604,0.914,0.053,19.409,9.765,-7.324,1
4.297547,0.589,0.9,0.053,22.033,9.582,-8.3,1
4.304946,0.587,0.875,0.072,21.179,9.582,-8.544,1
4.312799,0.586,0.852,0.088,16.967,10.009,-9.033,1
4.321464,0.583,0.843,0.102,12.207,11.108,-9.399,1
4.328405,0.578,0.842,0.104,7.934,11.657,-9.094,1
4.337232,0.57,0.852,0.12,6.896,11.84,-8.666,1
4.345202,0.567,0.858,0.137,8.666,12.207,-8.789,1
4.352066,0.576,0.853,0.14,11.291,12.39,-8.85,1
4.360684,0.581,0.839,0.139,12.878,13.0,-8.422,1
4.368741,0.579,0.827,0.137,12.329,13.366,-8.056,1
4.376174,0.589,0.825,0.141,11.596,14.038,-7.568,1
4.385453,0.589,0.832,0.143,11.962,14.648,-7.446,1
4.392511,0.598,0.839,0.142,10.986,15.014,-7.385,1
4.399793,0.6,0.855,0.136,7.934,16.235,-7.385,1
4.407601,0.589,0.875,0.124,5.065,16.845,-7.263,1
4.416846,0.595,0.889,0.122,5.249,17.15,-7.446,1
4.423626,0.598,0.893,0.133,7.019,17.333,-7.995,1
4.431859,0.609,0.888,0.133,5.92,18.249,-8.056,1
4.439017,0.602,0.892,0.142,-2.319,19.348,-8.3,1
4.448335,0.605,0.899,0.173,-13.244,20.629,-8.544,1
4.455137,0.599,0.911,0.224,-24.169,22.827,-8.666,1
4.463105,0.597,0.928,0.262,-34.606,25.756,-9.155,1
4.471767,0.583,0.968,0.284,-39.001,27.709,-9.765,1
4.479831,0.585,0.999,0.285,-39.672,29.663,-10.437,1
4.487702,0.589,1.026,0.275,-39.184,31.494,-11.596,1
4.495376,0.6,1.052,0.261,-40.039,33.142,-12.084,1
4.503028,0.594,1.079,0.25,-41.992,35.034,-13.366,1
4.51194,0.614,1.104,0.253,-41.259,36.254,-15.258,1
4.519232,0.641,1.101,0.26,-33.508,38.085,-17.517,1
4.526487,0.642,1.084,0.236,-25.756,39.428,-19.531,1
4.53538,0.639,1.071,0.206,-19.897,40.588,-21.667,1
4.543681,0.639,1.051,0.184,-14.465,41.87,-23.742,1
4.551098,0.633,1.034,0.165,-7.263,43.457,-26.55,1
4.558353,0.634,0.988,0.136,-3.723,44.494,-28.808,1
4.56629,0.639,0.947,0.099,-4.089,45.837,-30.761,1
4.574956,0.635,0.913,0.068,-7.202,47.302,-32.47,1
4.58213,0.622,0.866,0.039,-8.605,47.973,-33.508,1
4.591269,0.613,0.813,0.029,-7.568,48.339,-34.118,1
4.598756,0.608,0.75,0.004,-7.629,49.194,-34.301,1
4.606155,0.603,0.712,-0.019,-10.681,50.354,-33.752,1
4.615235,0.6,0.684,-0.046,-10.131,50.72,-33.264,1
4.622251,0.602,0.647,-0.073,-3.601,50.415,-32.287,1
4.629907,0.604,0.604,-0.103,4.15,49.926,-31.311,1
4.638908,0.613,0.542,-0.136,7.751,49.743,-29.724,1
4.647243,0.613,0.473,-0.164,5.187,49.194,-27.404,1
4.655017,0.62,0.432,-0.174,0.488,49.194,-24.78,1
4.663626,0.625,0.411,-0.175,-1.831,48.706,-22.338,1
4.670774,0.61,0.417,-0.168,-1.586,48.828,-19.714,1
4.680505,0.59,0.417,-0.178,-0.366,48.095,-17.456,1
4.687584,0.577,0.416,-0.172,1.037,47.363,-14.953,1
4.695048,0.565,0.407,-0.172,2.075,46.874,-12.573,1
4.703997,0.544,0.403,-0.15,2.502,46.203,-10.559,1
4.711194,0.533,0.404,-0.122,2.746,46.447,-8.544,1
4.720245,0.517,0.398,-0.101,2.38,46.813,-6.835,1
4.727321,0.496,0.391,-0.101,-0.549,47.79,-4.76,1
4.736352,0.468,0.391,-0.114,-7.141,49.316,-2.563,1
4.743352,0.458,0.397,-0.126,-11.169,50.292,-1.037,1
4.752429,0.448,0.412,-0.141,-11.596,51.208,0.427,1
4.758594,0.438,0.421,-0.157,-7.629,51.452,1.77,1
4.767588,0.427,0.437,-0.185,-1.342,51.94,3.417,1
4.774805,0.407,0.455,-0.199,2.685,52.246,4.76,1
4.782692,0.4,0.46,-0.2,4.333,52.917,6.53,1
4.78928,0.395,0.466,-0.202,2.746,54.077,7.995,1
4.796475,0.369,0.479,-0.214,0.122,55.541,9.826,1
4.8041,0.336,0.498,-0.227,-2.319,57.067,11.23,1
4.812926,0.331,0.496,-0.245,-6.042,59.02,13.549,1
4.819902,0.339,0.496,-0.315,-14.648,61.645,15.991,1
4.828276,0.307,0.509,-0.416,-25.878,63.476,18.432,1
4.834892,0.288,0.531,-0.536,-33.386,63.72,20.751,1
4.84286,0.346,0.539,-0.648,-37.292,62.866,23.193,1
4.851042,0.31,0.547,-0.76,-43.945,62.988,25.451,1
4.858176,0.343,0.568,-0.895,-54.565,61.279,27.648,1
4.865835,0.344,0.581,-1.017,-62.255,58.227,29.907,1
4.875056,0.317,0.607,-1.085,-57.8,53.222,31.616,1
4.881872,0.384,0.637,-1.126,-46.508,48.217,32.897,1
4.889808,0.373,0.617,-1.191,-39.794,44.189,33.447,1
4.89903,0.358,0.609,-1.256,-44.616,39.123,34.118,1
4.905752,0.394,0.605,-1.291,-53.466,35.888,34.729,1
4.913125,0.364,0.575,-1.363,-62.988,32.958,35.217,1
4.920651,0.366,0.568,-1.45,-68.176,27.893,35.949,1
4.929919,0.203,0.575,-1.524,-60.363,21.118,37.719,1
4.937115,0.376,0.554,-1.539,-42.541,12.084,39.001,1
4.946465,0.302,0.49,-1.625,-45.104,8.117,41.381,1
4.953456,0.266,0.461,-1.771,-67.993,0.0,44.494,1
4.96137,0.201,0.452,-1.835,-86.669,-6.164,48.095,1
4.969131,0.177,0.469,-1.882,-95.581,-14.099,51.208,1
4.977342,0.114,0.497,-1.904,-95.214,-22.216,54.077,1
4.985163,0.06,0.494,-1.927,-91.369,-32.287,57.25,1
4.992995,-0.039,0.498,-1.938,-88.806,-40.893,60.302,1
5.001703,-0.03,0.517,-1.92,-76.293,-52.551,63.293,1
5.010918,-0.078,0.431,-1.832,-70.861,-57.861,66.833,1
5.019302,-0.2,0.4,-2.05,-80.261,-65.979,71.228,1
5.026883,-0.288,0.367,-2.104,-96.069,-77.636,77.27,1
5.035444,-0.317,0.361,-2.169,-102.233,-87.707,84.167,1
5.044279,-0.435,0.393,-2.301,-105.712,-100.891,91.735,1
5.051406,-0.518,0.411,-2.356,-107.666,-112.792,98.51,1
5.060632,-0.618,0.44,-2.434,-108.886,-124.084,104.858,1
5.068036,-0.802,0.495,-2.518,-94.787,-142.089,113.464,1
5.076435,-0.734,0.503,-2.586,-76.538,-157.47,119.079,1
5.085206,-0.85,0.504,-2.875,-80.2,-176.757,127.258,1
5.092587,-1.099,0.552,-3.033,-117.309,-202.819,133.972,1
5.10161,-1.259,0.604,-2.853,-135.375,-217.224,140.258,1
5.109304,-1.39,0.694,-2.753,-138.977,-228.881,147.766,1
5.116886,-1.527,0.798,-2.698,-132.751,-243.896,156.127,1
5.126264,-1.645,0.92,-2.669,-119.995,-256.408,161.987,1
5.133347,-1.816,1.023,-2.715,-103.271,-273.437,166.87,1
5.142408,-2.017,1.084,-2.74,-91.674,-290.222,169.799,1
5.149846,-2.264,1.146,-2.756,-87.768,-309.753,173.034,1
5.158148,-2.489,1.208,-2.753,-93.505,-327.087,175.659,1
5.167016,-2.769,1.352,-2.649,-100.585,-347.412,179.016,1
5.174667,-3.029,1.547,-2.471,-100.769,-365.844,182.006,1
5.183756,-3.234,1.75,-2.311,-97.106,-380.859,184.265,1
5.192312,-3.529,2.06,-2.102,-90.332,-395.507,186.096,1
5.199096,-3.759,2.361,-1.845,-86.975,-411.071,185.668,1
5.207979,-3.849,2.651,-1.534,-85.876,-421.02,182.556,1
5.216612,-3.893,2.962,-1.141,-75.927,-430.175,175.292,1
5.225113,-3.922,3.172,-0.808,-59.326,-437.255,166.992,1
5.231948,-3.887,3.302,-0.415,-37.109,-443.847,154.174,1
5.240358,-3.877,3.407,-0.047,-19.958,-449.462,141.174,1
5.249835,-3.846,3.479,0.476,-7.141,-451.904,122.924,1
5.257397,-3.765,3.518,1.131,-3.906,-448.913,105.651,1
5.264679,-3.576,3.43,1.713,-8.361,-439.27,87.951,1
5.27203,-3.339,3.267,2.218,-24.841,-420.043,68.298,1
5.281052,-3.14,3.095,2.556,-40.283,-400.512,53.161,1
5.287971,-2.86,2.839,2.859,-48.828,-381.774,39.428,1
5.295996,-2.575,2.631,3.083,-45.043,-357.604,25.817,1
5.305358,-2.334,2.425,3.198,-41.748,-336.425,16.418,1
5.313298,-2.163,2.271,3.29,-43.457,-315.734,8.239,1
5.321085,-1.902,2.123,3.401,-38.696,-290.832,0.671,1
5.328368,-1.527,1.925,3.524,-28.198,-268.371,-5.31,1
5.337651,-1.215,1.72,3.528,-16.662,-244.812,-10.192,1
5.34576,-0.916,1.502,3.435,-16.601,-218.627,-14.343,1
5.354089,-0.616,1.358,3.297,-24.597,-196.716,-16.54,1
5.362044,-0.284,1.242,3.047,-30.09,-172.973,-18.676,1
5.370409,0.013,1.151,2.671,-29.907,-156.066,-20.08,1
5.377885,0.202,1.057,2.311,-29.541,-141.845,-21.85,1
5.386026,0.307,1.001,2.036,-27.038,-133.605,-22.399,1
5.393174,0.381,0.97,1.825,-20.08,-125.183,-22.705,1
5.402567,0.402,0.956,1.723,-13.061,-118.591,-22.644,1
5.410519,0.417,0.951,1.636,-6.958,-111.633,-22.033,1
5.418883,0.394,0.967,1.548,1.281,-104.064,-20.935,1
5.426538,0.369,0.996,1.478,8.361,-97.839,-20.08,1
5.434685,0.329,1.025,1.389,11.962,-90.454,-19.409,1
5.442784,0.33,1.046,1.303,9.887,-84.35,-19.165,1
5.450133,0.338,1.049,1.213,7.019,-78.857,-19.226,1
5.45733,0.349,1.031,1.156,4.455,-74.096,-19.836,1
5.466325,0.358,1.019,1.112,6.042,-70.129,-20.568,1
5.473249,0.322,0.997,1.133,9.887,-66.284,-21.667,1
5.480906,0.319,0.975,1.196,12.817,-61.523,-22.705,1
5.490607,0.329,0.954,1.251,13.305,-55.419,-23.986,1
5.497771,0.323,0.927,1.25,13.061,-49.255,-25.39,1
5.504877,0.322,0.892,1.211,13.793,-43.701,-26.672,1
5.512067,0.336,0.841,1.153,13.305,-37.292,-27.404,1
5.519643,0.342,0.78,1.091,9.521,-32.043,-27.343,1
5.528913,0.347,0.757,1.036,7.141,-27.282,-26.977,1
5.535857,0.354,0.735,0.985,8.056,-22.888,-25.878,1
5.543572,0.351,0.718,0.926,9.887,-17.883,-24.353,1
5.552276,0.388,0.684,0.877,8.972,-13.549,-23.071,1
5.560123,0.413,0.659,0.816,5.004,-8.911,-21.179,1
5.56797,0.445,0.662,0.738,2.624,-5.065,-19.47,1
5.575118,0.48,0.679,0.629,3.54,-2.746,-17.944,1
5.583641,0.514,0.685,0.561,6.835,-0.854,-16.723,1
5.589998,0.548,0.683,0.508,9.277,0.061,-15.624,1
5.598317,0.546,0.687,0.472,10.62,0.976,-14.343,1
5.605609,0.558,0.698,0.437,10.253,2.136,-13.427,1
5.613096,0.558,0.711,0.396,9.582,3.295,-12.268,1
5.620459,0.555,0.722,0.358,9.338,4.638,-11.352,1
5.629854,0.548,0.711,0.304,5.981,5.615,-10.559,1
5.637537,0.537,0.725,0.272,2.319,6.347,-9.826,1
5.645405,0.53,0.74,0.256,1.525,6.774,-8.85,1
5.652103,0.528,0.748,0.23,2.99,7.141,-8.3,1
5.661319,0.514,0.755,0.21,5.859,7.019,-7.324,1
5.6683,0.502,0.765,0.195,8.911,6.835,-6.896,1
5.676221,0.508,0.785,0.187,11.047,6.591,-6.408,1
5.685239,0.503,0.79,0.189,12.939,6.347,-5.798,1
5.692108,0.501,0.797,0.187,15.991,6.652,-5.432,1
5.699581,0.489,0.816,0.166,17.883,6.896,-5.187,1
5.708734,0.474,0.846,0.136,18.981,6.896,-5.249,1
5.714861,0.481,0.871,0.099,19.836,6.164,-5.249,1
5.722515,0.487,0.867,0.075,18.92,5.737,-5.249,1
5.730161,0.498,0.859,0.059,16.479,5.371,-5.493,1
5.738713,0.519,0.858,0.027,14.404,4.943,-5.249,1
5.745402,0.509,0.851,0.002,14.648,3.54,-5.31,1
5.754458,0.498,0.854,-0.009,16.723,2.258,-5.004,1
5.761435,0.497,0.866,0.0,18.737,0.488,-5.004,1
5.7691,0.499,0.868,0.015,21.667,-1.22,-5.065,1
5.777125,0.5,0.862,0.04,24.658,-2.502,-5.371,1
5.784954,0.509,0.854,0.063,27.526,-4.028,-5.859,1
5.794266,0.504,0.847,0.103,25.634,-4.699,-6.103,1
5.801588,0.493,0.839,0.123,16.662,-4.028,-6.225,1
5.808927,0.498,0.87,0.159,5.065,-3.967,-6.103,1
5.816794,0.504,0.897,0.201,-4.699,-2.929,-6.713,1
5.826029,0.508,0.911,0.229,-6.53,-2.258,-7.141,1
5.832751,0.502,0.909,0.235,-5.004,-2.075,-7.873,1
5.842587,0.496,0.884,0.262,-2.624,-1.953,-8.3,1
5.849851,0.497,0.863,0.289,-1.586,-0.549,-8.361,1
5.857187,0.498,0.845,0.288,-3.723,1.22,-8.056,1
5.866301,0.497,0.839,0.26,-8.544,2.868,-7.507,1
5.873368,0.502,0.85,0.241,-11.718,3.784,-7.08,1
5.881234,0.515,0.855,0.236,-9.521,4.516,-6.591,1
5.889893,0.539,0.859,0.224,-4.455,4.76,-6.469,1
5.897137,0.551,0.86,0.201,0.61,4.76,-6.225,1
5.906405,0.553,0.858,0.161,2.624,5.126,-6.713,1
5.913325,0.563,0.862,0.141,2.319,4.76,-6.958,1
5.920786,0.571,0.864,0.133,2.319,4.516,-7.507,1
5.928467,0.573,0.858,0.114,3.54,3.967,-7.812,1
5.936183,0.572,0.856,0.09,4.272,3.601,-8.361,1
5.943944,0.568,0.844,0.076,4.882,2.624,-8.544,1
5.951944,0.567,0.842,0.064,5.554,1.831,-9.033,1
5.960954,0.57,0.835,0.064,5.615,0.671,-9.155,1
5.968014,0.575,0.84,0.065,6.53,0.061,-9.277,1
5.975493,0.566,0.842,0.053,6.835,-0.427,-9.277,1
5.983342,0.54,0.85,0.051,7.324,-1.464,-9.216,1
5.992788,0.527,0.862,0.051,8.728,-2.563,-9.338,1
5.999686,0.523,0.859,0.046,9.338,-3.356,-9.277,1
6.008593,0.526,0.849,0.045,9.826,-4.455,-9.216,1
6.016444,0.521,0.838,0.05,8.911,-5.187,-9.094,1
6.023736,0.522,0.824,0.047,5.798,-5.737,-8.666,1
6.031483,0.511,0.809,0.041,2.868,-6.347,-8.178,1
6.038687,0.504,0.799,0.041,-0.427,-7.202,-7.995,1
6.046618,0.504,0.796,0.048,-2.746,-7.69,-7.69,1
6.055774,0.518,0.798,0.051,-4.333,-8.666,-7.324,1
6.062905,0.514,0.792,0.058,-3.784,-9.765,-7.08,1
6.071593,0.509,0.788,0.066,-3.54,-10.681,-7.019,1
6.080536,0.499,0.771,0.075,-4.394,-11.84,-6.53,1
6.08737,0.515,0.731,0.074,-7.202,-12.817,-5.798,1
6.096568,0.516,0.732,0.109,-12.084,-12.329,-5.065,1
6.1036,0.536,0.716,0.113,-16.357,-12.756,-4.211,1
6.111217,0.521,0.718,0.141,-20.202,-12.695,-3.601,1
6.120505,0.533,0.728,0.145,-20.385,-12.817,-2.99,1
6.127965,0.542,0.743,0.155,-19.104,-13.122,-2.624,1
6.136718,0.543,0.75,0.165,-13.549,-13.244,-1.953,1
6.144295,0.525,0.763,0.173,-5.493,-14.16,-1.831,1
6.151712,0.545,0.762,0.175,2.502,-14.099,-1.708,1
6.160977,0.541,0.741,0.171,9.765,-14.404,-1.464,1
6.167764,0.531,0.732,0.171,14.465,-14.892,-0.488,1
6.175987,0.522,0.721,0.174,16.723,-15.197,-0.061,1
6.183225,0.528,0.715,0.186,14.77,-15.197,0.488,1
6.192317,0.54,0.717,0.196,7.995,-15.075,1.403,1
6.199596,0.532,0.715,0.208,1.586,-14.099,2.075,1
6.206823,0.536,0.728,0.217,-3.54,-13.183,3.234,1
6.214658,0.529,0.753,0.223,-7.995,-13.0,3.54,1
6.223787,0.526,0.771,0.245,-10.437,-12.512,4.333,1
6.230775,0.531,0.786,0.261,-9.277,-12.268,4.516,1
6.240183,0.534,0.788,0.274,-7.019,-11.901,4.76,1
6.246979,0.537,0.791,0.27,-4.821,-11.657,4.882,1
6.256148,0.537,0.789,0.267,-4.333,-11.596,5.126,1
6.26343,0.538,0.786,0.264,-4.089,-11.657,5.249,1
6.271505,0.531,0.792,0.262,-3.601,-11.596,5.798,1
6.278862,0.532,0.791,0.26,-4.333,-11.84,6.225,1
6.287744,0.529,0.797,0.276,-4.028,-11.535,6.591,1
6.294499,0.518,0.799,0.291,-3.601,-11.596,6.713,1
6.303224,0.524,0.811,0.305,-2.136,-11.169,6.958,1
6.311428,0.522,0.819,0.308,-0.793,-10.803,6.896,1
6.317963,0.513,0.836,0.315,0.488,-10.559,6.835,1
6.326509,0.514,0.843,0.326,2.563,-9.887,6.835,1
6.333128,0.501,0.848,0.327,4.882,-9.521,6.652,1
6.341473,0.493,0.855,0.33,6.835,-8.544,6.225,1
6.348823,0.492,0.847,0.324,7.446,-8.117,6.469,1
6.355036,0.495,0.842,0.321,6.591,-6.835,6.408,1
6.363144,0.503,0.84,0.309,3.845,-5.676,6.225,1
6.369817,0.498,0.831,0.287,-1.708,-4.516,6.042,1
6.377391,0.506,0.83,0.271,-7.934,-3.723,6.225,1
6.385743,0.501,0.839,0.267,-11.657,-2.99,6.225,1
6.392038,0.503,0.846,0.256,-11.169,-2.624,6.225,1
6.400238,0.517,0.851,0.253,-7.69,-2.624,6.53,1
6.408864,0.518,0.854,0.249,-2.258,-2.868,6.53,1
6.415571,0.52,0.851,0.24,3.112,-3.356,6.835,1
6.42218,0.523,0.852,0.237,5.92,-3.295,6.896,1
6.43028,0.521,0.865,0.218,5.981,-3.845,7.019,1
6.437859,0.516,0.876,0.208,3.906,-3.479,6.896,1
6.444517,0.514,0.895,0.189,-0.732,-3.967,5.92,1
6.452716,0.512,0.894,0.183,-4.699,-4.211,5.371,1
6.459662,0.534,0.884,0.202,-6.408,-4.455,4.516,1
6.467518,0.542,0.876,0.209,-4.699,-4.333,4.028,1
6.475944,0.544,0.86,0.208,-0.61,-5.004,4.028,1
6.482541,0.537,0.852,0.21,4.76,-5.432,3.723,1
6.491233,0.528,0.841,0.213,10.803,-5.92,4.272,1
6.498135,0.514,0.83,0.205,13.732,-6.225,4.821,1
6.50728,0.503,0.835,0.207,13.488,-6.408,5.126,1
6.513898,0.501,0.85,0.202,14.038,-6.958,5.615,1
6.521306,0.508,0.865,0.205,16.235,-7.69,5.493,1
6.529031,0.501,0.867,0.221,19.653,-8.056,5.432,1
6.538053,0.504,0.873,0.226,23.498,-8.178,5.126,1
6.544855,0.499,0.872,0.238,26.184,-8.85,4.943,1
6.553418,0.496,0.867,0.254,27.709,-9.094,4.699,1
6.56043,0.482,0.855,0.262,25.939,-8.85,4.455,1
6.568542,0.492,0.837,0.283,21.423,-8.3,4.455,1
6.575466,0.486,0.837,0.283,15.38,-7.507,4.272,1
6.584121,0.477,0.839,0.283,12.329,-7.263,4.76,1
6.591466,0.471,0.842,0.286,10.864,-6.774,4.699,1
6.598559,0.465,0.848,0.302,11.352,-6.53,4.638,1
6.605773,0.484,0.846,0.306,12.512,-6.164,4.882,1
6.61338,0.476,0.851,0.299,12.39,-5.737,4.638,1
6.621014,0.474,0.849,0.305,11.901,-5.065,4.882,1
6.628655,0.473,0.845,0.304,9.338,-4.516,4.699,1
6.63641,0.478,0.836,0.303,4.882,-3.967,4.821,1
6.645554,0.481,0.827,0.301,0.122,-3.356,4.699,1
6.652633,0.49,0.835,0.293,-3.845,-2.563,4.821,1
6.661953,0.491,0.835,0.287,-7.995,-2.075,4.638,1
6.669724,0.493,0.843,0.278,-9.399,-2.197,4.699,1
6.677127,0.49,0.852,0.274,-8.239,-2.441,4.516,1
6.684371,0.487,0.846,0.272,-6.347,-2.441,4.699,1
6.692615,0.491,0.836,0.268,-4.516,-2.441,5.065,1
6.701548,0.48,0.842,0.25,-5.432,-2.502,5.432,1
6.709206,0.476,0.855,0.249,-7.019,-2.502,5.615,1
6.71703,0.491,0.869,0.236,-8.117,-2.624,5.737,1
6.724904,0.497,0.88,0.231,-7.08,-2.929,5.371,1
6.732597,0.5,0.882,0.229,-5.126,-3.54,5.187,1
6.741338,0.501,0.886,0.233,-2.929,-4.028,4.943,1
6.748898,0.498,0.884,0.218,-3.356,-4.394,4.577,1
6.756719,0.493,0.895,0.227,-5.798,-4.943,4.272,1
6.763897,0.492,0.893,0.228,-7.141,-4.882,3.967,1
6.771664,0.491,0.904,0.23,-8.85,-5.371,3.234,1
6.780822,0.484,0.907,0.242,-8.117,-5.187,2.685,1
6.787787,0.491,0.905,0.244,-7.019,-5.493,2.197,1
6.795519,0.49,0.907,0.243,-4.821,-5.249,1.647,1
6.804159,0.481,0.903,0.233,-4.15,-5.432,1.098,1
6.810904,0.476,0.9,0.226,-3.784,-5.676,0.61,1
6.819504,0.482,0.9,0.227,-3.234,-5.92,0.122,1
6.826628,0.488,0.896,0.226,-2.258,-6.347,0.0,1
6.833539,0.494,0.895,0.228,-1.403,-6.347,-0.061,1
6.841127,0.492,0.893,0.225,-1.342,-6.652,-0.244,1
6.850517,0.486,0.896,0.236,-1.342,-6.896,-0.427,1
6.8575,0.485,0.9,0.245,-0.549,-7.019,-0.305,1
6.866344,0.494,0.902,0.251,1.098,-7.263,-0.61,1
6.874287,0.491,0.896,0.266,2.929,-7.324,-0.915,1
6.882253,0.486,0.894,0.267,3.662,-7.263,-1.22,1
6.889643,0.47,0.893,0.265,3.479,-6.958,-1.464,1
6.897041,0.479,0.887,0.261,2.685,-6.896,-1.77,1
6.906091,0.479,0.89,0.264,1.586,-6.652,-1.892,1
6.91279,0.475,0.887,0.252,0.915,-6.652,-2.197,1
6.922062,0.468,0.889,0.245,0.0,-6.958,-2.807,1
6.93061,0.471,0.883,0.236,-0.305,-7.324,-3.051,1
6.9377,0.479,0.883,0.25,-0.183,-7.995,-3.479,1
6.945246,0.479,0.889,0.263,0.305,-7.995,-3.54,1
6.954396,0.483,0.897,0.274,0.854,-8.117,-3.906,1
6.96219,0.483,0.898,0.288,2.807,-8.239,-4.394,1
6.96971,0.486,0.888,0.297,5.187,-8.117,-4.394,1
6.978522,0.49,0.88,0.303,7.385,-7.934,-4.821,1
6.986224,0.486,0.875,0.312,8.3,-7.629,-4.699,1
6.993742,0.479,0.865,0.312,7.934,-7.263,-4.516,1
7.002463,0.477,0.861,0.304,6.286,-6.835,-4.699,1
7.00947,0.475,0.86,0.3,3.845,-6.652,-4.76,1
7.019219,0.476,0.86,0.306,1.77,-6.103,-4.943,1
7.026288,0.476,0.858,0.306,0.671,-5.798,-4.821,1
7.034061,0.478,0.86,0.309,0.305,-5.493,-4.943,1
7.040695,0.479,0.86,0.313,1.281,-5.31,-4.943,1
7.048088,0.476,0.858,0.321,2.624,-5.126,-4.76,1
7.056359,0.482,0.859,0.321,3.967,-5.065,-5.065,1
7.063814,0.48,0.864,0.327,4.882,-4.516,-5.187,1
7.071577,0.479,0.858,0.334,5.371,-4.272,-5.126,1
7.079395,0.479,0.858,0.34,5.31,-4.089,-5.31,1
7.087117,0.479,0.852,0.339,5.187,-3.112,-5.31,1
7.095694,0.476,0.85,0.331,4.821,-2.624,-5.187,1
7.104683,0.474,0.842,0.318,4.455,-1.953,-5.065,1
7.111082,0.469,0.836,0.308,4.272,-2.014,-4.821,1
7.120503,0.474,0.828,0.299,3.784,-1.647,-4.76,1
7.127045,0.475,0.824,0.292,3.601,-1.647,-4.821,1
7.136179,0.476,0.824,0.287,2.624,-1.464,-4.394,1
7.143301,0.48,0.826,0.276,1.708,-1.281,-4.272,1
7.151346,0.482,0.824,0.273,0.61,-1.525,-4.211,1
7.1589,0.479,0.832,0.264,-0.183,-1.647,-4.15,1
7.16717,0.483,0.832,0.258,-0.549,-1.831,-4.15,1
7.174046,0.491,0.832,0.255,0.183,-1.892,-4.394,1
7.182953,0.5,0.826,0.249,0.976,-2.197,-4.333,1
7.190311,0.485,0.827,0.242,2.563,-2.868,-4.272,1
7.19935,0.488,0.819,0.241,3.967,-3.234,-4.272,1
7.206412,0.494,0.812,0.236,4.76,-3.723,-4.211,1
7.215406,0.49,0.804,0.246,5.004,-3.845,-4.089,1
7.223114,0.493,0.8,0.255,4.516,-4.211,-4.089,1
7.23101,0.49,0.795,0.26,3.845,-4.15,-3.601,1
7.238608,0.491,0.795,0.273,2.929,-4.333,-3.295,1
7.246219,0.49,0.788,0.275,2.746,-4.455,-2.929,1
7.254919,0.49,0.786,0.28,2.624,-4.455,-2.441,1
7.263586,0.489,0.788,0.274,2.319,-4.516,-2.014,1
7.271737,0.48,0.795,0.27,1.22,-4.394,-1.586,1
7.279889,0.478,0.8,0.274,1.22,-4.455,-1.586,1
7.28713,0.485,0.807,0.276,1.403,-4.577,-1.281,1
7.296538,0.483,0.807,0.28,2.075,-4.516,-0.976,1
7.306167,0.488,0.814,0.278,1.831,-4.455,-1.037,1
7.313989,0.481,0.822,0.27,0.366,-4.272,-0.61,1
7.320662,0.478,0.841,0.269,-0.549,-4.516,-0.793,1
7.32965,0.475,0.854,0.265,-0.366,-4.516,-1.037,1
7.337548,0.474,0.862,0.266,1.586,-5.187,-1.22,1
7.344935,0.482,0.866,0.26,3.356,-5.493,-1.403,1
7.353641,0.484,0.868,0.258,3.784,-5.981,-1.525,1
7.360758,0.488,0.867,0.263,3.112,-6.225,-1.831,1
7.369336,0.496,0.864,0.266,2.868,-6.469,-2.075,1
7.376573,0.503,0.865,0.275,2.258,-6.408,-2.441,1
7.385367,0.499,0.865,0.273,1.159,-6.469,-2.685,1
7.393022,0.494,0.867,0.28,0.671,-6.774,-3.295,1
7.400125,0.485,0.867,0.287,1.464,-7.385,-3.356,1
7.409386,0.49,0.869,0.301,3.051,-7.446,-3.784,1
7.416823,0.494,0.88,0.312,6.53,-7.629,-4.028,1
7.425305,0.495,0.881,0.322,9.643,-7.568,-4.333,1
7.433389,0.496,0.878,0.325,13.244,-7.812,-4.882,1
7.44062,0.504,0.872,0.328,16.723,-7.995,-5.432,1
7.449828,0.502,0.866,0.327,17.456,-7.69,-5.554,1
7.456157,0.501,0.859,0.332,16.052,-7.446,-5.92,1
7.46535,0.5,0.85,0.331,12.817,-6.896,-6.347,1
7.472776,0.503,0.84,0.336,10.375,-6.713,-6.53,1
7.481657,0.513,0.836,0.342,9.521,-6.164,-6.53,1
7.489877,0.513,0.829,0.342,8.605,-6.042,-6.53,1
7.496249,0.51,0.829,0.338,8.117,-5.554,-6.347,1
7.504102,0.5,0.82,0.333,7.995,-5.737,-6.408,1
7.512664,0.503,0.817,0.339,7.934,-5.493,-6.225,1
7.521872,0.51,0.808,0.341,7.385,-5.249,-5.798,1
7.529595,0.509,0.801,0.337,5.31,-5.004,-5.737,1
7.537235,0.505,0.807,0.339,3.173,-4.516,-5.371,1
7.544431,0.503,0.811,0.334,1.831,-4.455,-5.187,1
7.553556,0.502,0.821,0.329,1.708,-4.394,-5.004,1
7.560292,0.504,0.816,0.331,2.258,-4.272,-4.882,1
7.569252,0.501,0.815,0.318,2.258,-4.211,-5.004,1
7.576709,0.496,0.812,0.307,2.136,-4.028,-4.699,1
7.584741,0.493,0.808,0.313,1.708,-4.455,-4.821,1
7.592004,0.492,0.804,0.312,1.159,-4.333,-4.943,1
7.599245,0.491,0.808,0.323,1.281,-4.516,-4.821,1
7.60683,0.491,0.804,0.324,0.549,-4.455,-4.943,1
7.614648,0.489,0.802,0.32,-0.122,-4.15,-4.943,1
7.624068,0.49,0.795,0.326,-0.915,-4.272,-4.821,1
7.63101,0.491,0.791,0.317,-1.77,-4.272,-4.577,1
7.640244,0.482,0.783,0.317,-1.953,-4.211,-4.577,1
7.648023,0.484,0.78,0.315,-1.77,-4.211,-4.577,1
7.65555,0.489,0.772,0.316,-1.586,-4.638,-4.272,1
7.664758,0.486,0.77,0.312,-1.708,-4.394,-4.028,1
7.671648,0.483,0.771,0.314,-2.441,-4.638,-3.601,1
7.679439,0.479,0.77,0.321,-2.319,-4.882,-3.417,1
7.687327,0.479,0.77,0.328,-1.77,-4.943,-3.173,1
7.69526,0.479,0.759,0.343,-0.976,-5.126,-2.746,1
7.704617,0.481,0.762,0.346,0.793,-5.187,-2.136,1
7.712086,0.483,0.756,0.352,2.197,-5.493,-1.831,1
7.719213,0.475,0.749,0.358,4.211,-5.31,-1.281,1
7.728601,0.475,0.737,0.366,5.981,-5.126,-0.488,1
7.735691,0.474,0.73,0.381,5.92,-5.065,0.244,1
7.743627,0.477,0.719,0.408,5.676,-4.882,1.22,1
7.750831,0.476,0.713,0.428,5.493,-4.15,2.014,1
7.758761,0.473,0.708,0.465,4.638,-3.173,3.051,1
7.766004,0.469,0.695,0.491,3.479,-1.831,3.662,1
7.775096,0.471,0.696,0.502,0.61,-0.61,4.638,1
7.78318,0.465,0.699,0.51,-2.929,1.22,5.432,1
7.790029,0.469,0.713,0.505,-4.028,2.868,6.164,1
7.797468,0.479,0.728,0.484,-2.136,3.601,6.591,1
7.804996,0.475,0.736,0.465,1.22,4.211,7.019,1
7.813656,0.483,0.75,0.436,4.272,4.882,7.507,1
7.820909,0.494,0.763,0.409,6.225,5.31,7.751,1
7.828366,0.496,0.764,0.387,5.798,5.615,8.117,1
7.836045,0.497,0.777,0.363,3.723,6.347,8.483,1
7.844464,0.502,0.792,0.332,0.427,6.591,8.483,1
7.851844,0.501,0.81,0.306,-1.953,6.53,8.3,1
7.859919,0.501,0.83,0.283,-3.051,6.225,8.239,1
7.867241,0.499,0.847,0.255,-2.258,5.92,7.69,1
7.87629,0.494,0.857,0.224,-0.61,5.126,7.446,1
7.883443,0.495,0.864,0.204,1.22,3.845,6.713,1
7.890916,0.489,0.868,0.179,3.112,2.38,6.591,1
7.900033,0.498,0.873,0.158,4.15,0.854,5.737,1
7.906775,0.498,0.876,0.152,4.455,-0.732,5.31,1
7.915973,0.504,0.875,0.15,5.126,-2.38,4.638,1
7.923905,0.513,0.874,0.155,4.943,-3.967,4.089,1
7.930249,0.51,0.869,0.166,4.638,-5.31,3.54,1
7.938917,0.505,0.871,0.187,3.54,-6.53,3.173,1
7.945542,0.5,0.875,0.204,1.77,-7.324,2.807,1
7.954003,0.489,0.884,0.223,-0.061,-7.873,2.441,1
7.960911,0.487,0.896,0.232,-0.793,-8.544,1.77,1
7.968752,0.481,0.899,0.242,-0.305,-9.399,1.403,1
7.977305,0.481,0.902,0.243,0.61,-10.07,1.037,1
7.984369,0.48,0.905,0.246,1.037,-10.62,-0.061,1
7.992703,0.481,0.904,0.25,1.708,-11.108,-0.61,1
8.002662,0.478,0.901,0.262,3.479,-11.84,-1.281,1
8.008029,0.479,0.89,0.273,5.432,-12.39,-1.586,1
8.017022,0.486,0.879,0.286,6.347,-12.817,-1.953,1
8.023832,0.484,0.868,0.298,6.225,-13.061,-2.258,1
8.032569,0.487,0.861,0.311,4.821,-12.939,-2.624,1
8.039666,0.49,0.859,0.32,2.38,-12.817,-2.868,1
8.047021,0.49,0.859,0.336,0.549,-12.451,-3.234,1
8.055097,0.493,0.854,0.346,-0.915,-12.39,-3.479,1
8.064192,0.487,0.846,0.352,-1.586,-11.962,-3.112,1
8.073073,0.484,0.844,0.363,-0.427,-11.901,-3.295,1
8.079246,0.48,0.839,0.376,3.54,-11.901,-3.723,1
8.087471,0.48,0.831,0.395,7.873,-11.901,-3.845,1
8.095927,0.485,0.812,0.407,11.962,-11.657,-4.272,1
8.103243,0.49,0.792,0.426,13.671,-11.535,-4.333,1
8.111048,0.486,0.771,0.452,13.305,-10.925,-4.15,1
8.120293,0.482,0.752,0.481,11.169,-10.314,-4.15,1
8.12869,0.478,0.742,0.507,7.934,-9.094,-3.234,1
8.135888,0.462,0.739,0.521,5.371,-7.446,-2.746,1
8.144702,0.45,0.744,0.525,5.92,-6.286,-1.708,1
8.151741,0.441,0.753,0.528,8.483,-4.882,-0.671,1
8.159202,0.443,0.756,0.514,10.131,-3.723,0.0,1
8.16678,0.449,0.761,0.498,10.192,-2.624,0.61,1
8.174923,0.445,0.765,0.482,8.422,-1.159,1.403,1
8.182354,0.459,0.771,0.459,5.371,-0.061,2.319,1
8.191329,0.463,0.775,0.436,3.54,0.915,2.929,1
8.198656,0.462,0.791,0.42,4.211,1.037,3.051,1
8.204993,0.465,0.807,0.407,6.958,1.098,3.417,1
8.214312,0.474,0.815,0.401,10.314,0.793,3.112,1
8.221513,0.488,0.823,0.399,11.291,0.854,3.112,1
8.228939,0.497,0.834,0.388,8.85,1.037,2.502,1
8.236629,0.49,0.846,0.379,6.713,0.976,2.258,1
8.244002,0.49,0.856,0.369,6.469,0.732,1.525,1
8.251545,0.494,0.858,0.351,7.385,0.122,0.61,1
8.260247,0.491,0.859,0.334,8.361,-0.122,0.0,1
8.268266,0.502,0.862,0.312,10.314,-1.098,-0.61,1
8.277289,0.504,0.86,0.289,10.864,-1.708,-1.464,1
8.284092,0.493,0.854,0.259,9.704,-2.99,-2.136,1
8.292573,0.491,0.839,0.247,8.3,-4.211,-2.929,1
8.301296,0.489,0.837,0.249,7.934,-5.432,-3.173,1
8.30828,0.483,0.833,0.262,10.559,-7.141,-3.723,1
8.316478,0.475,0.834,0.281,15.014,-8.239,-4.089,1
8.325155,0.48,0.839,0.295,20.568,-9.582,-4.333,1
8.332338,0.471,0.831,0.291,22.949,-10.925,-4.516,1
8.34011,0.461,0.807,0.296,23.681,-11.657,-4.638,1
8.348148,0.47,0.794,0.291,21.789,-12.512,-4.699,1
8.35654,0.463,0.777,0.293,19.104,-13.305,-4.272,1
8.365008,0.458,0.757,0.306,16.357,-14.16,-4.272,1
8.373948,0.467,0.738,0.325,16.235,-14.892,-4.089,1
8.38121,0.484,0.714,0.346,17.517,-16.052,-3.723,1
8.389953,0.493,0.7,0.357,20.69,-17.15,-3.54,1
8.396239,0.494,0.691,0.384,24.047,-18.615,-3.479,1
8.404303,0.485,0.68,0.421,27.893,-20.263,-2.868,1
8.413589,0.488,0.654,0.472,32.165,-21.423,-2.319,1
8.42039,0.499,0.618,0.546,34.545,-22.705,-1.892,1
8.427508,0.492,0.587,0.635,35.4,-23.071,-0.915,1
8.43579,0.491,0.564,0.732,35.339,-22.827,-0.549,1
8.444335,0.48,0.543,0.819,35.949,-22.216,0.183,1
8.452633,0.463,0.533,0.908,36.865,-21.484,0.793,1
8.459244,0.432,0.522,0.991,37.963,-20.69,1.342,1
8.468661,0.403,0.515,1.088,41.442,-19.348,2.563,1
8.475472,0.377,0.511,1.187,48.278,-17.272,2.99,1
8.482943,0.342,0.497,1.279,57.983,-14.709,3.845,1
8.490666,0.314,0.486,1.375,65.429,-12.084,4.577,1
8.499261,0.267,0.473,1.497,70.495,-8.666,5.187,1
8.507295,0.211,0.462,1.657,75.744,-4.089,6.042,1
8.513745,0.152,0.432,1.825,81.909,2.685,7.019,1
8.521873,0.093,0.414,1.972,86.914,10.437,8.239,1
8.528547,0.028,0.389,2.114,90.332,18.859,10.192,1
8.537067,-0.024,0.351,2.261,92.834,28.93,12.512,1
8.544786,-0.074,0.317,2.396,97.412,39.916,15.869,1
8.552106,-0.135,0.29,2.505,102.783,51.94,19.409,1
8.560702,-0.172,0.253,2.579,104.553,64.636,23.62,1
8.569376,-0.224,0.232,2.639,99.609,80.383,29.846,1
8.575801,-0.27,0.225,2.669,92.712,94.36,35.339,1
8.584679,-0.307,0.219,2.676,84.411,108.398,41.076,1
8.592345,-0.342,0.224,2.667,78.063,122.07,46.752,1
8.599585,-0.403,0.244,2.633,75.927,135.559,52.551,1
8.607554,-0.458,0.267,2.594,76.049,148.01,58.532,1
8.614957,-0.531,0.287,2.54,77.636,160.461,63.964,1
8.62301,-0.596,0.306,2.464,80.322,171.874,69.519,1
8.630055,-0.669,0.323,2.422,85.876,184.448,76.232,1
8.637525,-0.717,0.305,2.356,92.102,195.373,82.336,1
8.645966,-0.774,0.282,2.266,94.543,205.505,88.745,1
8.65322,-0.851,0.274,2.182,93.749,216.125,95.703,1
8.66257,-0.966,0.293,2.056,92.041,225.952,102.844,1
8.670033,-1.039,0.313,1.937,89.965,235.9,110.595,1
8.676545,-1.102,0.357,1.813,87.158,243.835,117.492,1
8.685421,-1.179,0.427,1.694,82.885,251.77,124.206,1
8.693551,-1.249,0.491,1.565,80.322,258.178,130.31,1
8.700566,-1.324,0.558,1.437,82.153,263.305,136.596,1
8.708099,-1.416,0.619,1.331,84.411,268.798,143.859,1
8.715915,-1.492,0.705,1.231,80.871,273.437,149.292,1
8.725236,-1.565,0.812,1.135,74.951,278.381,154.052,1
8.732893,-1.633,0.946,1.024,70.739,282.775,157.653,1
8.739987,-1.726,1.092,0.882,66.65,286.438,160.644,1
8.74824,-1.787,1.193,0.779,61.401,289.123,161.804,1
8.754756,-1.835,1.286,0.683,54.504,291.503,162.109,1
8.763467,-1.871,1.4,0.61,48.278,293.884,161.56,1
8.771721,-1.913,1.537,0.529,41.503,296.325,159.545,1
8.779241,-1.939,1.65,0.474,35.766,297.363,156.494,1
8.786508,-1.919,1.758,0.433,35.156,299.316,152.099,1
8.79398,-1.889,1.864,0.353,39.367,301.208,146.667,1
8.802946,-1.875,1.957,0.249,42.114,302.001,141.052,1
8.809906,-1.788,2.065,0.125,41.87,303.222,135.131,1
8.817584,-1.723,2.174,-0.052,35.217,303.405,128.051,1
8.826918,-1.688,2.269,-0.239,31.677,302.673,120.239,1
8.834015,-1.433,2.395,-0.498,39.978,297.058,111.328,1
8.841676,-1.421,2.472,-0.659,40.405,292.907,101.562,1
8.849484,-1.29,2.51,-0.856,33.325,289.367,91.674,1
8.85724,-1.113,2.513,-1.042,26.672,281.86,81.298,1
8.865094,-0.965,2.497,-1.158,29.357,273.132,69.335,1
8.873787,-0.86,2.48,-1.276,33.874,264.16,58.898,1
8.88219,-0.748,2.435,-1.399,33.691,255.92,49.072,1
8.889453,-0.646,2.399,-1.524,28.076,246.948,39.55,1
8.89695,-0.518,2.353,-1.647,23.071,234.374,28.808,1
8.904616,-0.449,2.306,-1.705,23.681,223.205,19.653,1
8.912308,-0.352,2.245,-1.751,28.137,211.364,10.925,1
8.921678,-0.293,2.161,-1.767,35.095,199.829,2.99,1
8.928716,-0.226,2.036,-1.775,40.954,188.171,-3.967,1
8.937662,-0.151,1.923,-1.738,44.677,174.865,-11.108,1
8.944757,-0.114,1.803,-1.698,43.945,164.489,-15.869,1
8.953068,-0.073,1.689,-1.644,40.466,153.625,-20.69,1
8.961004,-0.037,1.615,-1.627,37.231,144.714,-23.925,1
8.968378,0.006,1.531,-1.623,32.897,135.437,-26.977,1
8.977304,0.048,1.46,-1.616,30.944,125.732,-29.174,1
8.985,0.062,1.392,-1.593,32.47,114.868,-31.433,1
8.992586,0.152,1.311,-1.55,35.156,105.468,-32.836,1
9.000241,0.19,1.219,-1.5,36.132,95.458,-33.996,1
9.009491,0.236,1.146,-1.473,33.935,87.768,-34.606,1
9.017057,0.263,1.076,-1.444,29.724,80.566,-35.461,1
9.024419,0.291,0.998,-1.409,26.0,73.12,-35.888,1
9.031906,0.318,0.931,-1.37,23.986,63.964,-36.01,1
9.040728,0.333,0.874,-1.316,23.437,56.274,-36.01,1
9.04798,0.34,0.817,-1.244,23.01,48.95,-35.766,1
9.056393,0.354,0.755,-1.147,22.949,42.541,-35.034,1
9.064969,0.362,0.717,-1.079,21.118,37.475,-34.24,1
9.072404,0.379,0.686,-1.025,16.845,31.433,-33.081,1
9.07955,0.384,0.659,-0.972,14.221,26.611,-31.433,1
9.087486,0.398,0.632,-0.903,14.16,21.728,-30.029,1
9.095328,0.417,0.606,-0.854,16.113,16.418,-27.709,1
9.103007,0.437,0.585,-0.8,17.517,11.901,-25.695,1
9.110184,0.45,0.562,-0.745,16.784,8.361,-23.803,1
9.117524,0.475,0.544,-0.682,15.075,4.821,-20.935,1
9.125993,0.488,0.543,-0.615,13.488,2.441,-19.165,1
9.133153,0.485,0.551,-0.55,12.145,-0.671,-16.418,1
9.141889,0.485,0.56,-0.491,10.62,-2.685,-14.221,1
9.149315,0.476,0.574,-0.432,8.178,-4.394,-12.023,1
9.158638,0.466,0.596,-0.365,5.615,-6.103,-10.009,1
9.166584,0.463,0.608,-0.327,4.15,-7.08,-8.544,1
9.173607,0.464,0.618,-0.303,1.464,-8.117,-7.263,1
9.181726,0.473,0.62,-0.28,-1.831,-9.216,-5.92,1
9.190848,0.484,0.617,-0.27,-4.455,-9.887,-4.516,1
9.198039,0.489,0.617,-0.245,-5.859,-10.925,-3.173,1
9.207153,0.496,0.616,-0.224,-6.347,-11.962,-1.403,1
9.214457,0.518,0.616,-0.196,-7.08,-13.305,0.366,1
9.223246,0.534,0.624,-0.174,-9.094,-13.732,1.892,1
9.231359,0.538,0.642,-0.153,-12.756,-13.854,2.929,1
9.240313,0.541,0.666,-0.143,-17.15,-14.16,4.211,1
9.247909,0.541,0.703,-0.13,-18.188,-14.77,4.699,1
9.255206,0.547,0.726,-0.129,-15.075,-15.563,5.432,1
9.263968,0.549,0.74,-0.127,-11.474,-16.174,5.676,1
9.272248,0.556,0.731,-0.135,-8.728,-17.456,5.676,1
9.280356,0.56,0.731,-0.138,-7.385,-18.798,6.103,1
9.287671,0.554,0.726,-0.128,-5.371,-20.263,6.835,1
9.296616,0.552,0.716,-0.113,-2.807,-21.423,7.446,1
9.303596,0.557,0.705,-0.101,-2.441,-22.399,8.239,1
9.311415,0.562,0.705,-0.093,-4.516,-23.01,9.033,1
9.31903,0.562,0.713,-0.078,-8.789,-23.498,10.131,1
9.328146,0.562,0.725,-0.068,-12.268,-23.742,10.803,1
9.33535,0.555,0.75,-0.061,-14.343,-24.536,11.474,1
9.343871,0.556,0.769,-0.057,-13.61,-24.902,12.329,1
9.351217,0.561,0.791,-0.043,-12.207,-25.878,12.512,1
9.360129,0.563,0.8,-0.036,-10.62,-26.245,12.817,1
9.367368,0.564,0.814,-0.019,-9.216,-26.794,13.061,1
9.376311,0.562,0.819,-0.009,-8.178,-27.221,13.366,1
9.384584,0.558,0.827,0.0,-7.385,-27.526,13.427,1
9.391668,0.555,0.83,0.019,-6.286,-27.832,13.427,1
9.400574,0.552,0.835,0.035,-4.455,-28.32,13.732,1
9.408865,0.556,0.837,0.059,-3.479,-27.893,13.244,1
9.416223,0.565,0.838,0.068,-3.417,-27.648,13.488,1
9.423408,0.566,0.834,0.079,-3.54,-27.465,13.366,1
9.432121,0.55,0.848,0.092,-3.173,-26.855,13.671,1
9.439249,0.546,0.849,0.094,-3.417,-26.062,13.488,1
9.448483,0.537,0.854,0.098,-5.249,-25.024,13.366,1
9.45526,0.535,0.86,0.099,-7.751,-24.169,13.549,1
9.46398,0.542,0.874,0.09,-10.375,-23.193,13.122,1
9.471236,0.55,0.879,0.09,-11.901,-22.277,12.878,1
9.478785,0.549,0.883,0.085,-11.413,-21.911,12.573,1
9.487759,0.548,0.883,0.085,-10.437,-21.667,12.634,1
9.494983,0.557,0.887,0.09,-8.422,-20.996,12.512,1
9.503261,0.531,0.89,0.083,-7.507,-20.874,12.084,1
9.510997,0.523,0.894,0.097,-7.812,-19.958,12.268,1
9.518571,0.526,0.908,0.085,-9.887,-19.226,11.901,1
9.52515,0.53,0.917,0.096,-12.39,-18.432,11.657,1
9.533683,0.536,0.927,0.097,-13.488,-17.578,10.986,1
9.540885,0.541,0.94,0.096,-13.61,-17.028,10.437,1
9.54773,0.549,0.946,0.1,-12.329,-16.601,9.765,1
9.556069,0.555,0.945,0.094,-11.23,-16.052,9.033,1
9.56416,0.557,0.937,0.09,-10.62,-15.502,8.544,1
9.57172,0.552,0.929,0.078,-10.131,-14.831,8.3,1
9.579657,0.555,0.917,0.069,-10.437,-14.587,7.934,1
9.587456,0.551,0.916,0.056,-11.352,-14.099,7.69,1
9.595038,0.549,0.912,0.035,-11.901,-13.793,7.69,1
9.603679,0.543,0.917,0.014,-12.084,-13.977,7.568,1
9.610706,0.539,0.934,0.0,-12.451,-13.732,7.568,1
9.618428,0.539,0.939,-0.009,-13.61,-14.038,7.263,1
9.627107,0.541,0.951,-0.015,-13.916,-14.343,6.53,1
9.634331,0.543,0.966,-0.009,-12.817,-14.404,5.981,1
9.642482,0.543,0.978,-0.003,-10.986,-14.709,5.065,1
9.649233,0.543,0.986,0.001,-9.338,-14.953,4.028,1
9.657846,0.548,0.983,0.013,-9.399,-14.648,2.929,1
9.666092,0.551,0.989,0.016,-9.155,-14.282,2.075,1
9.67341,0.544,0.992,0.015,-8.056,-14.343,1.037,1
9.681526,0.536,0.992,0.021,-5.493,-14.404,-0.122,1
9.689865,0.532,0.99,0.013,-2.624,-14.16,-1.037,1
9.697568,0.541,0.979,0.019,-0.122,-14.587,-2.014,1
9.70784,0.538,0.968,0.007,1.403,-14.77,-2.685,1
9.715166,0.535,0.956,0.001,1.525,-15.075,-3.295,1
9.721993,0.521,0.944,0.0,0.915,-14.953,-3.723,1
9.731292,0.532,0.932,-0.009,-0.122,-15.075,-3.845,1
9.738595,0.541,0.919,-0.006,-0.366,-15.38,-3.784,1
9.746966,0.547,0.919,0.003,0.122,-15.808,-3.723,1
9.754036,0.551,0.925,0.0,0.122,-16.052,-3.723,1
9.762801,0.549,0.938,0.003,-0.366,-15.869,-3.723,1
9.77129,0.541,0.953,-0.002,-1.281,-16.235,-3.723,1
9.778072,0.53,0.978,-0.003,-2.197,-16.113,-4.15,1
9.786646,0.532,0.993,0.005,-2.319,-16.418,-4.882,1
9.796184,0.53,0.999,0.0,-2.258,-16.418,-5.981,1
9.803138,0.521,1.013,0.016,-2.441,-16.418,-7.08,1
9.811987,0.53,1.012,0.024,-0.732,-16.296,-8.3,1
9.819391,0.525,1.018,0.033,1.342,-16.296,-9.399,1
9.826919,0.526,1.024,0.042,4.211,-16.357,-10.437,1
9.836035,0.529,1.027,0.047,6.835,-16.174,-11.474,1
9.843205,0.534,1.062,0.03,12.084,-15.869,-13.061,1
9.851293,0.546,1.027,0.025,14.282,-17.456,-14.587,1
9.859761,0.532,1.014,0.017,16.296,-17.272,-15.136,1
9.866879,0.517,1.022,0.021,12.573,-17.211,-16.601,1
9.874758,0.524,1.022,0.035,8.056,-17.333,-17.944,1
9.883655,0.519,1.021,0.053,4.638,-16.906,-19.226,1
9.8913,0.523,1.021,0.072,3.173,-16.479,-20.751,1
9.898687,0.537,1.01,0.077,3.906,-16.113,-21.911,1
9.90632,0.539,0.999,0.087,5.798,-15.93,-23.071,1
9.915198,0.548,0.966,0.083,6.53,-14.648,-24.353,1
9.922488,0.575,0.953,0.077,6.286,-14.709,-24.963,1
9.931828,0.561,0.945,0.092,6.713,-14.892,-25.024,1
9.939391,0.566,0.934,0.099,4.943,-13.732,-25.39,1
9.947775,0.561,0.917,0.1,0.976,-12.756,-25.695,1
9.955551,0.576,0.935,0.099,-6.591,-11.779,-25.817,1
9.962776,0.562,0.917,0.09,-17.272,-9.765,-25.939,1
9.970386,0.562,0.888,0.067,-26.245,-8.117,-26.367,1
9.979595,0.557,0.882,0.03,-31.555,-7.69,-26.367,1
9.988916,0.574,0.87,-0.013,-32.348,-7.69,-26.55,1
9.996001,0.555,0.887,-0.056,-28.015,-9.521,-26.55,1
