timestamp_s,ax,ay,az,gx,gy,gz,label
0.004341,0.411,-0.876,-0.488,-2.624,-30.944,-83.618,1
0.011731,0.416,-0.884,-0.492,-6.591,-30.334,-81.604,1
0.019958,0.423,-0.883,-0.498,-11.596,-29.907,-79.711,1
0.028209,0.404,-0.875,-0.496,-15.686,-29.785,-77.575,1
0.035696,0.392,-0.882,-0.492,-18.371,-29.785,-75.988,1
0.043234,0.401,-0.899,-0.477,-20.019,-30.395,-73.669,1
0.05158,0.424,-0.914,-0.462,-19.531,-30.273,-71.777,1
0.060159,0.431,-0.934,-0.442,-17.517,-30.7,-69.152,1
0.070076,0.434,-0.943,-0.428,-15.808,-30.578,-66.589,1
0.076609,0.438,-0.944,-0.418,-15.808,-30.822,-63.903,1
0.085449,0.425,-0.936,-0.409,-16.174,-30.578,-61.523,1
0.095897,0.416,-0.929,-0.398,-16.174,-30.456,-59.326,1
0.10236,0.398,-0.92,-0.392,-16.54,-30.151,-57.067,1
0.111306,0.387,-0.913,-0.382,-16.906,-30.395,-55.175,1
0.119563,0.369,-0.908,-0.374,-16.479,-30.334,-53.1,1
0.128034,0.366,-0.914,-0.367,-14.831,-30.334,-51.269,1
0.136372,0.377,-0.923,-0.362,-12.817,-30.578,-49.804,1
0.145086,0.383,-0.95,-0.353,-11.291,-30.456,-48.034,1
0.152097,0.388,-0.966,-0.332,-11.84,-29.907,-46.386,1
0.162571,0.392,-0.972,-0.323,-11.657,-29.479,-44.189,1
0.169972,0.411,-0.965,-0.315,-10.314,-28.747,-41.992,1
0.178986,0.425,-0.977,-0.316,-9.155,-28.381,-40.039,1
0.188484,0.436,-0.976,-0.317,-10.62,-27.404,-37.536,1
0.195364,0.431,-0.979,-0.318,-15.014,-26.489,-35.522,1
0.204678,0.427,-0.981,-0.318,-19.714,-25.268,-33.447,1
0.212514,0.44,-0.981,-0.32,-22.766,-24.108,-31.311,1
0.221087,0.446,-0.987,-0.318,-23.62,-23.498,-29.418,1
0.231321,0.456,-0.993,-0.312,-22.827,-22.705,-27.587,1
0.239692,0.472,-1.009,-0.31,-22.155,-22.094,-25.573,1
0.247686,0.481,-1.013,-0.31,-23.193,-21.545,-23.559,1
0.256287,0.492,-1.005,-0.307,-22.705,-20.874,-21.911,1
0.265466,0.493,-0.995,-0.302,-21.545,-20.874,-20.263,1
0.27331,0.485,-0.982,-0.301,-20.568,-20.568,-18.249,1
0.280727,0.487,-0.979,-0.299,-21.179,-20.202,-16.784,1
0.290858,0.491,-0.973,-0.3,-24.108,-19.897,-14.892,1
0.300367,0.481,-0.968,-0.295,-27.221,-19.287,-13.305,1
0.307334,0.482,-0.967,-0.295,-29.235,-18.92,-11.84,1
0.316046,0.482,-0.956,-0.291,-29.174,-18.737,-10.253,1
0.323846,0.479,-0.955,-0.291,-28.564,-18.798,-9.277,1
0.330798,0.479,-0.956,-0.284,-27.038,-18.981,-8.3,1
0.338977,0.487,-0.958,-0.274,-24.841,-19.531,-7.141,1
0.348273,0.494,-0.958,-0.269,-21.24,-19.775,-5.981,1
0.356696,0.525,-0.973,-0.259,-17.089,-20.324,-4.455,1
0.365468,0.542,-0.975,-0.259,-16.052,-20.812,-3.417,1
0.374827,0.557,-0.959,-0.245,-14.77,-20.935,-1.892,1
0.383927,0.56,-0.948,-0.238,-12.939,-21.606,-0.549,1
0.392628,0.561,-0.937,-0.229,-12.451,-21.301,0.61,1
0.398899,0.561,-0.916,-0.225,-13.61,-21.606,1.525,1
0.409055,0.556,-0.901,-0.219,-14.404,-21.423,2.075,1
0.417106,0.56,-0.874,-0.214,-15.38,-21.728,2.685,1
0.426358,0.568,-0.866,-0.206,-15.502,-21.789,3.112,1
0.435238,0.574,-0.841,-0.199,-13.977,-21.667,3.051,1
0.443774,0.561,-0.765,-0.184,-7.446,-22.766,2.075,1
0.452522,0.551,-0.753,-0.202,2.99,-24.658,0.488,1
0.459692,0.583,-0.778,-0.186,4.211,-24.536,0.183,1
0.468617,0.593,-0.769,-0.199,-1.098,-24.23,-0.549,1
0.477118,0.584,-0.733,-0.194,-5.859,-23.681,-1.403,1
0.486137,0.581,-0.717,-0.207,-10.498,-23.681,-2.807,1
0.495908,0.588,-0.699,-0.216,-15.93,-22.888,-4.577,1
0.505216,0.59,-0.689,-0.233,-19.653,-23.864,-6.103,1
0.512897,0.58,-0.671,-0.225,-16.906,-24.536,-7.995,1
0.52082,0.555,-0.654,-0.218,-3.723,-26.306,-10.192,1
0.529938,0.548,-0.674,-0.208,8.972,-28.259,-12.817,1
0.539019,0.526,-0.703,-0.197,17.028,-29.418,-15.808,1
0.548507,0.51,-0.731,-0.179,16.235,-29.724,-18.615,1
0.554353,0.42,-0.77,-0.152,8.483,-28.076,-21.301,1
0.563588,0.493,-0.808,-0.097,8.361,-26.672,-24.23,1
0.571048,0.467,-0.849,-0.1,-1.647,-26.367,-26.977,1
0.58029,0.411,-0.885,-0.017,-16.235,-21.179,-29.541,1
0.588749,0.406,-0.93,0.005,-35.278,-19.165,-30.334,1
0.597531,0.357,-0.952,0.075,-51.208,-12.451,-30.761,1
0.60525,0.329,-0.962,0.128,-55.969,-9.521,-31.433,1
0.613424,0.293,-0.996,0.191,-50.354,-4.638,-31.249,1
0.621493,0.24,-1.005,0.276,-39.733,-2.746,-30.395,1
0.629839,0.238,-1.119,0.263,-26.428,4.028,-29.602,1
0.636704,0.178,-1.19,0.315,-28.869,8.605,-27.893,1
0.644648,0.113,-1.237,0.334,-34.057,15.258,-25.573,1
0.653096,0.03,-1.277,0.388,-36.132,21.118,-22.521,1
0.663096,-0.072,-1.337,0.412,-34.179,28.015,-19.348,1
0.670142,-0.191,-1.393,0.457,-33.386,35.583,-14.038,1
0.678084,-0.301,-1.431,0.475,-36.926,42.663,-9.887,1
0.686226,-0.375,-1.461,0.502,-33.081,48.4,-5.004,1
0.69507,-0.477,-1.498,0.56,-12.634,55.725,0.854,1
0.703571,-0.572,-1.578,0.545,5.187,61.645,8.483,1
0.711047,-0.645,-1.675,0.579,10.742,70.312,15.991,1
0.720481,-0.719,-1.744,0.583,1.464,78.43,25.817,1
0.729025,-0.815,-1.784,0.631,-7.69,90.454,37.292,1
0.736754,-0.891,-1.791,0.648,-5.737,99.731,49.499,1
0.745605,-0.946,-1.79,0.658,8.483,108.398,61.462,1
0.753249,-1.0,-1.789,0.655,28.747,115.6,73.852,1
0.760319,-1.121,-1.781,0.665,58.471,124.389,89.721,1
0.768937,-1.208,-1.794,0.604,76.293,132.934,103.759,1
0.775973,-1.33,-1.812,0.612,81.298,143.127,121.948,1
0.784894,-1.521,-1.814,0.555,72.082,155.212,138.793,1
0.793359,-1.729,-1.78,0.553,57.434,166.748,155.151,1
0.802171,-1.98,-1.789,0.514,37.78,182.678,175.292,1
0.809227,-2.25,-1.769,0.492,19.47,197.814,192.871,1
0.818544,-2.582,-1.742,0.413,2.563,214.538,213.5,1
0.827346,-2.914,-1.735,0.363,-8.911,230.773,231.872,1
0.834633,-3.352,-1.737,0.3,-28.991,249.389,254.028,1
0.841802,-3.772,-1.735,0.215,-49.499,267.028,273.742,1
0.848449,-4.204,-1.768,0.15,-69.641,284.912,295.104,1
0.857116,-4.598,-1.832,0.071,-93.2,304.016,317.749,1
0.866402,-5.093,-1.903,-0.026,-123.291,328.247,345.336,1
0.875527,-5.703,-1.951,-0.134,-151.184,353.454,373.168,1
0.885536,-6.613,-1.978,-0.21,-165.405,383.361,407.165,1
0.894215,-7.38,-1.977,-0.314,-156.127,403.93,434.631,1
0.902423,-8.269,-1.97,-0.41,-109.191,422.79,470.336,1
0.911623,-9.105,-1.971,-0.522,-34.545,435.729,512.329,1
0.919718,-10.221,-1.901,-0.674,69.213,435.058,562.377,1
0.926777,-11.234,-1.794,-0.821,178.588,424.194,612.915,1
0.935991,-12.452,-1.679,-1.009,303.222,395.141,680.786,1
0.945136,-13.808,-1.52,-1.18,400.939,352.6,757.995,1
0.954224,-15.632,-1.268,-1.343,455.993,295.288,838.5,1
0.963426,-15.995,-1.029,-1.422,472.534,230.895,918.823,1
0.970674,-15.999,-0.774,-1.498,454.528,160.217,994.689,1
0.980127,-15.999,-0.283,-1.433,435.546,87.097,1063.964,1
0.987974,-15.999,0.265,-1.285,434.753,20.751,1117.675,1
0.996026,-15.999,0.717,-1.159,439.819,-49.682,1166.259,1
1.005079,-15.999,1.268,-1.021,463.012,-141.723,1213.562,1
1.012259,-15.999,1.921,-0.824,534.057,-252.685,1250.366,1
1.019023,-15.999,2.451,-0.558,645.751,-373.596,1268.188,1
1.026967,-15.999,2.714,-0.171,767.211,-520.507,1269.775,1
1.035507,-15.999,3.224,0.621,924.499,-681.457,1248.596,1
1.042131,-15.999,3.466,1.62,1131.408,-861.816,1197.998,1
1.050457,-15.999,3.419,2.941,1393.249,-1060.485,1093.017,1
1.059006,-15.999,3.827,4.301,1691.955,-1239.807,917.175,1
1.066045,-15.999,4.307,4.442,1998.107,-1418.823,596.374,1
1.073724,-15.999,3.385,3.851,1997.07,-1485.29,267.944,1
1.081566,-15.999,2.555,3.78,1712.707,-1474.059,-45.654,1
1.088167,-15.999,1.963,4.214,1284.057,-1368.164,-280.456,1
1.097055,-15.999,1.852,4.458,851.806,-1228.515,-426.818,1
1.105827,-15.999,2.008,4.921,635.192,-1110.168,-511.901,1
1.112412,-15.999,1.41,4.46,566.589,-1003.54,-572.143,1
1.120747,-15.999,1.074,3.939,471.374,-896.606,-622.741,1
1.128503,-15.999,1.016,3.712,369.75,-813.781,-651.977,1
1.136771,-15.999,0.958,3.511,295.104,-739.868,-669.86,1
1.14399,-15.999,0.95,3.434,249.938,-682.434,-679.687,1
1.152246,-15.999,0.658,3.485,245.361,-609.497,-688.476,1
1.159953,-15.302,0.317,3.302,258.361,-556.213,-691.162,1
1.166966,-13.909,0.055,3.201,279.907,-500.61,-689.392,1
1.175816,-13.012,-0.15,3.02,296.02,-447.692,-682.983,1
1.182859,-12.143,-0.265,2.924,326.416,-396.911,-673.156,1
1.190714,-11.087,-0.36,2.797,364.318,-340.026,-661.315,1
1.197765,-10.119,-0.613,2.585,378.356,-285.278,-647.705,1
1.206027,-9.366,-0.905,2.4,338.256,-224.06,-627.868,1
1.21468,-8.421,-1.061,2.158,263.305,-172.973,-603.027,1
1.221332,-7.592,-1.025,2.053,204.711,-122.619,-571.289,1
1.230051,-6.829,-1.011,1.875,205.566,-91.064,-545.043,1
1.23676,-6.207,-1.061,1.733,221.008,-59.509,-518.371,1
1.244073,-5.598,-1.15,1.472,217.468,-29.968,-492.431,1
1.252902,-5.079,-1.208,1.282,192.687,-3.479,-467.041,1
1.259313,-4.579,-1.208,1.091,163.024,20.019,-442.321,1
1.267546,-4.2,-1.174,0.945,140.075,37.292,-418.395,1
1.275367,-3.923,-1.119,0.843,132.019,52.49,-394.287,1
1.283582,-3.69,-1.063,0.731,140.014,65.185,-367.309,1
1.2914,-3.583,-1.044,0.663,149.292,76.11,-344.482,1
1.300173,-3.391,-1.066,0.571,144.958,84.838,-322.814,1
1.307999,-3.149,-1.063,0.53,135.925,96.374,-299.316,1
1.314932,-2.899,-1.056,0.453,127.258,102.905,-280.639,1
1.323359,-2.666,-1.099,0.411,108.886,112.243,-262.878,1
1.331259,-2.484,-1.109,0.339,71.838,119.567,-243.347,1
1.339525,-2.353,-1.103,0.343,47.485,124.511,-228.271,1
1.347082,-2.187,-1.071,0.352,35.156,127.014,-213.989,1
1.354512,-2.005,-1.128,0.288,31.005,128.845,-200.683,1
1.362479,-1.737,-1.192,0.26,15.747,130.432,-187.499,1
1.370348,-1.549,-1.178,0.265,4.516,131.286,-171.874,1
1.379018,-1.338,-1.156,0.239,17.089,128.479,-159.545,1
1.386434,-1.171,-1.176,0.221,30.639,126.098,-146.423,1
1.395039,-0.986,-1.194,0.181,35.522,124.267,-133.85,1
1.402451,-0.773,-1.193,0.176,48.4,121.582,-119.018,1
1.410993,-0.607,-1.192,0.117,52.429,119.079,-105.895,1
1.420369,-0.464,-1.141,0.106,56.335,116.027,-90.27,1
1.428758,-0.333,-1.08,0.079,64.27,112.06,-77.209,1
1.435289,-0.238,-1.008,0.077,75.927,108.154,-64.208,1
1.443522,-0.111,-0.95,0.057,88.012,104.187,-49.499,1
1.450481,-0.029,-0.885,0.053,99.304,100.097,-37.353,1
1.459237,0.064,-0.823,0.052,115.539,96.374,-26.062,1
1.465991,0.177,-0.749,0.06,135.986,91.796,-14.892,1
1.473621,0.249,-0.698,0.053,161.376,86.669,-2.685,1
1.482345,0.295,-0.642,0.045,178.771,82.458,7.995,1
1.488845,0.284,-0.583,0.041,189.208,79.406,15.747,1
1.497203,0.277,-0.52,0.029,198.059,74.646,26.489,1
1.505782,0.255,-0.455,0.022,201.11,70.312,34.24,1
1.512581,0.232,-0.398,0.021,202.514,66.467,40.893,1
1.520398,0.218,-0.347,0.022,202.758,61.767,46.569,1
1.527716,0.213,-0.312,0.02,201.232,57.067,51.33,1
1.535241,0.231,-0.284,0.023,198.059,52.795,55.053,1
1.542128,0.233,-0.266,0.032,192.993,48.4,57.983,1
1.550895,0.27,-0.263,0.037,185.119,44.433,60.852,1
1.559181,0.344,-0.247,0.049,175.842,41.137,62.866,1
1.566661,0.416,-0.236,0.041,169.86,37.841,64.514,1
1.574782,0.456,-0.221,0.055,167.358,32.714,65.307,1
1.582056,0.53,-0.21,0.068,167.419,29.907,66.101,1
1.590795,0.592,-0.194,0.069,166.748,26.916,65.979,1
1.59812,0.631,-0.179,0.094,165.1,24.719,65.429,1
1.606734,0.681,-0.167,0.097,162.17,23.925,63.842,1
1.615547,0.73,-0.147,0.122,158.569,22.766,62.316,1
1.623057,0.768,-0.132,0.126,153.137,23.559,60.18,1
1.629697,0.832,-0.104,0.131,150.146,23.193,58.593,1
1.637073,0.87,-0.084,0.139,151.062,23.01,57.312,1
1.646242,0.907,-0.072,0.135,153.503,21.423,56.274,1
1.653449,0.937,-0.069,0.144,155.822,20.019,55.725,1
1.661643,0.947,-0.057,0.149,157.714,18.859,55.847,1
1.668712,0.938,-0.046,0.155,152.832,17.822,56.091,1
1.676912,0.942,-0.025,0.175,145.202,17.7,56.518,1
1.682946,0.962,0.007,0.17,139.343,18.371,56.945,1
1.690711,0.991,0.025,0.178,135.437,18.188,57.067,1
1.699469,0.996,0.054,0.182,136.84,18.615,57.006,1
1.706267,1.055,0.085,0.176,140.014,18.066,56.762,1
1.714843,1.106,0.114,0.198,146.24,18.432,56.03,1
1.722181,1.156,0.147,0.211,155.334,18.249,55.053,1
1.73051,1.177,0.177,0.229,163.208,18.737,54.504,1
1.737452,1.165,0.211,0.229,171.02,20.263,53.222,1
1.746129,1.152,0.221,0.22,174.194,20.935,52.246,1
1.753097,1.125,0.245,0.208,171.936,22.644,51.635,1
1.761137,1.098,0.271,0.19,163.391,23.742,50.964,1
1.769802,1.103,0.282,0.175,148.315,26.794,50.231,1
1.776646,1.113,0.289,0.154,131.042,30.09,49.743,1
1.784357,1.101,0.311,0.127,112.304,33.264,49.255,1
1.793491,1.088,0.335,0.084,95.275,35.705,47.973,1
1.800029,1.072,0.354,0.042,85.083,37.048,46.081,1
1.808286,1.078,0.376,0.002,87.28,36.621,44.189,1
1.815409,1.086,0.387,-0.02,100.036,34.667,43.09,1
1.823532,1.095,0.395,-0.041,119.323,32.47,41.809,1
1.832035,1.089,0.378,-0.057,140.441,29.907,40.771,1
1.839164,1.081,0.365,-0.06,157.653,27.404,40.222,1
1.847365,1.052,0.349,-0.06,168.457,25.512,39.733,1
1.855066,1.037,0.337,-0.057,173.95,24.353,39.123,1
1.861799,1.028,0.329,-0.048,177.368,23.071,38.879,1
1.869138,1.051,0.322,-0.029,180.48,22.277,39.184,1
1.876104,1.08,0.326,-0.015,181.64,22.521,39.855,1
1.883214,1.092,0.349,-0.009,182.922,22.399,40.832,1
1.891853,1.085,0.358,-0.004,180.236,22.827,40.771,1
1.898883,1.055,0.385,-0.008,176.208,23.01,40.283,1
1.907025,1.063,0.389,0.009,170.898,23.498,39.916,1
1.914555,1.071,0.396,0.007,164.184,24.78,39.123,1
1.923318,1.079,0.408,0.01,158.02,25.146,38.33,1
1.930646,1.085,0.418,0.018,155.09,26.245,37.597,1
1.937954,1.117,0.436,0.019,155.883,26.367,36.499,1
1.946212,1.117,0.454,0.02,161.254,26.733,35.827,1
1.953604,1.12,0.458,0.007,166.687,26.306,34.423,1
1.960743,1.15,0.464,0.013,169.128,27.709,33.691,1
1.969332,1.172,0.466,-0.027,165.161,27.099,32.958,1
1.9777,1.161,0.466,-0.024,156.921,29.052,32.348,1
1.984526,1.144,0.49,-0.049,144.348,30.09,31.494,1
1.993204,1.117,0.54,-0.02,135.803,31.249,30.212,1
2.000385,1.103,0.575,-0.008,132.629,31.555,28.564,1
2.008793,1.088,0.615,0.006,134.948,32.592,26.794,1
2.015663,1.034,0.629,0.03,135.375,33.325,24.78,1
2.024658,1.044,0.653,-0.008,135.253,35.4,22.949,1
2.032052,1.035,0.68,0.014,132.751,35.583,19.958,1
2.040171,1.037,0.688,-0.015,131.042,38.146,18.005,1
2.048472,1.022,0.7,-0.031,125.671,38.208,15.563,1
2.055325,1.031,0.703,-0.058,120.422,40.405,13.977,1
2.062827,1.04,0.718,-0.067,113.647,40.893,11.718,1
2.071311,1.041,0.732,-0.074,112.67,42.236,9.887,1
2.079251,1.031,0.748,-0.094,112.854,42.053,7.69,1
2.088023,1.0,0.761,-0.092,113.464,42.785,5.676,1
2.095494,0.981,0.764,-0.122,113.525,43.151,2.929,1
2.1043,0.946,0.761,-0.119,112.487,43.762,0.366,1
2.113109,0.915,0.742,-0.143,109.497,44.616,-2.197,1
2.120651,0.894,0.721,-0.153,105.895,45.776,-4.699,1
2.12937,0.892,0.689,-0.18,100.28,46.813,-7.202,1
2.137201,0.888,0.666,-0.192,97.29,47.424,-8.911,1
2.144821,0.918,0.642,-0.207,98.022,47.18,-10.253,1
2.152432,0.932,0.624,-0.217,101.257,46.691,-11.23,1
2.161773,0.926,0.616,-0.233,106.384,46.142,-12.756,1
2.168925,0.915,0.599,-0.236,112.976,45.227,-13.61,1
2.177129,0.899,0.575,-0.251,115.966,44.494,-14.648,1
2.186249,0.884,0.55,-0.256,115.112,43.945,-15.38,1
2.193413,0.868,0.519,-0.263,112.792,43.762,-16.052,1
2.202228,0.862,0.496,-0.253,111.022,44.006,-16.662,1
2.211301,0.868,0.481,-0.258,111.694,44.128,-17.089,1
2.218406,0.863,0.469,-0.258,112.854,44.128,-17.822,1
2.225285,0.877,0.447,-0.268,114.013,44.189,-18.554,1
2.234074,0.875,0.432,-0.267,113.22,44.067,-18.615,1
2.244786,0.882,0.402,-0.276,109.924,44.921,-19.042,1
2.252148,0.886,0.391,-0.287,104.492,45.776,-19.531,1
2.260877,0.871,0.38,-0.296,99.914,45.715,-19.775,1
2.267771,0.881,0.368,-0.289,97.595,45.776,-19.714,1
2.278298,0.906,0.347,-0.313,98.754,44.555,-19.897,1
2.285054,0.915,0.342,-0.285,100.402,43.64,-19.592,1
2.293097,0.941,0.331,-0.291,102.6,42.724,-19.165,1
2.299866,0.966,0.333,-0.273,106.506,41.625,-18.92,1
2.308798,0.99,0.315,-0.259,110.412,41.503,-18.31,1
2.316504,1.023,0.318,-0.245,113.647,41.381,-17.7,1
2.326653,1.038,0.332,-0.245,114.746,41.931,-16.967,1
2.334116,1.032,0.34,-0.244,110.778,42.724,-16.662,1
2.342346,1.02,0.35,-0.247,106.079,43.823,-16.906,1
2.349448,1.007,0.358,-0.259,94.665,45.043,-16.845,1
2.357668,0.973,0.388,-0.237,89.172,46.63,-17.456,1
2.365851,0.956,0.397,-0.256,79.65,47.241,-18.615,1
2.374449,0.928,0.404,-0.237,74.157,48.706,-19.775,1
2.381646,0.912,0.409,-0.252,70.8,49.438,-20.751,1
2.387887,0.87,0.43,-0.252,72.082,50.109,-21.972,1
2.39584,0.863,0.421,-0.26,70.556,50.354,-23.193,1
2.404,0.858,0.411,-0.291,69.213,51.147,-23.681,1
2.41211,0.875,0.415,-0.292,64.514,51.635,-24.841,1
2.41873,0.88,0.439,-0.279,65.612,52.673,-25.695,1
2.426955,0.876,0.462,-0.312,68.847,52.734,-26.855,1
2.435897,0.878,0.462,-0.29,72.021,52.734,-28.076,1
2.442894,0.843,0.435,-0.323,75.256,53.344,-28.93,1
2.451809,0.826,0.425,-0.322,75.073,54.443,-29.785,1
2.459126,0.844,0.439,-0.293,75.378,53.405,-30.944,1
2.467252,0.847,0.441,-0.3,78.796,54.626,-32.104,1
2.474259,0.862,0.434,-0.302,79.772,53.649,-32.775,1
2.482599,0.813,0.422,-0.286,81.726,53.833,-33.508,1
2.491037,0.825,0.404,-0.284,88.928,52.368,-33.264,1
2.500163,0.867,0.404,-0.303,93.444,52.307,-33.569,1
2.507076,0.824,0.374,-0.304,89.233,51.208,-34.24,1
2.516259,0.848,0.349,-0.311,78.369,52.795,-33.691,1
2.522873,0.849,0.342,-0.325,67.504,52.551,-33.996,1
2.531364,0.862,0.341,-0.317,61.584,53.283,-33.996,1
2.538177,0.89,0.341,-0.324,62.072,52.49,-34.118,1
2.546831,0.91,0.345,-0.329,70.068,52.429,-34.24,1
2.555221,0.92,0.326,-0.327,78.491,51.147,-34.484,1
2.563656,0.916,0.319,-0.334,85.571,51.635,-34.24,1
2.572527,0.923,0.294,-0.354,85.571,52.246,-33.935,1
2.579665,0.912,0.294,-0.353,76.965,53.405,-34.057,1
2.587106,0.877,0.304,-0.36,68.359,54.382,-33.813,1
2.595677,0.873,0.292,-0.342,61.096,53.71,-35.034,1
2.603859,0.829,0.316,-0.378,61.157,55.541,-34.667,1
2.61299,0.767,0.315,-0.345,67.321,53.039,-35.339,1
2.620243,0.731,0.31,-0.374,76.721,54.565,-35.705,1
2.630752,0.71,0.285,-0.382,78.186,52.795,-36.193,1
2.637964,0.688,0.259,-0.383,77.697,54.687,-36.743,1
2.645228,0.699,0.232,-0.43,73.547,55.664,-37.231,1
2.65391,0.708,0.201,-0.454,65.673,57.373,-37.78,1
2.663197,0.773,0.166,-0.506,52.001,58.715,-38.085,1
2.671229,0.786,0.16,-0.514,40.039,59.265,-37.78,1
2.678171,0.79,0.16,-0.545,30.151,59.387,-37.292,1
2.687398,0.803,0.153,-0.562,25.207,58.532,-36.987,1
2.695064,0.839,0.141,-0.61,21.972,57.861,-36.376,1
2.704236,0.859,0.134,-0.637,20.202,56.396,-35.827,1
2.71245,0.861,0.139,-0.668,20.324,55.175,-35.4,1
2.721086,0.873,0.149,-0.693,23.315,53.222,-34.729,1
2.728441,0.873,0.154,-0.703,29.235,51.086,-34.179,1
2.735007,0.87,0.165,-0.73,36.315,48.645,-33.813,1
2.743111,0.861,0.167,-0.737,40.954,46.386,-33.447,1
2.750373,0.847,0.154,-0.746,40.039,44.921,-33.386,1
2.759081,0.84,0.146,-0.755,35.4,44.128,-33.081,1
2.766671,0.83,0.149,-0.758,27.832,42.968,-32.775,1
2.773783,0.816,0.153,-0.763,23.62,41.931,-32.897,1
2.781484,0.805,0.154,-0.772,22.033,40.344,-33.081,1
2.790579,0.797,0.153,-0.779,22.521,38.513,-33.386,1
2.79846,0.79,0.136,-0.779,25.268,36.071,-33.508,1
2.805796,0.786,0.122,-0.784,27.526,33.874,-33.752,1
2.813526,0.796,0.095,-0.781,28.259,32.348,-33.813,1
2.821058,0.81,0.075,-0.773,27.832,30.578,-33.752,1
2.829278,0.836,0.069,-0.773,28.015,29.174,-33.569,1
2.837216,0.854,0.066,-0.766,29.113,27.038,-33.142,1
2.844811,0.863,0.064,-0.761,30.273,25.817,-32.653,1
2.852606,0.874,0.057,-0.759,29.418,24.108,-32.226,1
2.861179,0.875,0.052,-0.758,25.939,23.254,-31.738,1
2.86924,0.869,0.056,-0.756,21.484,22.46,-31.372,1
2.877584,0.865,0.055,-0.748,17.456,21.179,-31.127,1
2.884556,0.859,0.056,-0.752,15.197,19.897,-30.761,1
2.891876,0.848,0.049,-0.745,14.282,18.615,-30.395,1
2.900448,0.831,0.043,-0.736,13.916,17.089,-29.785,1
2.907227,0.819,0.032,-0.728,13.488,15.258,-29.296,1
2.915469,0.804,0.023,-0.713,14.892,13.732,-28.808,1
2.924111,0.797,0.017,-0.699,18.859,11.596,-28.381,1
2.931894,0.811,0.006,-0.691,24.78,9.948,-27.709,1
2.940368,0.844,-0.005,-0.668,31.616,8.117,-26.489,1
2.947568,0.858,-0.021,-0.649,37.17,6.286,-25.451,1
2.954909,0.866,-0.029,-0.639,37.963,5.493,-24.291,1
2.963347,0.878,-0.041,-0.614,36.315,4.76,-22.949,1
2.972295,0.878,-0.036,-0.604,32.958,4.577,-21.423,1
2.979065,0.874,-0.034,-0.588,29.785,4.577,-20.08,1
2.988053,0.863,-0.032,-0.583,26.977,4.333,-18.859,1
2.995662,0.853,-0.027,-0.574,25.024,4.272,-17.211,1
3.004872,0.848,-0.017,-0.568,24.291,4.028,-16.296,1
3.01259,0.841,-0.015,-0.559,23.925,3.723,-15.319,1
3.020535,0.837,-0.012,-0.549,24.291,3.479,-14.343,1
3.027557,0.828,-0.011,-0.547,26.184,2.502,-13.854,1
3.036792,0.823,-0.004,-0.537,29.113,1.708,-12.817,1
3.045452,0.82,-0.003,-0.521,33.386,1.22,-12.084,1
3.053446,0.825,0.003,-0.507,38.757,0.549,-11.413,1
3.061288,0.838,0.006,-0.494,42.602,0.183,-10.803,1
3.070378,0.84,0.013,-0.478,44.555,0.366,-9.704,1
3.078973,0.841,0.019,-0.461,44.25,0.915,-8.605,1
3.085916,0.839,0.032,-0.449,42.907,1.708,-7.629,1
3.094229,0.833,0.052,-0.437,40.893,2.746,-6.958,1
3.101256,0.814,0.076,-0.43,39.428,3.723,-6.469,1
3.110036,0.796,0.104,-0.424,39.794,4.394,-6.286,1
3.117277,0.8,0.136,-0.414,43.762,4.638,-6.591,1
3.124831,0.802,0.156,-0.419,48.767,4.943,-6.53,1
3.133224,0.76,0.188,-0.415,55.541,4.699,-6.713,1
3.143293,0.83,0.214,-0.42,63.11,5.249,-6.591,1
3.150548,0.88,0.244,-0.45,67.687,4.15,-6.347,1
3.15916,0.904,0.279,-0.453,67.932,4.455,-6.286,1
3.166246,0.929,0.312,-0.472,64.514,4.699,-5.798,1
3.174088,0.956,0.355,-0.487,59.631,4.76,-5.92,1
3.183586,0.94,0.383,-0.506,52.795,5.432,-6.53,1
3.191344,0.962,0.407,-0.524,42.907,5.432,-7.324,1
3.198599,0.988,0.417,-0.538,33.447,6.164,-8.544,1
3.208297,0.999,0.428,-0.558,25.207,5.31,-9.887,1
3.215667,0.982,0.429,-0.565,16.235,5.065,-12.023,1
3.224383,0.972,0.422,-0.576,10.009,4.394,-13.366,1
3.232728,0.991,0.409,-0.575,5.187,3.479,-14.77,1
3.241794,1.0,0.427,-0.581,8.483,1.831,-17.272,1
3.250416,0.974,0.453,-0.536,30.395,-1.525,-19.409,1
3.257735,0.945,0.405,-0.596,43.884,-2.319,-21.545,1
3.264653,0.933,0.383,-0.591,45.41,-4.455,-23.498,1
3.274285,0.872,0.391,-0.586,46.264,-3.601,-24.841,1
3.281409,0.925,0.431,-0.549,63.537,-9.216,-27.038,1
3.290086,0.802,0.386,-0.639,86.486,-5.249,-28.686,1
3.299645,0.709,0.424,-0.605,106.018,-11.84,-31.372,1
3.307415,0.689,0.395,-0.622,131.225,-12.329,-33.691,1
3.314039,0.706,0.394,-0.595,150.024,-13.854,-36.315,1
3.322755,0.72,0.342,-0.532,167.602,-16.052,-38.391,1
3.331205,0.738,0.298,-0.525,180.603,-15.808,-40.039,1
3.339178,0.747,0.263,-0.512,187.316,-15.93,-42.114,1
3.347839,0.751,0.234,-0.487,192.932,-14.77,-43.029,1
3.354587,0.789,0.211,-0.472,193.847,-13.183,-43.518,1
3.36361,0.796,0.21,-0.439,192.382,-11.657,-44.128,1
3.371935,0.837,0.191,-0.438,183.593,-8.911,-44.067,1
3.380443,0.848,0.178,-0.417,167.785,-6.103,-44.25,1
3.387007,0.866,0.16,-0.414,143.188,-2.258,-44.189,1
3.395353,0.891,0.148,-0.413,115.539,1.22,-44.128,1
3.402357,0.921,0.125,-0.396,85.144,5.676,-43.884,1
3.411788,0.945,0.122,-0.408,53.344,8.605,-43.945,1
3.418946,0.969,0.131,-0.371,31.677,12.207,-43.395,1
3.425625,0.975,0.169,-0.378,21.789,13.366,-43.151,1
3.432719,0.981,0.192,-0.357,28.32,14.587,-43.518,1
3.441508,0.99,0.199,-0.394,36.865,13.854,-42.907,1
3.447137,0.991,0.196,-0.386,41.809,14.038,-42.358,1
3.456179,1.0,0.194,-0.397,42.785,15.014,-41.442,1
3.464387,1.0,0.198,-0.396,42.114,15.502,-40.71,1
3.471064,1.001,0.221,-0.4,41.564,16.967,-39.916,1
3.480252,0.983,0.237,-0.392,39.794,17.517,-39.55,1
3.487292,0.974,0.235,-0.394,37.231,19.348,-39.794,1
3.494983,0.998,0.234,-0.397,31.188,20.08,-39.611,1
3.50417,1.035,0.242,-0.392,24.353,21.667,-39.916,1
3.51289,1.031,0.266,-0.392,22.094,22.766,-40.161,1
3.520339,0.995,0.31,-0.384,31.677,23.254,-40.893,1
3.528983,0.942,0.357,-0.399,46.936,22.583,-42.175,1
3.537762,0.92,0.393,-0.43,69.763,21.423,-44.067,1
3.546369,0.757,0.461,-0.46,87.585,19.226,-46.63,1
3.553745,0.832,0.515,-0.468,116.21,18.31,-49.987,1
3.564077,0.991,0.493,-0.525,130.493,14.587,-54.199,1
3.571448,1.079,0.451,-0.541,125.183,16.113,-56.884,1
3.579766,1.006,0.443,-0.556,104.37,16.113,-59.082,1
3.586665,1.014,0.453,-0.546,79.833,19.226,-61.279,1
3.594066,0.986,0.471,-0.539,63.598,21.118,-63.232,1
3.603266,0.991,0.484,-0.557,53.527,22.216,-65.551,1
3.611448,1.008,0.498,-0.574,48.767,22.827,-68.664,1
3.619374,1.022,0.495,-0.592,47.241,22.949,-70.922,1
3.628096,1.042,0.484,-0.593,45.104,23.376,-74.035,1
3.636081,1.094,0.477,-0.604,43.823,23.376,-76.599,1
3.64483,1.12,0.472,-0.611,42.907,24.23,-79.528,1
3.653358,1.13,0.458,-0.633,39.489,24.353,-82.397,1
3.661316,1.148,0.454,-0.648,34.667,24.536,-84.228,1
3.669129,1.112,0.461,-0.675,27.832,24.291,-86.975,1
3.67802,1.063,0.471,-0.697,21.972,23.681,-89.233,1
3.686669,1.005,0.479,-0.721,12.878,23.437,-92.285,1
3.69561,0.944,0.484,-0.753,5.187,22.521,-95.092,1
3.704115,0.902,0.483,-0.774,-1.098,20.263,-98.388,1
3.711572,0.872,0.47,-0.782,-4.638,18.249,-102.233,1
3.719885,0.841,0.433,-0.795,-6.286,14.892,-105.285,1
3.729347,0.836,0.413,-0.791,-3.295,11.596,-107.666,1
3.736519,0.824,0.382,-0.79,4.882,6.896,-110.412,1
3.743842,0.809,0.341,-0.789,11.108,2.868,-112.487,1
3.752426,0.794,0.284,-0.809,10.253,-0.488,-114.257,1
3.761381,0.774,0.232,-0.814,-1.281,-4.638,-116.394,1
3.768133,0.76,0.186,-0.817,-18.249,-7.568,-117.492,1
3.775938,0.7,0.137,-0.806,-44.372,-9.887,-118.652,1
3.784385,0.694,0.103,-0.814,-62.927,-12.939,-119.567,1
3.792598,0.659,0.074,-0.787,-74.218,-16.357,-120.117,1
3.80091,0.657,0.053,-0.777,-76.232,-20.751,-120.605,1
3.811105,0.6,0.044,-0.749,-70.922,-24.719,-120.727,1
3.817692,0.583,0.012,-0.735,-59.204,-29.602,-121.032,1
3.828023,0.588,-0.023,-0.708,-45.654,-33.752,-120.971,1
3.835022,0.612,-0.065,-0.695,-33.203,-38.208,-120.178,1
3.845405,0.622,-0.118,-0.658,-24.414,-40.954,-119.201,1
3.852438,0.624,-0.176,-0.636,-23.681,-43.09,-117.736,1
3.86187,0.674,-0.22,-0.616,-28.503,-44.677,-115.783,1
3.871281,0.686,-0.242,-0.561,-32.043,-46.63,-113.952,1
3.878631,0.65,-0.245,-0.52,-31.799,-47.668,-112.182,1
3.88802,0.655,-0.24,-0.475,-26.245,-49.316,-111.267,1
3.895876,0.632,-0.246,-0.427,-18.493,-50.659,-110.717,1
3.905058,0.712,-0.262,-0.389,-10.437,-51.391,-110.29,1
3.912274,0.668,-0.254,-0.349,-5.249,-51.94,-110.107,1
3.921544,0.694,-0.271,-0.332,-2.746,-52.185,-109.924,1
3.928694,0.696,-0.269,-0.307,-4.333,-52.124,-109.863,1
3.937889,0.701,-0.274,-0.3,-8.85,-50.964,-109.436,1
3.946754,0.716,-0.278,-0.283,-17.639,-49.804,-109.558,1
3.95331,0.698,-0.257,-0.267,-23.925,-48.522,-109.558,1
3.961781,0.689,-0.234,-0.25,-25.085,-47.973,-110.534,1
3.970411,0.652,-0.219,-0.243,-23.986,-47.79,-111.938,1
3.977152,0.583,-0.218,-0.223,-23.742,-46.874,-114.013,1
3.985775,0.543,-0.209,-0.205,-23.925,-45.776,-116.577,1
3.994858,0.501,-0.193,-0.194,-22.644,-44.921,-119.384,1
4.003184,0.452,-0.184,-0.188,-20.324,-43.151,-122.924,1
4.009951,0.377,-0.168,-0.188,-17.028,-41.564,-126.586,1
4.019416,0.313,-0.139,-0.197,-10.253,-40.954,-130.004,1
4.026685,0.287,-0.116,-0.2,3.479,-40.771,-132.934,1
4.034355,0.303,-0.115,-0.212,17.944,-40.71,-136.718,1
4.043757,0.308,-0.136,-0.218,26.672,-38.757,-139.404,1
4.051221,0.342,-0.181,-0.256,28.625,-36.682,-141.784,1
4.059552,0.373,-0.232,-0.269,23.742,-33.63,-143.127,1
4.066783,0.436,-0.306,-0.303,13.183,-31.005,-143.92,1
4.076448,0.473,-0.36,-0.304,0.305,-27.832,-144.042,1
4.083914,0.507,-0.389,-0.311,-6.408,-26.123,-142.944,1
4.093033,0.482,-0.419,-0.32,-6.042,-23.681,-141.967,1
4.100121,0.496,-0.459,-0.29,-6.164,-25.146,-139.587,1
4.110477,0.482,-0.515,-0.306,-6.164,-21.057,-136.474,1
4.119243,0.453,-0.575,-0.328,-28.137,-19.47,-133.483,1
4.127684,0.418,-0.636,-0.367,-66.894,-14.587,-129.516,1
4.136296,0.354,-0.661,-0.367,-92.834,-13.427,-126.831,1
4.144604,0.355,-0.675,-0.372,-108.093,-13.183,-123.535,1
4.154055,0.307,-0.681,-0.33,-106.201,-15.502,-121.154,1
4.163104,0.232,-0.726,-0.285,-92.529,-17.456,-118.225,1
4.172427,0.171,-0.791,-0.236,-83.557,-18.859,-115.417,1
4.180456,0.146,-0.863,-0.211,-80.261,-19.775,-112.487,1
4.188338,0.157,-0.905,-0.162,-74.951,-21.301,-109.069,1
4.195952,0.145,-0.957,-0.12,-66.589,-22.277,-106.079,1
4.20508,0.155,-1.047,-0.053,-58.41,-22.888,-101.867,1
4.212063,0.214,-1.131,0.012,-52.917,-23.315,-97.351,1
4.221104,0.23,-1.183,0.08,-47.424,-22.338,-91.674,1
4.230148,0.204,-1.216,0.124,-44.433,-20.324,-85.754,1
4.238873,0.186,-1.214,0.149,-41.442,-18.92,-80.261,1
4.247913,0.154,-1.206,0.156,-35.949,-17.761,-75.195,1
4.256436,0.142,-1.201,0.184,-28.381,-17.639,-70.556,1
4.263646,0.142,-1.205,0.208,-19.897,-17.211,-67.199,1
4.272547,0.162,-1.217,0.231,-9.277,-16.784,-63.11,1
4.280665,0.187,-1.228,0.251,-0.854,-15.563,-59.692,1
4.287966,0.212,-1.239,0.257,5.065,-14.221,-56.396,1
4.295281,0.237,-1.232,0.262,9.033,-12.39,-53.283,1
4.304338,0.265,-1.224,0.261,13.305,-11.291,-50.781,1
4.313417,0.298,-1.206,0.259,19.104,-9.033,-47.851,1
4.32093,0.314,-1.208,0.251,21.85,-7.568,-45.776,1
4.330103,0.359,-1.221,0.237,21.667,-5.493,-43.762,1
4.338974,0.403,-1.254,0.229,19.226,-3.662,-42.297,1
4.348439,0.449,-1.308,0.21,14.526,-1.159,-40.771,1
4.355812,0.506,-1.385,0.186,9.094,1.403,-38.574,1
4.363068,0.525,-1.416,0.177,7.08,3.479,-36.254,1
4.372,0.536,-1.446,0.155,9.338,5.371,-33.813,1
4.379568,0.525,-1.473,0.129,11.108,7.08,-31.555,1
4.387503,0.501,-1.477,0.105,11.535,8.117,-28.93,1
4.394932,0.487,-1.473,0.097,9.948,9.399,-26.672,1
4.402897,0.436,-1.44,0.111,9.033,10.314,-24.536,1
4.410683,0.382,-1.411,0.136,7.812,11.352,-22.949,1
4.41931,0.368,-1.376,0.164,14.526,12.634,-20.69,1
4.428071,0.317,-1.355,0.187,26.55,12.39,-18.676,1
4.435194,0.253,-1.348,0.219,41.32,13.916,-15.686,1
4.444305,0.211,-1.363,0.228,47.241,15.014,-13.305,1
4.45341,0.142,-1.379,0.242,45.715,18.554,-10.131,1
4.462765,0.068,-1.394,0.247,38.024,22.827,-6.53,1
4.469433,0.015,-1.405,0.262,33.874,26.794,-3.112,1
4.476599,-0.039,-1.41,0.268,32.165,30.334,0.244,1
4.484805,-0.145,-1.429,0.27,32.287,34.24,3.723,1
4.490811,-0.229,-1.439,0.283,33.447,38.146,8.056,1
4.499318,-0.304,-1.454,0.275,33.264,42.114,11.962,1
4.506828,-0.393,-1.459,0.261,30.273,47.119,16.479,1
4.515774,-0.496,-1.481,0.241,23.437,52.368,22.644,1
4.524674,-0.558,-1.497,0.229,18.31,57.495,28.442,1
4.531807,-0.635,-1.518,0.201,14.709,62.744,36.376,1
4.539364,-0.718,-1.536,0.192,15.197,67.26,43.701,1
4.546584,-0.816,-1.552,0.17,16.845,70.678,52.001,1
4.555713,-0.923,-1.577,0.165,20.141,74.707,60.546,1
4.562728,-1.036,-1.609,0.156,23.132,77.697,70.739,1
4.571555,-1.166,-1.627,0.159,29.174,80.871,83.618,1
4.578806,-1.302,-1.663,0.161,36.254,83.496,95.214,1
4.588024,-1.373,-1.726,0.166,37.17,87.158,110.29,1
4.594826,-1.508,-1.821,0.169,25.512,90.942,124.267,1
4.603697,-1.681,-1.902,0.197,10.07,97.106,139.77,1
4.610924,-1.895,-1.924,0.237,-2.746,102.661,158.569,1
4.621045,-2.149,-1.912,0.308,6.774,108.825,175.781,1
4.62819,-2.446,-1.928,0.35,36.071,114.44,197.509,1
4.635743,-2.77,-1.991,0.353,49.743,123.352,216.735,1
4.643213,-3.263,-2.078,0.377,45.959,135.131,239.99,1
4.652785,-3.529,-2.133,0.425,34.423,149.963,261.901,1
4.659506,-3.72,-2.146,0.413,35.827,164.123,286.193,1
4.668339,-4.037,-2.172,0.398,50.964,177.185,317.993,1
4.675721,-4.474,-2.187,0.33,64.208,187.805,348.388,1
4.684732,-5.063,-2.166,0.283,77.575,195.434,380.554,1
4.691324,-5.694,-2.12,0.242,108.032,204.956,421.63,1
4.700614,-6.358,-2.084,0.134,144.592,208.435,460.266,1
4.70953,-7.347,-2.048,-0.025,177.429,210.327,510.498,1
4.718316,-8.346,-2.047,-0.233,208.007,207.458,567.26,1
4.728265,-9.246,-2.109,-0.472,220.703,203.063,621.704,1
4.735787,-10.697,-2.191,-0.851,203.002,194.396,690.246,1
4.743461,-11.931,-2.153,-1.145,167.053,184.204,762.512,1
4.751684,-13.653,-2.025,-1.467,136.23,167.541,836.364,1
4.760353,-15.564,-1.718,-1.781,136.413,149.597,901.0,1
4.769208,-15.992,-1.408,-2.039,188.476,107.91,974.182,1
4.776557,-15.999,-1.041,-2.276,258.972,54.992,1036.743,1
4.785304,-15.999,-0.633,-2.435,362.304,-33.142,1105.529,1
4.793518,-15.999,-0.045,-2.459,463.623,-147.705,1164.856,1
4.800846,-15.999,0.66,-2.248,540.527,-264.221,1204.345,1
4.809306,-15.999,1.288,-1.821,607.971,-411.926,1231.079,1
4.817162,-15.999,1.909,-1.282,614.624,-536.499,1234.68,1
4.826021,-15.999,2.572,-0.541,579.589,-674.072,1222.106,1
4.833416,-15.999,3.109,0.19,587.28,-790.344,1199.096,1
4.842226,-15.999,3.321,0.912,628.234,-912.658,1161.438,1
4.849076,-15.999,3.419,2.014,646.423,-1038.513,1120.91,1
4.857998,-15.999,3.738,3.191,776.184,-1170.593,1053.466,1
4.86599,-15.999,4.435,4.266,1011.84,-1292.297,951.171,1
4.874506,-15.999,4.939,4.755,1545.654,-1444.213,717.712,1
4.883725,-15.999,4.184,3.978,1889.709,-1576.232,355.712,1
4.892149,-15.999,3.354,3.811,1767.944,-1575.256,23.254,1
4.899269,-15.999,2.897,3.905,1408.935,-1471.923,-297.241,1
4.905912,-15.999,2.793,4.153,1138.366,-1328.491,-487.915,1
4.913937,-15.999,2.536,4.241,1002.807,-1180.419,-625.305,1
4.921631,-15.999,1.754,3.59,911.865,-1031.738,-729.431,1
4.929342,-15.999,1.226,3.142,759.521,-900.695,-805.541,1
4.937477,-15.999,0.728,3.007,604.858,-766.662,-847.045,1
4.944417,-15.999,0.585,2.621,499.084,-671.691,-864.868,1
4.952832,-15.999,0.661,2.843,487.06,-582.885,-872.802,1
4.959696,-15.999,0.453,2.502,489.746,-491.638,-876.708,1
4.968483,-15.999,0.173,2.337,450.5,-412.353,-873.718,1
4.975147,-15.999,-0.076,2.194,397.644,-327.392,-859.741,1
4.983284,-15.828,-0.269,2.013,359.558,-265.93,-839.233,1
4.991406,-14.193,-0.439,2.007,351.867,-203.613,-809.997,1
4.999403,-13.006,-0.697,1.805,353.088,-149.597,-781.372,1
5.007453,-11.902,-0.943,1.787,335.51,-83.618,-742.797,1
5.014158,-10.776,-1.214,1.539,287.841,-34.179,-708.19,1
5.022037,-9.769,-1.406,1.468,230.163,11.23,-672.485,1
5.030201,-8.822,-1.522,1.223,182.128,50.231,-635.681,1
5.037856,-7.95,-1.647,1.015,148.498,77.575,-599.975,1
5.044504,-7.164,-1.751,0.759,127.136,103.82,-563.537,1
5.052474,-6.548,-1.765,0.524,117.37,115.783,-528.381,1
5.060515,-6.054,-1.697,0.354,133.544,128.601,-493.164,1
5.068488,-5.583,-1.646,0.174,170.715,134.277,-453.124,1
5.07644,-5.18,-1.667,0.078,202.087,143.249,-416.931,1
5.084859,-4.793,-1.705,-0.096,199.768,150.695,-381.408,1
5.092856,-4.443,-1.721,-0.176,165.161,160.949,-341.613,1
5.10087,-4.133,-1.699,-0.257,126.831,167.968,-310.424,1
5.107653,-3.868,-1.681,-0.306,88.745,172.607,-282.104,1
5.116032,-3.643,-1.681,-0.373,51.391,176.025,-256.652,1
5.1226,-3.417,-1.688,-0.404,16.479,176.696,-233.398,1
5.130307,-3.186,-1.702,-0.435,-8.056,176.391,-211.975,1
5.138966,-2.951,-1.708,-0.452,-18.188,172.302,-192.382,1
5.145435,-2.739,-1.716,-0.449,-15.075,167.419,-173.767,1
5.153208,-2.529,-1.721,-0.449,-4.699,161.743,-156.005,1
5.161403,-2.303,-1.731,-0.441,8.3,155.395,-138.427,1
5.167759,-2.072,-1.729,-0.431,18.981,149.719,-121.276,1
5.175551,-1.841,-1.739,-0.411,21.911,144.104,-103.759,1
5.183534,-1.596,-1.738,-0.395,16.418,139.648,-86.791,1
5.191185,-1.369,-1.695,-0.381,6.347,133.239,-71.166,1
5.197639,-1.207,-1.65,-0.349,-2.99,126.342,-56.457,1
5.205397,-1.073,-1.632,-0.279,-11.779,118.713,-43.09,1
5.213596,-0.963,-1.614,-0.184,-16.235,111.938,-30.822,1
5.220454,-0.824,-1.595,-0.104,-12.207,104.98,-19.226,1
5.229072,-0.674,-1.583,-0.018,-0.427,98.51,-7.568,1
5.235431,-0.538,-1.552,0.064,13.0,94.055,2.197,1
5.243685,-0.463,-1.527,0.109,26.489,89.477,13.732,1
5.250037,-0.343,-1.484,0.155,29.968,86.303,25.39,1
5.256988,-0.182,-1.441,0.194,22.338,84.655,36.804,1
5.265149,-0.018,-1.356,0.227,15.38,82.763,46.447,1
5.272018,0.097,-1.261,0.27,19.287,78.308,57.373,1
5.278914,0.262,-1.118,0.349,39.123,73.181,67.504,1
5.285856,0.359,-0.995,0.409,64.758,68.42,76.843,1
5.293401,0.387,-0.882,0.438,81.176,64.941,83.679,1
5.300153,0.385,-0.758,0.464,91.613,61.279,89.904,1
5.30774,0.382,-0.627,0.48,94.482,58.471,95.214,1
5.314712,0.397,-0.53,0.49,95.214,56.213,98.022,1
5.322289,0.471,-0.417,0.512,98.815,53.344,100.952,1
5.329093,0.56,-0.33,0.523,105.651,50.781,102.966,1
5.337092,0.636,-0.26,0.536,108.215,48.95,104.064,1
5.343697,0.674,-0.211,0.536,106.689,47.424,104.553,1
5.350504,0.73,-0.138,0.528,103.759,46.63,104.553,1
5.358506,0.797,-0.068,0.521,102.722,45.898,104.003,1
5.365256,0.844,-0.03,0.507,102.722,44.799,102.661,1
5.372103,0.899,0.018,0.496,104.37,44.189,101.501,1
5.379988,0.945,0.081,0.48,107.971,43.151,100.097,1
5.386215,0.995,0.147,0.465,116.577,41.198,98.632,1
5.393834,1.057,0.216,0.433,129.394,38.574,96.374,1
5.400412,1.096,0.257,0.414,140.991,35.949,93.872,1
5.408542,1.128,0.286,0.401,152.16,33.508,91.369,1
5.414611,1.164,0.314,0.397,159.484,30.944,88.989,1
5.422606,1.185,0.327,0.404,163.269,29.663,87.585,1
5.42912,1.209,0.369,0.418,165.039,28.32,85.937,1
5.436881,1.212,0.404,0.441,166.625,27.648,84.167,1
5.443553,1.193,0.427,0.462,167.602,27.099,81.848,1
5.450362,1.179,0.46,0.479,172.18,27.282,79.223,1
5.458312,1.182,0.474,0.502,170.227,26.855,77.331,1
5.466549,1.181,0.495,0.504,168.457,29.174,74.89,1
5.473383,1.174,0.522,0.508,166.259,29.663,73.425,1
5.481466,1.16,0.548,0.522,168.518,31.188,71.716,1
5.487916,1.155,0.577,0.515,174.926,31.738,69.824,1
5.496138,1.134,0.6,0.508,181.884,32.714,68.115,1
5.502926,1.131,0.604,0.487,183.776,33.813,66.711,1
5.509894,1.127,0.617,0.459,178.527,35.522,65.246,1
5.517927,1.085,0.668,0.503,174.438,38.024,63.903,1
5.524175,1.064,0.683,0.468,174.804,39.611,62.622,1
5.531529,1.038,0.729,0.488,175.048,40.588,61.035,1
5.539534,1.018,0.738,0.446,177.49,43.457,59.326,1
5.546781,1.001,0.748,0.435,175.353,44.189,57.8,1
5.554536,0.991,0.758,0.425,172.485,48.706,56.091,1
5.561631,1.004,0.773,0.386,169.677,49.743,54.687,1
5.570003,0.98,0.816,0.39,168.701,52.673,53.161,1
5.576764,0.981,0.829,0.36,168.09,55.053,51.208,1
5.583536,0.964,0.837,0.343,164.001,57.739,49.133,1
5.59104,0.938,0.827,0.32,153.015,61.462,47.241,1
5.599617,0.892,0.819,0.294,136.169,65.429,45.471,1
5.606028,0.832,0.823,0.27,123.535,69.03,43.823,1
5.614562,0.8,0.824,0.247,114.44,72.082,41.931,1
5.621701,0.768,0.811,0.218,112.609,74.646,39.855,1
5.628652,0.754,0.785,0.189,113.708,76.416,38.391,1
5.635161,0.741,0.75,0.184,116.21,78.552,37.048,1
5.643864,0.737,0.728,0.173,122.436,80.81,35.827,1
5.652156,0.747,0.72,0.158,133.544,82.092,35.339,1
5.658492,0.752,0.715,0.135,143.92,82.519,34.973,1
5.665222,0.742,0.7,0.106,151.672,83.679,34.851,1
5.672879,0.738,0.665,0.073,149.169,85.449,35.034,1
5.679769,0.737,0.639,0.029,139.404,87.707,35.339,1
5.687487,0.728,0.624,-0.01,126.953,89.355,35.522,1
5.695823,0.725,0.612,-0.042,117.553,90.759,35.522,1
5.70237,0.75,0.615,-0.073,116.21,91.064,36.01,1
5.710519,0.778,0.632,-0.095,124.145,90.148,36.499,1
5.717001,0.781,0.645,-0.107,135.498,88.867,37.231,1
5.725818,0.769,0.646,-0.124,143.31,88.317,37.719,1
5.732666,0.769,0.647,-0.137,147.033,88.439,39.001,1
5.740999,0.757,0.667,-0.166,146.911,88.745,40.039,1
5.747643,0.752,0.702,-0.194,144.714,88.684,41.015,1
5.755561,0.747,0.731,-0.215,143.493,88.928,41.625,1
5.76368,0.739,0.75,-0.241,142.944,89.111,42.358,1
5.770396,0.73,0.794,-0.27,145.507,88.989,43.334,1
5.778104,0.719,0.822,-0.303,148.071,87.951,43.579,1
5.785644,0.696,0.85,-0.32,149.841,87.585,43.884,1
5.793509,0.649,0.875,-0.355,148.559,86.425,43.64,1
5.800194,0.642,0.896,-0.343,149.597,85.449,44.006,1
5.808516,0.605,0.921,-0.354,152.16,84.289,43.884,1
5.815584,0.582,0.946,-0.34,151.611,83.74,43.579,1
5.823755,0.575,0.975,-0.356,146.362,84.289,43.151,1
5.830932,0.58,1.02,-0.379,140.075,83.862,42.297,1
5.837477,0.592,1.07,-0.404,136.535,83.801,41.381,1
5.84562,0.62,1.113,-0.437,134.948,83.312,40.466,1
5.853217,0.661,1.158,-0.462,134.338,81.97,38.635,1
5.860235,0.688,1.19,-0.471,135.437,80.444,37.109,1
5.868526,0.713,1.237,-0.476,136.047,78.796,35.339,1
5.875492,0.724,1.29,-0.472,134.338,77.575,33.264,1
5.882533,0.728,1.33,-0.469,132.934,76.049,30.822,1
5.89013,0.741,1.382,-0.464,132.324,73.913,28.381,1
5.897817,0.75,1.435,-0.452,133.789,71.594,25.512,1
5.904091,0.75,1.462,-0.436,133.361,70.556,22.827,1
5.91189,0.732,1.479,-0.436,126.464,69.458,19.226,1
5.91915,0.744,1.502,-0.439,114.318,68.969,14.77,1
5.927323,0.744,1.526,-0.439,102.966,68.847,10.07,1
5.934341,0.768,1.547,-0.448,96.191,68.359,4.821,1
5.942725,0.795,1.56,-0.447,95.336,67.138,-0.366,1
5.949332,0.823,1.579,-0.449,99.67,65.673,-5.493,1
5.957577,0.849,1.587,-0.453,105.712,64.025,-10.742,1
5.964528,0.874,1.592,-0.446,112.609,62.499,-15.869,1
5.971422,0.868,1.583,-0.444,114.685,61.34,-21.24,1
5.98003,0.865,1.561,-0.436,112.182,60.729,-26.245,1
5.987045,0.858,1.568,-0.419,111.389,59.326,-30.212,1
5.994191,0.848,1.546,-0.39,111.755,58.837,-34.912,1
6.001168,0.867,1.52,-0.376,111.206,58.288,-39.978,1
6.009256,0.849,1.482,-0.352,109.68,57.678,-44.433,1
6.017438,0.854,1.429,-0.334,108.459,57.739,-48.706,1
6.024325,0.864,1.386,-0.324,107.055,57.556,-52.673,1
6.030968,0.864,1.343,-0.319,104.797,57.861,-56.64,1
6.039588,0.826,1.33,-0.293,104.98,58.532,-60.546,1
6.046598,0.846,1.278,-0.324,105.285,58.044,-64.331,1
6.053432,0.831,1.222,-0.275,103.698,60.058,-67.504,1
6.060372,0.836,1.186,-0.286,99.121,60.607,-70.861,1
6.06809,0.833,1.143,-0.256,96.923,61.95,-74.279,1
6.076833,0.835,1.103,-0.25,96.008,63.415,-77.026,1
6.083303,0.845,1.062,-0.234,95.642,63.781,-79.589,1
6.090084,0.857,1.019,-0.218,95.703,64.208,-81.298,1
6.09835,0.868,0.987,-0.219,94.97,64.453,-82.946,1
6.105366,0.877,0.946,-0.223,91.918,64.758,-84.411,1
6.113264,0.874,0.907,-0.231,85.083,65.612,-85.937,1
6.120274,0.863,0.866,-0.243,76.538,66.101,-87.341,1
6.127269,0.848,0.829,-0.252,70.8,66.223,-88.317,1
6.135901,0.824,0.808,-0.255,69.58,66.04,-89.904,1
6.142923,0.797,0.774,-0.27,73.486,65.368,-90.942,1
6.151488,0.778,0.737,-0.271,81.909,64.147,-91.857,1
6.158687,0.759,0.698,-0.273,96.191,62.316,-92.59,1
6.165271,0.759,0.658,-0.267,115.844,60.729,-92.224,1
6.173905,0.771,0.616,-0.272,133.422,59.753,-91.735,1
6.180746,0.777,0.575,-0.284,143.188,59.143,-90.759,1
6.189329,0.766,0.548,-0.303,141.54,60.791,-89.721,1
6.196226,0.716,0.52,-0.326,127.319,61.279,-89.538,1
6.204748,0.7,0.519,-0.309,112.67,63.598,-88.684,1
6.211666,0.698,0.533,-0.355,106.567,63.659,-88.684,1
6.219631,0.648,0.529,-0.35,113.769,62.744,-88.317,1
6.226604,0.614,0.534,-0.386,129.028,61.523,-87.829,1
6.233464,0.591,0.512,-0.387,149.353,58.105,-87.402,1
6.241145,0.552,0.489,-0.394,170.776,57.678,-86.12,1
6.249714,0.543,0.449,-0.418,186.096,56.396,-85.083,1
6.258158,0.553,0.399,-0.428,191.711,57.189,-83.801,1
6.264437,0.561,0.351,-0.443,185.058,59.326,-81.97,1
6.273346,0.589,0.304,-0.466,167.358,61.95,-80.2,1
6.281182,0.661,0.268,-0.473,143.92,65.063,-78.735,1
6.28778,0.684,0.252,-0.478,118.957,67.443,-76.599,1
6.295634,0.738,0.252,-0.513,102.172,67.687,-75.073,1
6.302816,0.76,0.243,-0.51,91.064,68.908,-73.242,1
6.311187,0.82,0.229,-0.571,81.359,67.687,-72.143,1
6.319052,0.858,0.215,-0.567,76.599,66.833,-70.373,1
6.326966,0.883,0.208,-0.595,76.293,64.025,-68.42,1
6.333478,0.905,0.184,-0.624,74.401,62.561,-66.589,1
6.341892,0.893,0.169,-0.62,69.335,60.058,-64.514,1
6.34982,0.879,0.188,-0.617,66.955,58.837,-62.438,1
6.357784,0.867,0.201,-0.614,69.702,55.908,-60.302,1
6.364588,0.835,0.225,-0.603,73.852,53.771,-59.204,1
6.373627,0.818,0.235,-0.608,81.848,51.635,-57.434,1
6.38018,0.844,0.245,-0.614,85.754,49.56,-56.64,1
6.388301,0.81,0.243,-0.614,86.853,47.607,-55.48,1
6.396298,0.822,0.253,-0.63,85.083,46.508,-54.687,1
6.402971,0.844,0.267,-0.633,81.604,44.006,-54.016,1
6.410564,0.791,0.276,-0.618,81.237,42.663,-52.673,1
6.418951,0.831,0.283,-0.62,80.261,40.893,-52.307,1
6.427201,0.84,0.289,-0.582,81.604,38.818,-52.49,1
6.434286,0.816,0.281,-0.564,85.266,36.926,-51.94,1
6.442182,0.829,0.272,-0.535,89.538,35.766,-51.513,1
6.450567,0.843,0.276,-0.53,104.064,34.24,-50.842,1
6.457626,0.839,0.273,-0.509,121.826,31.433,-50.048,1
6.465927,0.839,0.23,-0.503,137.39,29.785,-48.339,1
6.472875,0.878,0.198,-0.512,141.235,29.174,-46.508,1
6.481519,0.828,0.179,-0.5,135.192,29.907,-43.945,1
6.488037,0.764,0.172,-0.52,118.652,30.334,-41.687,1
6.495248,0.795,0.204,-0.516,104.064,28.686,-40.039,1
6.503427,0.774,0.213,-0.496,90.698,29.846,-38.94,1
6.511372,0.758,0.206,-0.523,73.303,29.113,-38.208,1
6.519878,0.733,0.205,-0.509,53.955,29.907,-37.414,1
6.527182,0.719,0.225,-0.526,41.015,29.357,-36.926,1
6.535082,0.703,0.249,-0.52,37.597,29.113,-36.682,1
6.543235,0.704,0.26,-0.527,41.137,27.709,-36.56,1
6.551269,0.706,0.262,-0.525,46.447,26.55,-35.949,1
6.558185,0.691,0.263,-0.527,52.001,25.268,-35.461,1
6.564755,0.66,0.271,-0.522,53.283,24.597,-34.912,1
6.572823,0.673,0.277,-0.525,52.612,23.315,-34.545,1
6.580016,0.683,0.29,-0.512,52.124,22.644,-33.996,1
6.588402,0.694,0.303,-0.516,50.415,21.301,-33.813,1
6.59648,0.713,0.307,-0.513,47.241,20.202,-33.996,1
6.603709,0.744,0.306,-0.514,43.212,19.348,-34.057,1
6.61166,0.786,0.295,-0.516,37.963,18.249,-34.118,1
6.62002,0.815,0.282,-0.511,33.935,17.15,-34.118,1
6.626305,0.841,0.272,-0.516,31.738,15.991,-34.179,1
6.634642,0.86,0.262,-0.509,31.616,14.587,-33.569,1
6.641758,0.867,0.254,-0.501,33.081,13.427,-33.264,1
6.650238,0.89,0.246,-0.495,36.743,12.145,-32.775,1
6.657841,0.901,0.247,-0.478,42.541,11.047,-31.799,1
6.665754,0.892,0.261,-0.466,48.339,9.887,-31.066,1
6.674159,0.876,0.277,-0.447,53.955,8.85,-30.7,1
6.682052,0.85,0.29,-0.427,59.387,8.178,-30.395,1
6.690609,0.83,0.304,-0.411,64.514,7.385,-30.395,1
6.698574,0.82,0.313,-0.392,67.504,7.202,-30.883,1
6.704911,0.797,0.314,-0.382,67.382,7.263,-31.677,1
6.712772,0.79,0.305,-0.371,64.575,7.385,-32.47,1
6.720779,0.791,0.301,-0.368,59.875,7.69,-33.447,1
6.728844,0.79,0.292,-0.368,55.175,8.056,-34.057,1
6.736411,0.786,0.28,-0.367,50.354,8.117,-35.156,1
6.743047,0.782,0.256,-0.368,45.654,8.239,-35.888,1
6.750219,0.783,0.243,-0.367,41.259,8.544,-36.254,1
6.758407,0.797,0.229,-0.364,40.161,8.422,-36.804,1
6.76688,0.807,0.21,-0.36,41.442,8.056,-37.292,1
6.77328,0.814,0.188,-0.348,44.067,7.873,-37.414,1
6.781317,0.83,0.168,-0.34,48.767,7.751,-37.78,1
6.789873,0.853,0.145,-0.347,50.476,7.995,-37.658,1
6.796618,0.87,0.122,-0.35,49.316,8.239,-37.353,1
6.805009,0.877,0.111,-0.353,45.959,8.666,-36.987,1
6.811806,0.887,0.102,-0.354,42.236,9.094,-36.682,1
6.820329,0.906,0.106,-0.35,38.024,9.643,-35.949,1
6.826884,0.91,0.12,-0.346,34.118,10.009,-35.705,1
6.835051,0.906,0.123,-0.343,30.7,10.131,-35.583,1
6.843256,0.904,0.136,-0.337,29.846,10.07,-35.461,1
6.849902,0.91,0.146,-0.333,31.433,10.192,-35.156,1
6.858041,0.9,0.156,-0.326,35.217,10.131,-35.156,1
6.866238,0.91,0.156,-0.325,38.33,10.375,-35.278,1
6.872789,0.917,0.157,-0.325,40.039,10.437,-35.034,1
6.880745,0.936,0.158,-0.325,40.161,10.375,-35.034,1
6.888957,0.947,0.162,-0.327,38.818,11.108,-34.851,1
6.898311,0.949,0.166,-0.338,35.461,11.718,-34.79,1
6.904852,0.966,0.174,-0.337,30.151,12.145,-34.79,1
6.9129,0.97,0.185,-0.336,25.573,12.573,-34.973,1
6.920976,0.966,0.199,-0.333,20.263,12.695,-35.095,1
6.927056,0.968,0.208,-0.329,15.93,13.061,-35.4,1
6.934809,0.963,0.229,-0.328,16.357,12.695,-35.705,1
6.943266,0.977,0.249,-0.325,22.705,12.023,-36.315,1
6.95098,0.972,0.256,-0.328,29.174,11.108,-37.109,1
6.957487,0.965,0.263,-0.333,33.935,10.864,-37.597,1
6.965272,0.963,0.266,-0.343,36.376,10.131,-38.33,1
6.973818,0.965,0.268,-0.359,35.827,10.192,-39.245,1
6.980136,0.969,0.272,-0.386,30.822,10.559,-40.039,1
6.988749,0.969,0.281,-0.406,25.024,10.559,-40.832,1
6.996604,0.954,0.292,-0.429,16.174,10.62,-41.809,1
7.003673,0.951,0.312,-0.437,6.286,10.437,-43.029,1
7.011947,0.961,0.333,-0.467,2.624,9.46,-44.25,1
7.018493,0.954,0.354,-0.478,3.356,7.629,-45.715,1
7.026303,0.943,0.362,-0.47,8.239,6.408,-47.302,1
7.033186,0.956,0.364,-0.487,17.944,4.089,-49.255,1
7.040122,0.974,0.354,-0.485,26.672,1.892,-51.025,1
7.048267,0.984,0.336,-0.49,35.095,0.549,-52.856,1
7.056395,0.989,0.324,-0.499,40.161,-1.647,-54.321,1
7.063258,1.001,0.311,-0.5,42.541,-3.051,-56.213,1
7.07152,0.996,0.305,-0.501,42.48,-4.394,-57.861,1
7.079342,1.011,0.293,-0.509,42.846,-5.493,-59.265,1
7.086389,1.009,0.283,-0.497,40.588,-6.774,-60.974,1
7.093261,1.008,0.285,-0.491,40.405,-7.507,-62.622,1
7.101824,1.019,0.271,-0.488,39.916,-9.155,-64.88,1
7.110483,1.037,0.271,-0.452,40.039,-9.094,-66.894,1
7.117549,1.064,0.264,-0.468,41.32,-9.704,-69.213,1
7.124459,1.106,0.259,-0.431,42.724,-10.192,-71.533,1
7.133243,1.142,0.257,-0.437,44.128,-10.009,-75.012,1
7.140846,1.162,0.252,-0.437,42.236,-9.887,-77.697,1
7.14938,1.168,0.256,-0.443,35.705,-9.765,-80.627,1
7.156311,1.139,0.29,-0.453,28.747,-10.192,-83.862,1
7.166335,1.115,0.336,-0.466,28.747,-10.864,-87.89,1
7.174908,1.1,0.364,-0.471,32.836,-13.549,-92.834,1
7.181489,1.051,0.382,-0.443,42.968,-14.953,-97.167,1
7.190045,0.946,0.378,-0.457,47.973,-14.587,-101.867,1
7.198512,0.896,0.344,-0.444,45.166,-14.282,-106.14,1
7.205152,0.854,0.312,-0.432,40.588,-12.939,-109.985,1
7.212856,0.839,0.267,-0.429,34.057,-11.962,-113.952,1
7.221147,0.927,0.201,-0.449,20.996,-9.643,-118.225,1
7.229995,0.917,0.139,-0.474,-1.586,-8.666,-120.544,1
7.236884,0.929,0.107,-0.487,-21.118,-7.934,-122.863,1
7.24523,0.794,0.092,-0.483,-34.484,-9.277,-124.267,1
7.252146,0.734,0.097,-0.495,-28.686,-8.789,-126.037,1
7.260874,0.778,0.086,-0.503,-13.305,-12.023,-126.953,1
7.268129,0.75,0.09,-0.541,9.643,-15.075,-128.662,1
7.278858,0.726,0.076,-0.552,32.104,-17.456,-129.943,1
7.286452,0.673,0.05,-0.594,51.696,-20.568,-131.103,1
7.296551,0.625,0.026,-0.616,56.091,-22.46,-131.896,1
7.303386,0.601,-0.003,-0.647,51.391,-23.742,-132.141,1
7.314416,0.604,-0.023,-0.647,41.259,-24.597,-131.835,1
7.321116,0.61,-0.047,-0.649,24.841,-26.184,-131.835,1
7.330463,0.625,-0.066,-0.619,16.052,-27.038,-131.164,1
7.339433,0.653,-0.096,-0.608,10.07,-29.418,-130.31,1
7.346037,0.652,-0.121,-0.579,8.117,-31.249,-129.699,1
7.355497,0.654,-0.163,-0.541,7.751,-33.264,-128.845,1
7.362279,0.641,-0.204,-0.506,8.605,-34.912,-127.929,1
7.37198,0.637,-0.23,-0.474,11.169,-36.376,-126.464,1
7.379468,0.626,-0.256,-0.45,14.221,-37.475,-125.488,1
7.388644,0.581,-0.276,-0.425,16.296,-38.757,-124.084,1
7.395604,0.579,-0.29,-0.403,18.554,-39.062,-121.826,1
7.40324,0.569,-0.275,-0.402,20.141,-40.039,-121.765,1
7.413165,0.548,-0.307,-0.375,18.554,-40.832,-122.253,1
7.420489,0.49,-0.32,-0.33,13.854,-39.062,-122.497,1
7.429845,0.443,-0.334,-0.321,10.07,-38.574,-123.474,1
7.437409,0.38,-0.374,-0.282,2.624,-36.193,-124.511,1
7.444676,0.37,-0.414,-0.262,-8.239,-34.545,-125.488,1
7.453085,0.37,-0.449,-0.242,-19.165,-31.738,-126.281,1
7.460801,0.373,-0.478,-0.234,-28.442,-30.578,-126.892,1
7.469493,0.402,-0.516,-0.202,-30.212,-29.785,-127.319,1
7.477593,0.433,-0.562,-0.165,-28.32,-28.381,-128.479,1
7.484511,0.445,-0.611,-0.142,-26.733,-26.611,-129.211,1
7.493141,0.475,-0.68,-0.118,-27.832,-24.475,-130.187,1
7.501698,0.507,-0.744,-0.101,-32.897,-21.24,-130.493,1
7.508701,0.481,-0.79,-0.084,-40.954,-18.737,-130.432,1
7.517353,0.491,-0.835,-0.074,-50.292,-15.258,-130.31,1
7.524581,0.466,-0.871,-0.058,-57.678,-13.427,-129.211,1
7.533279,0.449,-0.891,-0.037,-57.983,-11.596,-127.319,1
7.541245,0.39,-0.919,-0.015,-55.908,-10.681,-125.427,1
7.548846,0.366,-0.932,0.0,-42.48,-9.826,-123.352,1
7.555645,0.3,-0.961,0.021,-26.55,-9.277,-121.398,1
7.563702,0.228,-1.013,0.054,-13.122,-6.958,-119.689,1
7.572561,0.157,-1.08,0.046,-10.192,-4.028,-117.37,1
7.580952,0.081,-1.135,0.064,-21.728,0.061,-115.478,1
7.587906,0.03,-1.18,0.066,-43.884,4.638,-112.67,1
7.596326,-0.103,-1.219,0.091,-70.495,8.911,-109.924,1
7.603403,-0.082,-1.262,0.137,-95.947,12.695,-107.36,1
7.611651,-0.129,-1.249,0.178,-102.6,16.418,-103.82,1
7.620195,-0.222,-1.257,0.228,-84.777,16.601,-100.646,1
7.628442,-0.298,-1.264,0.308,-56.03,18.737,-97.473,1
7.637172,-0.4,-1.333,0.349,-24.719,19.287,-94.238,1
7.645528,-0.435,-1.441,0.455,-16.113,24.536,-90.576,1
7.652756,-0.437,-1.521,0.512,-23.132,32.165,-85.205,1
7.661123,-0.407,-1.64,0.579,-36.865,39.916,-79.589,1
7.669334,-0.462,-1.753,0.715,-78.979,51.574,-72.021,1
7.677976,-0.463,-1.756,0.725,-109.863,62.072,-64.636,1
7.685939,-0.524,-1.785,0.82,-121.337,69.641,-57.006,1
7.693449,-0.613,-1.791,0.83,-123.107,78.857,-46.142,1
7.701172,-0.696,-1.811,0.85,-119.506,84.716,-36.743,1
7.707829,-0.742,-1.833,0.922,-103.82,92.407,-26.0,1
7.71559,-0.834,-1.883,0.959,-78.857,100.036,-15.502,1
7.724955,-0.922,-1.98,0.991,-64.147,110.473,-4.516,1
7.731893,-1.041,-2.103,1.0,-66.528,122.436,7.446,1
7.739724,-1.117,-2.194,1.018,-83.496,139.587,21.362,1
7.746547,-1.229,-2.229,1.031,-96.74,154.174,33.874,1
7.754834,-1.368,-2.254,1.02,-101.379,167.968,47.058,1
7.763123,-1.526,-2.273,1.014,-98.754,180.297,60.546,1
7.769828,-1.677,-2.296,0.994,-93.811,193.603,74.707,1
7.778319,-1.843,-2.308,0.977,-87.097,205.749,89.965,1
7.785234,-2.021,-2.284,0.947,-72.631,219.299,105.529,1
7.793556,-2.201,-2.244,0.894,-49.316,230.346,122.558,1
7.801582,-2.426,-2.187,0.833,-10.986,240.234,140.625,1
7.808181,-2.612,-2.149,0.75,36.926,247.924,160.522,1
7.816588,-2.797,-2.148,0.666,78.186,255.004,182.617,1
7.82462,-2.999,-2.151,0.557,109.619,263.244,210.876,1
7.832633,-3.263,-2.095,0.468,123.413,270.507,236.328,1
7.840563,-3.618,-2.011,0.35,125.183,278.747,267.517,1
7.849081,-3.913,-1.9,0.267,126.281,284.545,295.166,1
7.855825,-4.266,-1.775,0.179,134.46,289.611,323.547,1
7.864353,-4.683,-1.661,0.111,148.742,293.09,353.332,1
7.872351,-5.108,-1.553,0.021,164.001,295.41,384.399,1
7.879166,-5.526,-1.469,-0.082,187.622,296.203,417.541,1
7.887207,-6.138,-1.417,-0.212,199.768,294.616,458.862,1
7.895699,-6.695,-1.383,-0.321,181.274,295.349,494.689,1
7.902937,-7.221,-1.308,-0.393,165.1,295.043,532.165,1
7.9114,-7.929,-1.239,-0.476,145.019,293.334,570.312,1
7.920259,-8.9,-1.133,-0.583,122.131,293.884,608.398,1
7.925803,-9.758,-1.006,-0.685,121.887,290.1,654.785,1
7.93384,-10.818,-0.943,-0.811,131.164,281.372,696.472,1
7.943182,-11.91,-0.789,-0.859,149.658,270.141,738.22,1
7.949759,-13.263,-0.672,-1.066,173.889,250.244,781.494,1
7.957802,-14.554,-0.533,-1.145,203.002,228.027,826.904,1
7.964682,-15.925,-0.423,-1.402,231.811,196.96,873.962,1
7.974043,-15.997,-0.27,-1.391,284.301,155.7,922.912,1
7.980822,-15.999,-0.099,-1.43,328.43,97.534,981.14,1
7.988238,-15.999,0.102,-1.423,381.835,36.743,1030.822,1
7.996262,-15.999,0.336,-1.394,423.95,-36.254,1077.209,1
8.004676,-15.999,0.751,-1.228,452.27,-114.807,1120.605,1
8.012204,-15.999,1.297,-1.006,512.512,-217.59,1163.024,1
8.02067,-15.999,1.773,-0.861,585.388,-323.242,1188.049,1
8.02958,-15.999,2.193,-0.528,661.01,-444.519,1203.552,1
8.036532,-15.999,2.706,-0.082,763.366,-603.393,1196.106,1
8.044665,-15.999,3.023,0.614,872.009,-755.981,1169.738,1
8.051758,-15.999,3.29,1.502,1013.671,-919.25,1120.544,1
8.059885,-15.999,3.512,2.527,1217.041,-1097.045,1028.869,1
8.066533,-15.999,3.582,3.723,1431.152,-1259.216,885.436,1
8.075055,-15.999,3.779,3.995,1656.982,-1394.592,668.029,1
8.081559,-15.999,3.381,3.975,1747.558,-1494.75,398.315,1
8.090208,-15.999,3.145,3.987,1698.242,-1501.953,120.178,1
8.098174,-15.999,2.815,3.583,1509.826,-1460.021,-141.723,1
8.107396,-15.999,2.323,3.575,1203.796,-1323.547,-383.605,1
8.11472,-15.999,2.225,3.684,910.339,-1194.702,-526.55,1
8.123539,-15.999,1.868,3.553,704.223,-1056.884,-619.751,1
8.13042,-15.999,1.664,3.084,540.771,-963.623,-679.565,1
8.138938,-15.999,1.653,3.198,427.551,-853.881,-720.153,1
8.146116,-15.999,1.506,2.978,394.226,-783.386,-744.873,1
8.155355,-15.999,1.194,3.051,391.723,-708.19,-760.62,1
8.162315,-15.999,0.867,2.855,377.685,-619.689,-771.85,1
8.170908,-15.999,0.529,2.735,345.886,-537.902,-776.0,1
8.178874,-15.999,0.19,2.656,317.81,-469.482,-770.935,1
8.187476,-14.847,-0.047,2.528,287.292,-401.489,-758.911,1
8.196128,-13.452,-0.255,2.483,283.63,-348.693,-743.774,1
8.204406,-12.055,-0.537,2.349,306.823,-290.71,-719.055,1
8.212758,-10.995,-0.754,2.283,323.181,-240.539,-694.885,1
8.219427,-9.851,-1.097,2.179,314.025,-188.171,-667.48,1
8.226859,-8.908,-1.311,2.077,280.456,-136.596,-637.756,1
8.234947,-8.015,-1.451,1.926,230.407,-84.289,-601.501,1
8.243731,-7.208,-1.488,1.836,210.327,-46.081,-568.908,1
8.25085,-6.564,-1.479,1.642,219.726,-13.183,-537.475,1
8.257909,-6.006,-1.484,1.445,243.041,14.343,-506.53,1
8.266329,-5.456,-1.542,1.2,256.347,43.823,-476.684,1
8.274709,-4.876,-1.663,0.92,232.543,74.401,-442.749,1
8.282949,-4.451,-1.693,0.739,192.382,100.646,-414.245,1
8.28992,-4.181,-1.597,0.535,157.409,118.774,-387.329,1
8.298579,-4.105,-1.473,0.427,145.874,133.544,-356.14,1
8.306789,-3.976,-1.367,0.3,152.282,140.014,-330.444,1
8.313945,-3.762,-1.374,0.225,158.874,146.728,-304.504,1
8.322422,-3.454,-1.419,0.129,143.188,153.991,-275.451,1
8.33178,-3.161,-1.454,0.083,114.074,159.606,-252.258,1
8.339347,-2.855,-1.455,0.041,85.876,163.94,-230.957,1
8.348428,-2.5,-1.446,0.006,64.453,165.527,-208.19,1
8.35504,-2.218,-1.423,-0.028,57.189,165.1,-189.819,1
8.364119,-2.02,-1.426,-0.021,57.067,163.085,-172.729,1
8.371151,-1.868,-1.424,-0.021,59.448,161.499,-153.686,1
8.380295,-1.687,-1.408,-0.026,57.678,160.4,-137.817,1
8.388451,-1.527,-1.375,-0.038,52.429,159.179,-119.628,1
8.395919,-1.378,-1.319,-0.053,48.522,157.165,-105.224,1
8.403386,-1.255,-1.257,-0.064,48.583,153.808,-88.928,1
8.41093,-1.107,-1.21,-0.069,53.527,150.451,-75.561,1
8.419979,-0.971,-1.165,-0.082,59.875,146.606,-62.438,1
8.427534,-0.851,-1.108,-0.101,62.866,141.296,-47.668,1
8.436308,-0.79,-1.042,-0.112,62.377,136.962,-36.01,1
8.44343,-0.741,-0.994,-0.11,55.603,132.568,-23.742,1
8.452693,-0.685,-0.947,-0.111,46.569,129.089,-13.732,1
8.4606,-0.583,-0.897,-0.103,41.32,125.244,-5.126,1
8.46887,-0.476,-0.849,-0.094,44.982,120.056,5.004,1
8.475902,-0.363,-0.793,-0.096,53.771,114.929,14.526,1
8.483655,-0.294,-0.745,-0.103,60.791,110.229,22.094,1
8.492379,-0.216,-0.695,-0.112,66.772,105.407,29.357,1
8.500198,-0.152,-0.638,-0.106,72.143,100.708,35.705,1
8.510348,-0.095,-0.573,-0.108,78.186,95.581,42.236,1
8.517695,-0.018,-0.504,-0.104,85.021,91.003,47.729,1
8.525992,0.041,-0.443,-0.095,93.505,86.73,51.818,1
8.534687,0.117,-0.37,-0.087,107.543,81.848,56.03,1
8.54209,0.18,-0.307,-0.084,121.765,76.416,59.692,1
8.550731,0.22,-0.252,-0.074,132.263,72.326,62.561,1
8.5587,0.259,-0.22,-0.075,138.854,68.237,64.636,1
8.565469,0.321,-0.196,-0.063,141.235,64.392,66.894,1
8.575888,0.402,-0.16,-0.052,139.953,61.218,69.335,1
8.584983,0.46,-0.11,-0.05,138.244,58.471,71.166,1
8.593131,0.522,-0.07,-0.046,136.84,55.908,72.387,1
8.60001,0.571,-0.031,-0.041,136.23,53.771,73.303,1
8.607913,0.579,-0.001,-0.052,135.864,51.513,73.608,1
8.614815,0.666,0.018,-0.061,135.986,49.255,73.242,1
8.62554,0.734,0.018,-0.067,133.056,46.02,72.998,1
8.633891,0.819,0.02,-0.074,130.92,44.128,72.509,1
8.640857,0.891,0.024,-0.074,131.958,40.527,72.998,1
8.649298,0.966,0.036,-0.072,136.413,38.269,73.242,1
8.658735,1.012,0.054,-0.062,144.592,34.912,73.608,1
8.666187,1.037,0.062,-0.058,153.198,32.958,74.279,1
8.675628,1.079,0.062,-0.057,156.799,31.433,75.012,1
8.683287,1.126,0.084,-0.052,155.09,31.311,76.171,1
8.69047,1.155,0.127,-0.069,150.085,30.883,77.27,1
8.699942,1.184,0.166,-0.076,145.812,29.846,77.819,1
8.706622,1.204,0.198,-0.08,142.15,28.625,78.43,1
8.715055,1.215,0.231,-0.084,141.296,27.648,78.613,1
8.722264,1.221,0.25,-0.091,140.563,26.245,78.674,1
8.730377,1.232,0.264,-0.081,136.169,25.878,79.711,1
8.737843,1.279,0.298,-0.085,136.169,25.207,80.261,1
8.747029,1.291,0.363,-0.079,144.836,23.193,79.833,1
8.755365,1.244,0.404,-0.083,156.982,21.301,79.406,1
8.763882,1.194,0.438,-0.079,170.41,19.287,78.796,1
8.770973,1.177,0.476,-0.088,178.833,18.432,78.308,1
8.77937,1.168,0.527,-0.083,182.067,17.944,77.209,1
8.786455,1.155,0.566,-0.091,182.128,18.066,75.5,1
8.795886,1.162,0.602,-0.094,177.185,18.005,74.035,1
8.803076,1.155,0.648,-0.09,168.457,19.409,71.533,1
8.810705,1.145,0.696,-0.084,161.193,20.629,69.03,1
8.81844,1.132,0.742,-0.094,155.822,21.911,66.65,1
8.827022,1.124,0.786,-0.099,152.282,22.155,63.232,1
8.835186,1.116,0.815,-0.097,151.245,22.705,60.424,1
8.841855,1.118,0.844,-0.102,149.902,23.315,57.556,1
8.851744,1.106,0.879,-0.114,148.437,23.254,54.748,1
8.858883,1.112,0.915,-0.115,149.597,23.132,51.147,1
8.865937,1.106,0.95,-0.129,151.062,23.01,47.912,1
8.875738,1.099,0.978,-0.129,152.587,22.949,43.884,1
8.882656,1.108,0.974,-0.146,152.282,23.193,39.733,1
8.891079,1.116,0.968,-0.15,147.766,24.047,36.132,1
8.899963,1.121,0.951,-0.172,138.0,24.78,32.287,1
8.906554,1.117,0.935,-0.176,128.723,26.306,29.174,1
8.914067,1.12,0.922,-0.199,120.727,27.526,25.878,1
8.923194,1.104,0.896,-0.229,111.083,28.686,23.193,1
8.930922,1.097,0.874,-0.252,95.703,30.212,20.08,1
8.938139,1.088,0.855,-0.288,81.42,31.188,17.395,1
8.945909,1.089,0.833,-0.323,69.396,31.738,14.526,1
8.953615,1.093,0.826,-0.341,63.415,31.372,12.084,1
8.961508,1.124,0.8,-0.376,64.575,30.578,9.277,1
8.969931,1.121,0.768,-0.389,66.65,28.93,6.774,1
8.977632,1.129,0.736,-0.398,71.166,27.77,4.821,1
8.984944,1.117,0.695,-0.414,75.073,26.0,2.929,1
8.993325,1.097,0.643,-0.401,79.101,24.353,1.098,1
9.000691,1.056,0.593,-0.375,85.205,23.071,-0.183,1
9.009813,1.032,0.552,-0.349,93.749,20.996,-1.281,1
9.017858,1.014,0.505,-0.326,102.355,19.592,-1.647,1
9.025039,0.989,0.455,-0.311,111.572,18.188,-2.014,1
9.03288,0.966,0.405,-0.295,116.21,18.249,-1.464,1
9.041414,0.93,0.37,-0.303,114.807,18.676,-1.464,1
9.049466,0.902,0.337,-0.308,107.482,19.714,-1.281,1
9.057043,0.876,0.318,-0.315,100.402,20.507,-0.915,1
9.063953,0.858,0.306,-0.309,95.642,21.057,-0.427,1
9.07239,0.855,0.291,-0.303,94.116,21.789,-0.183,1
9.079466,0.856,0.272,-0.292,95.275,22.338,0.671,1
9.087201,0.862,0.252,-0.28,96.923,23.315,1.464,1
9.096027,0.861,0.247,-0.276,97.778,24.23,2.807,1
9.103593,0.85,0.25,-0.272,97.717,25.512,3.906,1
9.110683,0.824,0.252,-0.273,94.36,26.733,5.31,1
9.119435,0.792,0.257,-0.275,89.172,28.198,6.469,1
9.126202,0.767,0.259,-0.282,82.702,29.541,7.385,1
9.133045,0.744,0.259,-0.287,75.378,30.822,8.178,1
9.140763,0.738,0.247,-0.298,66.955,32.348,8.972,1
9.148291,0.736,0.235,-0.313,56.823,34.24,10.375,1
9.156913,0.737,0.234,-0.326,46.203,35.949,11.596,1
9.165738,0.74,0.234,-0.337,38.818,37.292,12.084,1
9.174315,0.71,0.228,-0.343,34.118,38.513,13.61,1
9.181861,0.707,0.223,-0.36,31.738,39.245,14.892,1
9.191139,0.713,0.215,-0.369,29.785,39.916,16.357,1
9.198589,0.756,0.205,-0.38,26.611,40.649,17.517,1
9.205874,0.735,0.198,-0.374,22.399,41.748,19.104,1
9.213905,0.722,0.202,-0.398,16.906,42.663,20.141,1
9.223747,0.738,0.205,-0.394,11.535,43.212,21.057,1
9.229507,0.745,0.207,-0.399,7.019,44.189,21.972,1
9.238958,0.742,0.209,-0.392,5.065,44.311,22.827,1
9.24486,0.737,0.217,-0.389,6.103,44.799,23.193,1
9.254676,0.734,0.224,-0.391,9.399,44.433,24.047,1
9.263018,0.737,0.227,-0.392,15.869,43.457,25.024,1
9.270717,0.736,0.225,-0.392,22.46,42.297,25.878,1
9.278842,0.723,0.208,-0.378,29.724,40.893,26.794,1
9.286322,0.711,0.193,-0.362,34.973,39.855,28.015,1
9.295013,0.703,0.165,-0.336,39.489,39.062,29.174,1
9.301736,0.711,0.151,-0.314,45.288,38.269,30.395,1
9.309503,0.718,0.137,-0.294,54.626,37.658,31.982,1
9.318551,0.745,0.125,-0.287,68.237,36.437,33.874,1
9.326509,0.685,0.163,-0.282,90.515,35.705,35.461,1
9.333592,0.789,0.111,-0.285,116.21,32.592,37.902,1
9.342441,0.818,0.076,-0.294,129.943,33.447,40.588,1
9.348477,0.875,0.034,-0.342,123.718,32.165,43.029,1
9.356094,0.78,0.011,-0.334,97.595,34.851,46.081,1
9.365095,0.759,-0.006,-0.346,55.114,39.367,49.743,1
9.372648,0.805,0.009,-0.357,12.268,41.015,51.757,1
9.379669,0.805,0.02,-0.3,-22.827,45.104,54.504,1
9.387157,0.789,0.051,-0.317,-47.973,48.095,56.701,1
9.396392,0.755,0.087,-0.294,-65.612,49.804,58.959,1
9.403367,0.748,0.126,-0.293,-70.129,52.368,60.668,1
9.410912,0.727,0.19,-0.3,-61.889,52.246,61.95,1
9.418811,0.707,0.235,-0.303,-41.931,52.185,62.988,1
9.428339,0.7,0.27,-0.327,-18.493,50.231,63.964,1
9.434181,0.698,0.288,-0.339,7.263,48.522,64.88,1
9.443284,0.69,0.284,-0.359,24.597,46.813,65.551,1
9.450394,0.689,0.279,-0.369,33.691,45.532,67.016,1
9.459504,0.687,0.301,-0.386,43.151,45.898,68.054,1
9.467162,0.65,0.331,-0.402,46.936,43.395,69.213,1
9.47499,0.631,0.348,-0.41,47.485,43.823,70.556,1
9.482908,0.628,0.367,-0.428,42.114,42.602,71.655,1
9.489837,0.63,0.382,-0.418,33.691,43.334,72.448,1
9.49741,0.585,0.4,-0.415,20.874,44.25,73.242,1
9.50597,0.539,0.417,-0.41,11.23,45.043,73.364,1
9.512853,0.493,0.422,-0.387,-2.99,46.325,73.364,1
9.520369,0.455,0.426,-0.37,-13.61,48.217,73.425,1
9.529177,0.426,0.417,-0.348,-21.667,49.377,73.486,1
9.536759,0.406,0.411,-0.324,-26.489,50.659,73.608,1
9.544627,0.378,0.399,-0.304,-26.367,51.208,74.34,1
9.552532,0.32,0.399,-0.265,-18.676,51.025,75.5,1
9.559594,0.349,0.36,-0.237,-2.807,50.415,77.331,1
9.56686,0.33,0.347,-0.246,6.286,50.354,79.528,1
9.575127,0.33,0.356,-0.248,10.864,51.086,81.909,1
9.583924,0.316,0.361,-0.266,11.901,50.476,84.106,1
9.591204,0.291,0.351,-0.263,9.155,51.391,86.486,1
9.59829,0.286,0.331,-0.256,0.549,52.734,89.416,1
9.606432,0.267,0.33,-0.268,-11.23,54.748,92.651,1
9.6137,0.275,0.338,-0.28,-26.733,57.739,95.397,1
9.622071,0.231,0.344,-0.294,-45.837,61.035,98.266,1
9.629309,0.186,0.368,-0.298,-62.133,64.392,100.708,1
9.637929,0.16,0.393,-0.298,-69.458,66.833,103.515,1
9.644946,0.138,0.406,-0.287,-64.758,68.481,105.895,1
9.651563,0.118,0.412,-0.278,-52.551,68.786,108.398,1
9.660347,0.108,0.418,-0.262,-37.536,69.335,110.9,1
9.667482,0.097,0.434,-0.28,-16.601,69.763,114.685,1
9.675972,0.059,0.445,-0.298,-6.286,70.068,117.37,1
9.685066,0.018,0.462,-0.336,-5.737,71.105,119.995,1
9.692054,-0.016,0.475,-0.353,-13.305,72.082,122.558,1
9.701076,-0.054,0.483,-0.352,-22.521,73.181,124.328,1
9.709053,-0.086,0.487,-0.348,-29.602,75.073,126.647,1
9.716977,-0.101,0.488,-0.35,-33.996,76.66,128.845,1
9.726088,-0.125,0.518,-0.354,-35.766,78.186,130.615,1
9.732799,-0.178,0.553,-0.362,-36.071,79.101,131.896,1
9.742977,-0.238,0.577,-0.365,-34.912,80.261,132.995,1
9.751768,-0.292,0.613,-0.385,-33.02,81.542,133.789,1
9.759986,-0.343,0.658,-0.4,-31.616,82.092,134.46,1
9.768365,-0.402,0.697,-0.431,-31.799,83.068,134.582,1
9.777329,-0.443,0.742,-0.458,-35.522,84.289,134.277,1
9.785067,-0.479,0.776,-0.483,-43.579,85.144,133.667,1
9.792648,-0.505,0.796,-0.506,-53.71,86.364,132.873,1
9.801555,-0.52,0.816,-0.521,-60.852,87.585,132.141,1
9.811727,-0.515,0.849,-0.528,-63.049,88.562,131.713,1
9.819526,-0.538,0.874,-0.551,-59.082,88.684,131.408,1
9.82683,-0.55,0.896,-0.562,-51.33,88.562,130.92,1
9.836007,-0.572,0.911,-0.575,-42.297,87.951,131.042,1
9.845023,-0.598,0.921,-0.593,-30.273,86.975,131.591,1
9.853593,-0.613,0.937,-0.61,-24.414,86.425,131.835,1
9.862002,-0.634,0.945,-0.625,-22.216,85.754,132.873,1
9.870835,-0.641,0.962,-0.643,-23.498,86.059,133.667,1
9.879906,-0.65,0.974,-0.646,-25.512,85.998,134.704,1
9.888993,-0.658,1.003,-0.672,-27.038,86.425,134.948,1
9.896601,-0.678,1.02,-0.681,-28.991,85.754,135.131,1
9.904991,-0.694,1.035,-0.699,-29.968,86.059,135.253,1
9.91194,-0.707,1.049,-0.709,-25.817,84.838,135.192,1
9.921111,-0.71,1.057,-0.705,-20.202,84.655,135.192,1
9.928336,-0.716,1.073,-0.737,-14.465,83.496,134.887,1
9.935538,-0.73,1.095,-0.75,-7.446,81.542,134.704,1
9.94374,-0.74,1.119,-0.777,0.976,79.589,134.155,1
9.951346,-0.761,1.136,-0.789,10.192,76.049,132.873,1
9.960153,-0.77,1.144,-0.808,16.845,73.608,132.08,1
9.968041,-0.774,1.161,-0.824,21.057,70.19,130.31,1
9.97693,-0.78,1.16,-0.827,23.925,67.26,129.028,1
9.985996,-0.775,1.173,-0.826,30.029,63.537,127.014,1
9.993675,-0.765,1.174,-0.817,40.588,59.631,125.244,1
