timestamp_s,ax,ay,az,gx,gy,gz,label
0.006149,0.764,0.651,-0.14,1.464,0.305,2.746,1
0.013562,0.758,0.649,-0.143,1.342,0.366,2.624,1
0.022039,0.76,0.649,-0.134,1.22,0.427,3.112,1
0.028732,0.756,0.641,-0.135,0.488,0.61,2.929,1
0.03703,0.749,0.643,-0.134,0.244,0.549,3.173,1
0.043411,0.749,0.641,-0.134,0.488,0.793,3.356,1
0.051933,0.741,0.642,-0.127,0.976,0.671,3.54,1
0.059035,0.737,0.645,-0.125,0.854,0.976,3.662,1
0.067141,0.732,0.647,-0.134,0.549,1.159,3.784,1
0.073672,0.735,0.65,-0.137,0.976,1.098,3.723,1
0.081484,0.735,0.65,-0.139,1.586,0.915,3.967,1
0.089958,0.739,0.648,-0.136,2.563,0.976,3.784,1
0.096927,0.737,0.645,-0.141,3.051,0.854,4.211,1
0.105654,0.741,0.648,-0.134,3.173,0.671,3.967,1
0.11284,0.737,0.647,-0.136,3.173,0.61,4.333,1
0.120075,0.739,0.65,-0.135,2.868,0.671,4.272,1
0.127601,0.738,0.651,-0.133,1.77,0.854,4.394,1
0.135943,0.74,0.655,-0.125,0.915,0.915,4.821,1
0.144117,0.74,0.658,-0.128,1.037,0.976,4.821,1
0.151411,0.74,0.655,-0.123,1.098,1.037,4.882,1
0.159606,0.734,0.658,-0.121,1.403,1.098,5.004,1
0.167103,0.738,0.666,-0.123,1.342,1.22,5.065,1
0.174064,0.732,0.675,-0.122,1.77,1.281,5.126,1
0.182273,0.736,0.686,-0.124,2.807,1.22,5.065,1
0.189888,0.736,0.691,-0.125,2.807,1.464,5.004,1
0.197361,0.733,0.699,-0.132,2.441,1.464,4.943,1
0.205394,0.741,0.701,-0.135,2.014,1.586,4.516,1
0.213624,0.736,0.704,-0.14,2.014,1.708,4.516,1
0.221611,0.729,0.7,-0.143,1.403,1.708,4.333,1
0.228188,0.741,0.696,-0.145,1.342,1.525,4.394,1
0.237313,0.736,0.698,-0.148,0.793,1.77,3.845,1
0.24449,0.732,0.694,-0.143,0.671,1.586,3.845,1
0.251557,0.739,0.696,-0.144,0.366,1.22,3.967,1
0.260691,0.734,0.698,-0.143,0.61,1.586,3.784,1
0.26837,0.738,0.706,-0.138,1.159,1.464,3.784,1
0.275466,0.742,0.706,-0.141,2.136,1.525,3.662,1
0.284151,0.734,0.711,-0.132,2.685,1.403,3.417,1
0.291092,0.735,0.712,-0.132,2.624,1.464,2.929,1
0.299106,0.738,0.712,-0.134,1.892,1.647,3.173,1
0.308067,0.732,0.724,-0.136,0.915,1.892,2.746,1
0.315047,0.73,0.728,-0.14,0.488,1.708,2.38,1
0.322222,0.732,0.734,-0.142,1.037,1.831,2.136,1
0.330792,0.733,0.733,-0.144,1.525,1.586,1.831,1
0.338484,0.735,0.729,-0.142,1.525,1.708,1.342,1
0.345073,0.741,0.724,-0.144,1.22,1.77,1.159,1
0.353756,0.736,0.718,-0.15,0.488,1.831,0.854,1
0.362274,0.733,0.714,-0.145,-0.061,1.77,0.61,1
0.369186,0.734,0.716,-0.149,-0.183,1.708,0.488,1
0.376553,0.732,0.715,-0.152,0.305,1.647,0.366,1
0.385458,0.733,0.717,-0.145,0.549,1.525,0.183,1
0.393574,0.733,0.716,-0.151,0.549,1.22,0.061,1
0.400917,0.733,0.711,-0.151,-0.061,1.586,-0.366,1
0.408531,0.732,0.707,-0.149,0.244,1.708,-0.488,1
0.416413,0.731,0.706,-0.152,0.061,1.708,-0.671,1
0.425447,0.73,0.695,-0.159,-0.305,1.586,-0.671,1
0.432283,0.729,0.688,-0.162,-0.183,1.342,-0.915,1
0.441575,0.734,0.689,-0.167,-0.183,0.915,-0.671,1
0.448555,0.732,0.69,-0.165,0.488,0.793,-0.976,1
0.456052,0.733,0.686,-0.163,0.671,0.61,-0.854,1
0.464912,0.735,0.68,-0.161,0.488,0.671,-0.854,1
0.47307,0.735,0.678,-0.163,0.061,0.549,-0.915,1
0.480858,0.73,0.674,-0.159,0.0,0.61,-0.793,1
0.487795,0.726,0.675,-0.163,0.122,0.244,-0.671,1
0.496402,0.724,0.677,-0.156,-0.244,0.305,-0.488,1
0.504909,0.726,0.667,-0.161,-0.305,0.061,-0.732,1
0.512431,0.729,0.668,-0.157,0.305,0.0,-0.366,1
0.520416,0.728,0.669,-0.155,0.671,-0.122,-0.427,1
0.528587,0.725,0.666,-0.158,0.549,0.0,-0.244,1
0.537469,0.727,0.667,-0.156,0.488,-0.366,-0.183,1
0.5443,0.728,0.666,-0.158,0.732,-0.488,-0.183,1
0.553196,0.732,0.666,-0.158,0.976,-0.488,0.061,1
0.559676,0.73,0.672,-0.159,0.976,-0.732,0.305,1
0.568678,0.735,0.672,-0.153,0.366,-0.671,0.183,1
0.576614,0.736,0.675,-0.151,-0.061,-0.854,0.122,1
0.584836,0.736,0.675,-0.146,-0.427,-0.854,0.305,1
0.593061,0.733,0.672,-0.138,-0.244,-0.976,0.549,1
0.599845,0.736,0.669,-0.133,-0.122,-0.732,0.549,1
0.607404,0.73,0.672,-0.132,-0.061,-0.61,0.61,1
0.615282,0.733,0.671,-0.131,0.549,-0.488,0.671,1
0.62308,0.731,0.665,-0.129,1.22,-0.488,0.549,1
0.630256,0.732,0.672,-0.137,1.586,-0.183,0.732,1
0.638967,0.738,0.674,-0.142,1.647,-0.122,0.976,1
0.645112,0.74,0.677,-0.146,1.464,-0.061,0.854,1
0.653427,0.739,0.686,-0.153,1.403,-0.061,0.915,1
0.661253,0.753,0.691,-0.168,1.831,0.061,0.854,1
0.66929,0.767,0.703,-0.187,1.464,0.0,0.854,1
0.676119,0.78,0.714,-0.195,1.586,-0.732,0.671,1
0.683759,0.787,0.718,-0.2,1.464,-1.037,0.549,1
0.691901,0.788,0.715,-0.202,-0.183,-1.159,0.366,1
0.700728,0.806,0.715,-0.201,-0.366,-1.281,0.244,1
0.707646,0.814,0.725,-0.176,3.723,-2.38,0.305,1
0.715265,0.816,0.709,-0.164,7.385,-2.38,0.427,1
0.722852,0.813,0.709,-0.145,9.826,-2.38,0.671,1
0.731019,0.82,0.719,-0.126,13.305,-2.014,0.854,1
0.740284,0.814,0.73,-0.1,18.493,-1.831,1.159,1
0.747258,0.812,0.739,-0.077,25.756,-0.61,1.464,1
0.754654,0.8,0.751,-0.06,29.846,-0.244,1.647,1
0.763246,0.781,0.758,-0.048,33.081,1.037,1.586,1
0.77058,0.767,0.751,-0.035,34.423,2.136,1.281,1
0.778238,0.77,0.733,-0.035,34.667,4.028,1.22,1
0.786459,0.747,0.709,-0.046,31.066,5.187,1.281,1
0.794592,0.736,0.696,-0.039,26.794,7.141,1.464,1
0.803523,0.707,0.685,-0.045,21.972,8.117,1.831,1
0.810418,0.676,0.674,-0.043,17.211,9.338,2.502,1
0.81774,0.648,0.661,-0.029,14.526,10.742,3.295,1
0.826221,0.651,0.641,-0.015,11.84,11.779,3.967,1
0.834157,0.664,0.625,-0.024,8.056,13.061,4.943,1
0.841154,0.666,0.623,-0.031,3.234,14.465,5.493,1
0.848435,0.645,0.641,-0.038,-0.976,15.38,6.225,1
0.856063,0.641,0.652,-0.061,-5.371,16.784,6.652,1
0.864879,0.645,0.655,-0.073,-9.277,17.272,6.591,1
0.871913,0.641,0.665,-0.089,-12.451,17.578,6.713,1
0.880944,0.634,0.669,-0.107,-16.357,18.005,6.408,1
0.888547,0.629,0.671,-0.129,-19.042,17.944,6.286,1
0.895379,0.624,0.673,-0.142,-20.263,17.639,6.103,1
0.903157,0.636,0.681,-0.153,-18.005,16.723,6.042,1
0.912016,0.65,0.685,-0.157,-12.145,15.502,5.981,1
0.919228,0.663,0.691,-0.158,-6.652,14.465,5.92,1
0.926792,0.663,0.696,-0.167,-2.197,13.732,5.493,1
0.936143,0.669,0.697,-0.184,-1.403,12.512,5.249,1
0.94308,0.672,0.703,-0.191,-2.807,12.268,4.76,1
0.952303,0.677,0.709,-0.204,-4.394,11.291,4.15,1
0.959295,0.69,0.715,-0.215,-4.638,11.047,3.479,1
0.966984,0.697,0.711,-0.223,-4.76,9.582,2.929,1
0.97561,0.709,0.697,-0.235,-5.615,9.094,2.563,1
0.983356,0.725,0.692,-0.234,-6.713,7.812,2.685,1
0.991749,0.734,0.692,-0.241,-6.042,6.53,2.746,1
0.998728,0.749,0.687,-0.239,-3.784,5.31,2.868,1
1.007026,0.757,0.679,-0.249,-2.319,4.028,2.807,1
1.01486,0.749,0.688,-0.247,-2.441,2.807,3.234,1
1.021587,0.745,0.69,-0.247,-2.38,2.014,3.356,1
1.029495,0.753,0.703,-0.237,-1.708,0.976,3.356,1
1.037376,0.754,0.697,-0.225,0.244,-0.122,3.601,1
1.045714,0.753,0.697,-0.221,2.807,-0.915,3.601,1
1.052473,0.752,0.695,-0.215,3.784,-1.708,3.662,1
1.061197,0.753,0.694,-0.207,3.356,-1.831,3.906,1
1.070294,0.761,0.69,-0.195,3.173,-2.38,3.906,1
1.077628,0.758,0.696,-0.177,3.967,-2.502,3.906,1
1.084446,0.754,0.696,-0.171,4.211,-2.746,3.784,1
1.092123,0.745,0.697,-0.167,3.112,-2.685,3.662,1
1.100424,0.732,0.703,-0.165,1.037,-2.624,3.54,1
1.108479,0.72,0.709,-0.157,-0.549,-2.319,3.54,1
1.117327,0.711,0.703,-0.147,-1.586,-2.197,3.479,1
1.123848,0.717,0.704,-0.144,-1.342,-2.014,3.723,1
1.133331,0.711,0.708,-0.133,-0.732,-1.831,3.784,1
1.141003,0.708,0.71,-0.122,0.671,-1.403,4.15,1
1.148224,0.711,0.716,-0.115,2.624,-1.403,4.333,1
1.155598,0.706,0.71,-0.103,3.234,-0.915,4.394,1
1.164199,0.702,0.709,-0.102,3.173,-0.305,4.455,1
1.172892,0.708,0.7,-0.095,2.258,0.732,4.882,1
1.179342,0.714,0.694,-0.097,-0.183,1.464,5.065,1
1.186786,0.718,0.695,-0.092,-3.356,2.502,5.004,1
1.194387,0.711,0.7,-0.089,-5.859,2.99,5.249,1
1.203566,0.703,0.704,-0.094,-6.591,3.784,5.493,1
1.21061,0.697,0.705,-0.1,-7.141,4.394,5.432,1
1.218087,0.687,0.706,-0.106,-7.141,4.943,5.981,1
1.225658,0.672,0.717,-0.11,-7.019,5.798,5.981,1
1.234888,0.67,0.722,-0.122,-6.835,6.042,5.798,1
1.242471,0.667,0.725,-0.128,-7.08,6.591,5.493,1
1.250355,0.663,0.725,-0.133,-7.08,6.958,5.371,1
1.257866,0.659,0.724,-0.139,-6.469,7.446,5.004,1
1.265511,0.67,0.718,-0.139,-5.126,7.568,4.882,1
1.274335,0.662,0.714,-0.15,-3.479,7.69,4.882,1
1.281595,0.664,0.711,-0.154,-1.647,7.568,4.882,1
1.290899,0.657,0.72,-0.155,1.708,7.202,4.821,1
1.297854,0.663,0.715,-0.159,5.676,7.141,4.76,1
1.305371,0.651,0.716,-0.164,8.3,6.835,4.516,1
1.314632,0.654,0.712,-0.159,9.643,6.652,4.455,1
1.321782,0.663,0.705,-0.156,9.826,6.774,4.211,1
1.32999,0.67,0.702,-0.16,7.324,7.141,3.906,1
1.338134,0.651,0.697,-0.155,3.479,7.019,3.845,1
1.34463,0.662,0.703,-0.164,2.075,7.202,3.601,1
1.353719,0.664,0.709,-0.169,1.77,6.835,3.479,1
1.360846,0.658,0.711,-0.177,1.77,6.591,3.234,1
1.368452,0.665,0.711,-0.191,1.281,6.225,2.99,1
1.375743,0.67,0.711,-0.194,0.671,5.92,2.746,1
1.38555,0.668,0.713,-0.201,-0.488,5.554,2.441,1
1.392225,0.665,0.712,-0.204,-1.281,4.821,2.197,1
1.399134,0.672,0.715,-0.208,-0.793,4.028,1.77,1
1.406689,0.675,0.714,-0.212,0.549,3.356,1.525,1
1.415526,0.68,0.716,-0.211,2.136,2.746,1.586,1
1.42245,0.687,0.718,-0.212,3.906,1.953,1.281,1
1.431236,0.685,0.714,-0.209,4.516,1.464,1.098,1
1.438209,0.686,0.713,-0.211,3.479,0.976,1.098,1
1.445487,0.69,0.714,-0.217,1.281,0.549,0.854,1
1.453928,0.69,0.723,-0.219,-1.037,-0.061,0.671,1
1.462911,0.689,0.724,-0.219,-1.892,-0.61,0.61,1
1.470246,0.692,0.729,-0.218,-0.915,-1.159,0.61,1
1.479116,0.696,0.732,-0.218,2.014,-2.197,0.305,1
1.485993,0.702,0.732,-0.208,5.004,-2.99,0.061,1
1.49511,0.699,0.738,-0.21,6.286,-3.479,-0.122,1
1.502031,0.699,0.738,-0.209,6.896,-4.15,-0.671,1
1.511467,0.706,0.739,-0.207,6.652,-4.882,-0.549,1
1.518529,0.7,0.735,-0.203,5.737,-4.943,-1.037,1
1.526325,0.697,0.736,-0.203,4.76,-5.432,-1.098,1
1.534501,0.689,0.733,-0.203,3.051,-5.31,-1.22,1
1.542571,0.689,0.733,-0.2,2.075,-5.554,-1.403,1
1.550006,0.687,0.733,-0.191,1.77,-5.92,-1.342,1
1.559091,0.694,0.73,-0.183,2.502,-6.042,-1.464,1
1.566228,0.694,0.727,-0.17,4.638,-6.286,-1.403,1
1.574269,0.698,0.729,-0.161,7.263,-6.469,-1.159,1
1.583271,0.696,0.72,-0.156,8.178,-6.347,-1.037,1
1.590359,0.698,0.718,-0.149,8.178,-6.225,-1.037,1
1.598404,0.696,0.709,-0.14,7.934,-6.103,-0.732,1
1.606892,0.696,0.704,-0.133,7.385,-5.554,-0.488,1
1.614563,0.691,0.707,-0.126,6.469,-5.126,-0.122,1
1.622935,0.688,0.707,-0.123,5.004,-4.455,-0.061,1
1.629887,0.68,0.712,-0.121,5.065,-4.333,0.122,1
1.637652,0.679,0.713,-0.111,6.53,-3.784,0.61,1
1.646479,0.681,0.713,-0.105,7.446,-3.112,0.61,1
1.655589,0.678,0.711,-0.105,6.591,-2.746,0.976,1
1.663161,0.681,0.712,-0.099,4.638,-1.77,0.732,1
1.670282,0.688,0.715,-0.098,2.929,-0.854,0.732,1
1.678434,0.69,0.721,-0.095,1.831,-0.183,0.793,1
1.684968,0.685,0.719,-0.092,1.586,0.366,0.793,1
1.693706,0.684,0.718,-0.091,1.77,0.976,0.549,1
1.700583,0.683,0.714,-0.088,0.854,1.586,0.427,1
1.707869,0.681,0.715,-0.093,-1.037,2.258,0.61,1
1.717225,0.676,0.716,-0.096,-3.173,3.112,0.61,1
1.724496,0.671,0.718,-0.102,-4.394,4.15,0.671,1
1.733254,0.672,0.72,-0.109,-4.333,4.333,0.793,1
1.740853,0.674,0.722,-0.121,-2.99,4.76,1.159,1
1.748831,0.68,0.721,-0.129,-1.708,5.004,1.22,1
1.757321,0.678,0.722,-0.142,-0.488,4.943,1.159,1
1.764195,0.68,0.717,-0.148,-0.061,5.065,1.342,1
1.773216,0.683,0.716,-0.158,0.305,5.004,1.464,1
1.780599,0.689,0.715,-0.16,0.0,5.004,1.525,1
1.789159,0.693,0.716,-0.163,-0.122,4.76,1.77,1
1.796582,0.692,0.715,-0.169,-1.77,4.76,1.647,1
1.803908,0.69,0.719,-0.181,-5.126,4.882,1.647,1
1.813022,0.684,0.724,-0.189,-7.446,4.516,1.586,1
1.820536,0.68,0.732,-0.196,-8.117,4.211,1.525,1
1.827709,0.68,0.733,-0.203,-7.507,3.906,1.159,1
1.835621,0.671,0.731,-0.208,-5.554,3.356,1.403,1
1.844292,0.666,0.73,-0.208,-3.173,2.929,1.525,1
1.851579,0.662,0.722,-0.208,-0.976,2.502,2.014,1
1.860695,0.664,0.725,-0.207,-0.671,2.563,2.075,1
1.867571,0.674,0.729,-0.201,0.061,2.258,2.136,1
1.87549,0.683,0.734,-0.196,0.793,2.014,2.197,1
1.884178,0.693,0.735,-0.194,1.22,2.258,2.258,1
1.891245,0.697,0.741,-0.193,0.732,2.197,2.136,1
1.899838,0.693,0.74,-0.193,-0.793,2.014,2.136,1
1.906365,0.696,0.744,-0.205,-3.234,2.197,1.953,1
1.915216,0.695,0.743,-0.218,-5.859,2.014,1.525,1
1.923042,0.702,0.75,-0.225,-7.446,1.525,1.098,1
1.930961,0.707,0.758,-0.227,-8.422,0.854,1.098,1
1.938313,0.703,0.752,-0.229,-7.507,0.305,0.732,1
1.947095,0.707,0.755,-0.222,-5.615,-0.854,0.61,1
1.955116,0.704,0.753,-0.22,-2.929,-1.586,0.305,1
1.963795,0.703,0.749,-0.215,-1.464,-2.624,0.0,1
1.972477,0.694,0.741,-0.211,-0.976,-3.051,-0.122,1
1.980729,0.696,0.735,-0.202,-1.281,-3.479,0.061,1
1.989096,0.699,0.735,-0.187,-0.915,-3.417,0.0,1
1.997101,0.692,0.736,-0.18,0.976,-3.784,-0.122,1
2.005509,0.694,0.729,-0.175,2.136,-3.845,-0.122,1
2.013996,0.699,0.725,-0.174,2.136,-3.967,0.0,1
2.020942,0.695,0.714,-0.166,1.647,-3.845,0.122,1
2.029525,0.702,0.716,-0.162,0.549,-4.394,-0.061,1
2.036943,0.698,0.712,-0.152,0.0,-4.516,-0.183,1
2.045588,0.694,0.704,-0.134,-1.586,-4.455,0.427,1
2.05312,0.692,0.684,-0.114,-4.211,-4.089,0.671,1
2.059983,0.705,0.709,-0.09,-5.187,-3.54,0.915,1
2.069696,0.675,0.702,-0.068,-2.502,-3.295,0.976,1
2.076078,0.706,0.687,-0.037,-6.103,-1.77,2.258,1
2.084246,0.696,0.707,-0.011,-3.906,-1.464,1.647,1
2.091975,0.644,0.641,0.039,-1.831,0.0,2.685,1
2.098861,0.735,0.694,0.057,-5.31,2.624,3.051,1
2.106251,0.699,0.708,0.079,-2.441,2.624,2.807,1
2.113928,0.627,0.644,0.109,-1.22,6.103,3.784,1
2.122084,0.727,0.707,0.117,-3.173,8.483,3.051,1
2.130231,0.683,0.713,0.132,0.183,8.972,2.685,1
2.138529,0.684,0.703,0.142,2.624,12.451,2.502,1
2.145587,0.679,0.706,0.135,-1.098,13.977,2.258,1
2.153426,0.669,0.701,0.158,-3.295,17.211,2.197,1
2.1607,0.607,0.638,0.161,-9.033,20.08,3.051,1
2.168251,0.724,0.702,0.182,-12.451,24.414,3.173,1
2.175636,0.646,0.7,0.169,-1.22,24.353,2.868,1
2.18453,0.635,0.694,0.203,12.756,27.954,3.173,1
2.191492,0.617,0.661,0.154,15.563,29.724,3.54,1
2.198954,0.602,0.651,0.172,13.244,33.508,3.784,1
2.206335,0.592,0.647,0.155,10.131,37.231,4.516,1
2.215304,0.573,0.644,0.148,6.347,41.259,5.126,1
2.222831,0.543,0.642,0.119,1.586,45.593,5.737,1
2.230838,0.525,0.645,0.084,-3.173,49.499,6.408,1
2.237858,0.506,0.644,0.046,-7.751,54.443,7.019,1
2.246068,0.485,0.648,0.005,-10.375,58.166,7.995,1
2.253531,0.472,0.647,-0.062,-12.878,62.377,8.728,1
2.262026,0.451,0.64,-0.12,-17.395,65.979,9.46,1
2.269355,0.418,0.651,-0.189,-23.315,69.824,10.681,1
2.277691,0.389,0.654,-0.256,-27.954,72.753,11.535,1
2.285518,0.371,0.646,-0.341,-33.508,75.866,12.39,1
2.293802,0.329,0.643,-0.408,-37.292,78.063,13.427,1
2.301352,0.33,0.637,-0.487,-40.71,80.078,14.526,1
2.310236,0.302,0.643,-0.594,-45.654,81.298,15.686,1
2.317776,0.266,0.652,-0.691,-49.926,81.298,16.601,1
2.326617,0.237,0.659,-0.799,-53.894,80.871,17.15,1
2.333604,0.205,0.67,-0.894,-58.593,79.589,17.822,1
2.342536,0.172,0.669,-1.004,-64.453,77.819,18.005,1
2.349194,0.116,0.665,-1.109,-72.448,74.523,18.31,1
2.358457,0.119,0.639,-1.244,-81.115,71.533,19.042,1
2.36561,0.065,0.626,-1.37,-89.721,65.673,20.507,1
2.374222,0.056,0.609,-1.52,-91.979,59.875,22.705,1
2.381422,0.031,0.58,-1.718,-98.754,50.781,25.451,1
2.390542,0.003,0.545,-1.903,-111.083,42.419,28.137,1
2.399115,-0.004,0.518,-2.079,-124.084,32.47,31.555,1
2.405621,-0.001,0.498,-2.239,-129.089,18.432,36.376,1
2.41453,0.017,0.456,-2.364,-124.633,4.333,40.649,1
2.422493,0.02,0.423,-2.464,-115.966,-10.559,45.41,1
2.430531,0.03,0.37,-2.564,-107.482,-29.113,51.574,1
2.437956,0.028,0.332,-2.604,-103.088,-45.227,57.434,1
2.447433,0.02,0.298,-2.614,-97.961,-62.561,63.049,1
2.45494,0.046,0.257,-2.625,-88.989,-82.702,70.861,1
2.462096,-0.004,0.227,-2.63,-83.679,-100.341,77.27,1
2.471288,-0.095,0.211,-2.604,-83.251,-119.567,85.998,1
2.478818,-0.177,0.205,-2.572,-87.158,-134.887,93.2,1
2.486569,-0.311,0.229,-2.516,-90.332,-149.78,100.891,1
2.495628,-0.431,0.269,-2.444,-88.745,-167.053,109.619,1
2.504141,-0.538,0.307,-2.356,-84.045,-181.884,116.943,1
2.510925,-0.669,0.37,-2.226,-79.284,-198.12,124.938,1
2.520234,-0.782,0.434,-2.112,-74.584,-211.242,131.042,1
2.528004,-0.893,0.502,-1.989,-67.993,-225.83,137.39,1
2.53725,-1.013,0.57,-1.859,-62.744,-237.976,142.333,1
2.545141,-1.105,0.626,-1.744,-59.936,-250.915,146.972,1
2.552319,-1.195,0.686,-1.623,-61.401,-260.681,150.756,1
2.561026,-1.288,0.764,-1.479,-65.49,-270.507,154.785,1
2.568192,-1.333,0.877,-1.308,-64.208,-279.113,157.531,1
2.577058,-1.39,0.999,-1.103,-56.457,-286.926,159.729,1
2.584662,-1.432,1.095,-0.939,-54.016,-293.212,160.339,1
2.5932,-1.466,1.258,-0.693,-49.316,-299.438,160.522,1
2.602246,-1.478,1.418,-0.471,-37.597,-303.649,159.484,1
2.609616,-1.478,1.587,-0.229,-20.08,-307.678,156.311,1
2.619108,-1.445,1.717,-0.054,-9.948,-309.753,151.611,1
2.627903,-1.452,1.902,0.189,-2.441,-311.767,144.836,1
2.635443,-1.407,2.1,0.455,8.544,-310.607,135.253,1
2.642472,-1.362,2.235,0.653,17.822,-308.288,125.61,1
2.650642,-1.32,2.321,0.831,21.789,-304.26,114.562,1
2.658984,-1.258,2.376,0.988,15.808,-296.936,102.05,1
2.667274,-1.143,2.393,1.148,1.586,-286.01,87.768,1
2.674466,-1.036,2.413,1.304,-11.23,-276.672,75.805,1
2.683333,-0.944,2.404,1.444,-19.531,-262.634,62.377,1
2.692228,-0.85,2.304,1.503,-39.123,-251.037,52.246,1
2.699305,-0.354,2.422,1.663,-75.988,-230.957,42.419,1
2.708716,-0.521,2.401,1.634,-45.654,-228.637,33.02,1
2.716602,-0.47,2.337,1.673,-20.385,-213.745,23.376,1
2.724928,-0.349,2.25,1.64,-30.822,-203.918,10.864,1
2.731656,-0.274,2.173,1.636,-43.457,-186.767,0.122,1
2.740784,-0.168,2.099,1.549,-56.396,-178.222,-8.911,1
2.748228,-0.079,2.001,1.491,-59.631,-168.212,-16.845,1
2.756792,0.036,1.867,1.425,-57.189,-160.705,-25.329,1
2.764305,0.105,1.716,1.433,-49.255,-152.832,-32.165,1
2.771882,0.159,1.571,1.45,-46.325,-145.69,-37.231,1
2.781292,0.217,1.427,1.458,-47.424,-137.207,-41.198,1
2.787712,0.276,1.297,1.459,-49.072,-128.845,-44.006,1
2.794632,0.324,1.184,1.44,-48.034,-120.239,-45.654,1
2.802291,0.374,1.088,1.399,-46.508,-111.999,-46.813,1
2.809162,0.422,0.991,1.331,-45.166,-105.895,-47.302,1
2.816733,0.473,0.907,1.269,-46.02,-98.205,-47.424,1
2.82484,0.526,0.84,1.18,-46.997,-91.857,-47.363,1
2.831906,0.556,0.779,1.148,-42.053,-87.097,-46.447,1
2.838728,0.582,0.708,1.088,-35.888,-82.275,-45.654,1
2.846302,0.585,0.645,1.051,-32.287,-79.04,-44.494,1
2.853166,0.584,0.593,1.023,-28.686,-73.791,-42.968,1
2.860935,0.59,0.541,0.971,-27.343,-69.519,-41.015,1
2.869395,0.593,0.5,0.937,-26.062,-65.063,-38.635,1
2.876141,0.604,0.465,0.902,-23.01,-61.035,-36.01,1
2.884249,0.609,0.439,0.879,-19.287,-57.983,-33.752,1
2.890609,0.622,0.415,0.848,-17.211,-53.71,-30.517,1
2.898808,0.631,0.392,0.817,-18.859,-49.438,-27.16,1
2.905371,0.638,0.387,0.764,-22.216,-44.799,-23.864,1
2.913523,0.637,0.392,0.731,-23.864,-40.893,-20.385,1
2.921642,0.644,0.399,0.693,-23.498,-37.475,-16.906,1
2.928276,0.646,0.421,0.656,-20.996,-34.606,-13.61,1
2.936373,0.647,0.441,0.631,-17.456,-31.921,-10.131,1
2.942991,0.654,0.451,0.605,-14.16,-29.235,-7.263,1
2.950363,0.654,0.465,0.575,-11.901,-26.245,-4.577,1
2.958438,0.652,0.482,0.539,-11.047,-23.437,-1.953,1
2.965411,0.652,0.5,0.505,-11.413,-20.568,0.244,1
2.973365,0.647,0.528,0.467,-11.779,-17.883,2.502,1
2.980614,0.64,0.558,0.43,-10.681,-15.563,4.577,1
2.988554,0.641,0.583,0.383,-9.582,-13.305,5.798,1
2.997145,0.635,0.608,0.338,-9.582,-11.169,7.263,1
3.005749,0.63,0.65,0.299,-9.521,-9.704,8.361,1
3.012606,0.625,0.7,0.259,-7.568,-8.666,9.338,1
3.02171,0.61,0.732,0.228,-6.469,-7.568,9.643,1
3.028614,0.61,0.757,0.204,-6.53,-6.958,9.887,1
3.036255,0.606,0.787,0.185,-6.53,-6.286,9.826,1
3.044655,0.608,0.807,0.182,-4.943,-5.493,10.314,1
3.052574,0.609,0.82,0.175,-3.356,-5.126,10.253,1
3.060973,0.608,0.841,0.157,-3.173,-4.455,10.131,1
3.068988,0.605,0.861,0.145,-4.15,-3.723,10.253,1
3.077098,0.607,0.883,0.122,-5.065,-3.295,9.887,1
3.084582,0.595,0.902,0.105,-5.92,-3.051,9.216,1
3.09347,0.595,0.918,0.098,-6.042,-3.051,8.361,1
3.099996,0.592,0.927,0.095,-5.249,-2.868,7.751,1
3.10903,0.597,0.935,0.1,-3.295,-2.441,6.774,1
3.116748,0.594,0.939,0.108,-0.976,-2.319,5.676,1
3.124103,0.597,0.935,0.11,-0.61,-1.586,4.76,1
3.132813,0.593,0.927,0.114,-1.831,-1.098,4.089,1
3.140077,0.594,0.937,0.106,-3.601,0.183,2.99,1
3.147639,0.591,0.941,0.093,-3.54,0.549,2.075,1
3.156407,0.586,0.94,0.084,-2.441,0.854,0.915,1
3.163178,0.591,0.934,0.068,-2.502,1.403,0.305,1
3.171869,0.589,0.932,0.053,-3.845,1.586,-0.549,1
3.178917,0.592,0.935,0.037,-4.638,1.525,-1.647,1
3.186596,0.595,0.929,0.024,-3.54,1.586,-2.258,1
3.194592,0.6,0.916,0.018,-2.685,1.403,-2.807,1
3.202656,0.599,0.901,0.018,-2.197,1.098,-3.173,1
3.209984,0.602,0.896,0.011,-2.868,0.854,-3.784,1
3.217884,0.602,0.886,0.014,-4.15,0.915,-4.394,1
3.226028,0.603,0.88,0.018,-4.882,0.915,-4.455,1
3.234897,0.599,0.866,0.021,-5.126,0.732,-4.882,1
3.2422,0.598,0.861,0.017,-4.577,0.854,-5.126,1
3.249252,0.597,0.852,0.015,-3.967,0.61,-5.371,1
3.258188,0.593,0.843,0.018,-2.807,0.61,-5.31,1
3.265183,0.591,0.829,0.011,-2.136,0.427,-5.554,1
3.274173,0.585,0.819,0.0,-2.807,0.854,-5.371,1
3.281299,0.586,0.814,-0.013,-4.943,0.549,-5.31,1
3.290067,0.58,0.811,-0.024,-7.385,0.244,-5.187,1
3.297854,0.577,0.811,-0.03,-8.911,0.061,-4.943,1
3.305588,0.574,0.803,-0.021,-8.422,-0.61,-4.699,1
3.314566,0.573,0.795,-0.016,-7.324,-0.854,-4.516,1
3.322043,0.577,0.791,-0.012,-6.652,-1.403,-4.211,1
3.330296,0.576,0.786,-0.007,-6.164,-1.22,-3.784,1
3.339414,0.57,0.782,0.0,-5.126,-1.586,-3.295,1
3.346569,0.57,0.78,0.008,-3.112,-2.075,-2.685,1
3.355761,0.57,0.778,0.013,-1.953,-1.831,-2.319,1
3.362549,0.568,0.77,0.013,-1.831,-1.708,-1.831,1
3.371436,0.566,0.77,0.024,-2.99,-2.014,-1.403,1
3.378989,0.564,0.77,0.025,-4.394,-1.586,-1.159,1
3.386655,0.562,0.766,0.029,-6.164,-1.403,-0.976,1
3.395634,0.562,0.768,0.028,-7.568,-1.281,-0.427,1
3.404173,0.555,0.775,0.025,-9.216,-0.976,-0.183,1
3.411615,0.55,0.783,0.021,-8.85,-1.22,0.366,1
3.420213,0.546,0.787,0.015,-7.873,-1.281,0.61,1
3.428341,0.541,0.791,0.007,-6.164,-1.464,0.732,1
3.435299,0.529,0.79,0.002,-4.516,-1.831,1.037,1
3.442888,0.525,0.791,-0.002,-3.845,-1.77,1.464,1
3.452062,0.529,0.789,0.002,-2.441,-2.197,2.014,1
3.459138,0.532,0.788,0.005,-0.671,-2.624,2.502,1
3.466519,0.539,0.791,0.006,0.915,-3.295,2.99,1
3.474147,0.544,0.791,0.003,2.38,-3.356,3.356,1
3.482975,0.56,0.793,-0.004,3.051,-4.028,3.662,1
3.491107,0.569,0.804,-0.019,2.502,-4.394,3.662,1
3.497815,0.579,0.825,-0.02,2.624,-5.249,2.929,1
3.505624,0.578,0.831,-0.025,3.845,-5.92,2.441,1
3.514435,0.582,0.838,-0.026,5.004,-6.713,1.708,1
3.52145,0.586,0.83,-0.028,5.126,-7.202,1.464,1
3.530743,0.584,0.834,-0.021,4.943,-8.117,0.549,1
3.539311,0.589,0.83,-0.018,5.187,-8.483,0.061,1
3.546218,0.584,0.818,-0.002,5.737,-9.094,-0.366,1
3.553929,0.582,0.811,0.01,7.141,-9.704,-0.549,1
3.563014,0.59,0.812,0.022,8.972,-10.07,-0.854,1
3.570423,0.589,0.81,0.038,10.498,-10.498,-1.098,1
3.579209,0.582,0.8,0.066,11.474,-10.498,-1.098,1
3.585819,0.586,0.8,0.081,11.596,-10.437,-1.098,1
3.593486,0.59,0.798,0.098,10.742,-10.009,-0.915,1
3.603239,0.588,0.8,0.112,8.666,-9.338,-0.793,1
3.610661,0.584,0.801,0.132,5.92,-8.361,-0.549,1
3.617847,0.585,0.793,0.145,3.54,-6.958,-0.427,1
3.627208,0.593,0.8,0.151,1.647,-5.615,0.061,1
3.63492,0.584,0.8,0.154,-0.427,-4.394,0.183,1
3.64092,0.578,0.806,0.155,-1.831,-3.234,0.366,1
3.650056,0.582,0.806,0.157,-1.77,-2.319,0.549,1
3.657313,0.581,0.811,0.152,-1.22,-1.403,1.037,1
3.665039,0.575,0.813,0.151,0.061,-0.244,1.892,1
3.673969,0.575,0.814,0.144,0.488,0.671,2.624,1
3.680898,0.581,0.816,0.14,0.244,1.77,2.99,1
3.6893,0.581,0.826,0.128,-0.671,2.868,3.356,1
3.696124,0.583,0.839,0.115,-1.892,3.662,3.906,1
3.704586,0.588,0.849,0.106,-2.258,4.333,4.15,1
3.7113,0.587,0.857,0.088,-2.563,5.187,4.15,1
3.720623,0.591,0.869,0.083,-2.685,5.554,4.272,1
3.72817,0.593,0.868,0.08,-1.831,6.103,3.845,1
3.737182,0.594,0.872,0.07,-0.732,6.408,3.295,1
3.743982,0.589,0.871,0.064,-0.732,6.713,2.929,1
3.750594,0.577,0.873,0.051,-2.38,7.141,2.563,1
3.759738,0.581,0.877,0.034,-5.004,7.507,1.892,1
3.767383,0.579,0.879,0.013,-7.751,7.812,1.037,1
3.77607,0.586,0.883,-0.006,-10.314,7.751,0.427,1
3.782987,0.585,0.888,-0.016,-12.451,7.751,-0.671,1
3.790789,0.583,0.89,-0.022,-13.854,7.141,-1.22,1
3.798389,0.582,0.89,-0.027,-15.441,6.774,-2.075,1
3.807534,0.583,0.887,-0.026,-17.15,6.347,-2.807,1
3.816082,0.578,0.886,-0.031,-20.202,6.225,-3.723,1
3.824206,0.588,0.892,-0.039,-20.874,5.676,-4.333,1
3.831096,0.593,0.897,-0.038,-18.432,4.882,-4.943,1
3.839546,0.594,0.901,-0.042,-14.892,4.211,-5.493,1
3.847105,0.603,0.9,-0.051,-10.437,3.417,-6.347,1
3.855601,0.604,0.901,-0.05,-7.568,2.075,-6.591,1
3.864837,0.599,0.897,-0.058,-5.92,1.403,-6.896,1
3.872098,0.608,0.896,-0.059,-5.737,0.549,-7.385,1
3.880697,0.614,0.889,-0.061,-5.615,-0.244,-7.812,1
3.890046,0.616,0.884,-0.062,-5.371,-1.22,-8.3,1
3.897034,0.616,0.878,-0.074,-5.859,-2.014,-8.728,1
3.905546,0.613,0.872,-0.063,-5.493,-3.051,-9.155,1
3.914308,0.621,0.86,-0.059,-4.028,-4.272,-9.643,1
3.923489,0.622,0.845,-0.054,-1.464,-5.187,-10.009,1
3.930671,0.615,0.83,-0.044,0.366,-6.225,-10.07,1
3.939635,0.618,0.822,-0.033,1.831,-6.835,-9.765,1
3.947118,0.622,0.813,-0.023,3.112,-7.385,-9.765,1
3.956735,0.619,0.809,-0.01,4.638,-7.751,-9.521,1
3.963599,0.617,0.801,0.003,6.652,-8.056,-9.399,1
3.972241,0.615,0.795,0.014,8.056,-8.178,-9.155,1
3.98018,0.613,0.79,0.023,9.155,-8.239,-8.605,1
3.98811,0.604,0.783,0.031,8.972,-7.751,-8.422,1
3.994333,0.608,0.777,0.045,7.812,-7.629,-7.934,1
4.001927,0.608,0.778,0.049,6.347,-7.141,-7.568,1
4.009628,0.604,0.776,0.052,5.065,-6.896,-7.324,1
4.017623,0.6,0.788,0.055,4.699,-6.164,-6.53,1
4.025362,0.603,0.796,0.061,5.432,-5.798,-6.225,1
4.033674,0.605,0.799,0.067,6.774,-5.493,-6.164,1
4.041604,0.601,0.792,0.067,7.629,-5.187,-5.615,1
4.050624,0.603,0.795,0.071,7.507,-4.455,-5.493,1
4.057697,0.604,0.789,0.071,7.202,-3.906,-5.126,1
4.066177,0.604,0.787,0.074,6.774,-3.112,-5.065,1
4.073657,0.6,0.781,0.076,5.371,-2.197,-4.821,1
4.081275,0.594,0.781,0.079,4.15,-1.403,-4.76,1
4.089263,0.598,0.784,0.073,3.356,-1.159,-4.455,1
4.097661,0.605,0.785,0.069,3.662,-0.366,-4.394,1
4.105058,0.607,0.787,0.06,4.455,0.0,-4.333,1
4.112337,0.601,0.783,0.052,3.54,0.183,-4.211,1
4.121037,0.602,0.782,0.04,1.647,0.671,-3.967,1
4.128892,0.607,0.784,0.033,-0.427,0.793,-4.15,1
4.136466,0.602,0.786,0.026,-2.014,0.976,-4.089,1
4.14401,0.606,0.786,0.012,-2.807,0.549,-3.967,1
4.152628,0.601,0.785,0.012,-2.502,0.61,-3.967,1
4.159828,0.6,0.783,0.008,-0.793,0.122,-4.028,1
4.169358,0.6,0.773,0.006,0.793,-0.244,-3.845,1
4.176658,0.6,0.766,0.007,0.488,-0.305,-3.54,1
4.183831,0.6,0.762,0.0,-1.098,-0.244,-3.54,1
4.193355,0.597,0.77,-0.002,-2.075,-0.366,-2.929,1
4.201178,0.598,0.773,-0.011,-1.892,-1.159,-2.929,1
4.208086,0.594,0.776,-0.021,-1.403,-1.708,-2.807,1
4.216852,0.596,0.78,-0.025,-0.915,-2.38,-2.258,1
4.224029,0.594,0.78,-0.024,-0.854,-2.929,-2.258,1
4.232291,0.597,0.779,-0.024,-0.488,-3.54,-2.075,1
4.241109,0.599,0.77,-0.02,0.305,-4.272,-1.77,1
4.248576,0.601,0.768,-0.024,-0.244,-4.821,-1.403,1
4.257785,0.598,0.772,-0.014,-1.708,-5.187,-1.22,1
4.266157,0.6,0.774,-0.009,-1.953,-5.554,-1.159,1
4.27478,0.604,0.781,-0.009,-1.098,-5.92,-1.098,1
4.282801,0.599,0.783,-0.005,0.244,-6.286,-0.854,1
4.289671,0.598,0.783,0.0,1.342,-6.652,-0.793,1
4.297371,0.6,0.784,0.002,2.136,-7.263,-0.671,1
4.306646,0.601,0.784,0.014,3.54,-7.629,-0.488,1
4.314959,0.603,0.784,0.019,4.882,-8.117,-0.427,1
4.322092,0.601,0.783,0.035,5.004,-8.239,-0.183,1
4.330443,0.6,0.786,0.038,3.356,-8.178,-0.122,1
4.337953,0.603,0.786,0.045,1.098,-7.995,0.0,1
4.346012,0.602,0.792,0.051,0.0,-7.507,0.183,1
4.35411,0.602,0.801,0.054,0.061,-7.507,-0.183,1
4.361872,0.602,0.795,0.065,1.342,-7.507,-0.122,1
4.369961,0.605,0.796,0.067,2.38,-7.324,-0.244,1
4.377074,0.609,0.792,0.064,2.441,-7.202,-0.244,1
4.386393,0.607,0.785,0.069,1.831,-7.263,-0.244,1
4.393398,0.616,0.792,0.072,1.403,-7.08,0.0,1
4.400923,0.614,0.791,0.077,0.671,-7.019,-0.061,1
4.409752,0.618,0.794,0.08,0.244,-6.53,-0.061,1
4.417518,0.622,0.793,0.085,-0.427,-6.286,-0.183,1
4.425228,0.621,0.797,0.087,-0.488,-6.042,-0.122,1
4.433353,0.621,0.796,0.093,0.244,-5.676,0.183,1
4.441738,0.624,0.795,0.093,0.671,-5.493,0.122,1
4.449151,0.618,0.796,0.099,0.976,-5.187,0.122,1
4.457185,0.618,0.794,0.098,1.098,-4.76,0.305,1
4.464242,0.62,0.797,0.105,0.915,-4.394,0.244,1
4.473279,0.623,0.795,0.104,0.183,-3.845,0.183,1
4.480251,0.626,0.795,0.102,-0.427,-3.295,0.061,1
4.488027,0.627,0.796,0.102,-1.586,-2.929,0.122,1
4.495884,0.626,0.797,0.099,-2.563,-2.319,0.061,1
4.505028,0.627,0.799,0.1,-4.15,-1.953,0.061,1
4.511924,0.625,0.803,0.098,-6.042,-1.525,0.0,1
4.520734,0.629,0.809,0.091,-8.117,-0.976,0.0,1
4.528033,0.624,0.813,0.092,-9.399,-0.549,-0.244,1
4.537402,0.623,0.816,0.088,-8.605,-0.488,-0.427,1
4.544431,0.625,0.817,0.084,-6.652,-0.488,-0.732,1
4.553017,0.624,0.816,0.083,-4.577,-0.427,-0.732,1
4.560511,0.621,0.811,0.081,-3.54,-0.366,-0.854,1
4.568957,0.619,0.802,0.079,-3.479,-0.244,-1.037,1
4.576453,0.627,0.797,0.071,-3.601,0.0,-0.793,1
4.585577,0.622,0.801,0.069,-3.784,0.244,-1.159,1
4.592642,0.619,0.795,0.065,-3.601,0.427,-1.159,1
4.601224,0.622,0.794,0.058,-3.479,0.671,-1.098,1
4.609044,0.621,0.792,0.052,-3.417,0.793,-1.037,1
4.617613,0.616,0.796,0.042,-3.723,0.915,-1.159,1
4.625101,0.616,0.797,0.036,-3.723,0.732,-1.22,1
4.631862,0.62,0.797,0.031,-2.868,0.549,-1.22,1
4.639536,0.613,0.791,0.028,-1.892,0.305,-0.915,1
4.648086,0.616,0.789,0.025,-1.403,0.366,-0.854,1
4.657329,0.618,0.789,0.024,-1.342,-0.061,-0.854,1
4.664703,0.621,0.779,0.024,-1.037,-0.366,-0.427,1
4.673565,0.622,0.777,0.024,-1.22,-0.305,-0.488,1
4.68104,0.617,0.775,0.021,-2.014,-0.671,-0.244,1
4.688552,0.614,0.777,0.019,-2.258,-0.976,0.0,1
4.697837,0.621,0.781,0.02,-1.586,-1.159,0.305,1
4.704815,0.618,0.79,0.02,-0.061,-1.281,0.549,1
4.712789,0.61,0.785,0.022,1.647,-1.647,0.427,1
4.72026,0.62,0.788,0.024,2.502,-1.831,0.732,1
4.728443,0.615,0.782,0.028,2.319,-1.953,0.793,1
4.735238,0.609,0.787,0.028,1.525,-2.136,0.854,1
4.744294,0.606,0.791,0.028,0.671,-2.258,0.976,1
4.751075,0.603,0.798,0.029,0.366,-2.197,0.854,1
4.759617,0.609,0.799,0.029,0.0,-2.258,0.61,1
4.766291,0.607,0.796,0.034,0.122,-2.258,0.488,1
4.773756,0.613,0.802,0.033,0.488,-2.624,0.732,1
4.782286,0.611,0.797,0.032,0.305,-2.502,0.427,1
4.788688,0.609,0.801,0.033,0.061,-2.685,0.244,1
4.796291,0.607,0.801,0.032,-0.183,-2.929,0.061,1
4.804236,0.606,0.798,0.036,0.183,-3.051,0.244,1
4.813019,0.607,0.797,0.041,0.61,-3.234,0.122,1
4.82008,0.606,0.793,0.043,0.122,-3.295,0.366,1
4.827065,0.604,0.791,0.049,-1.098,-3.417,0.488,1
4.834377,0.609,0.791,0.047,-1.77,-3.234,0.915,1
4.841802,0.606,0.798,0.052,-1.037,-3.54,0.976,1
4.850184,0.614,0.8,0.063,0.61,-3.417,1.098,1
4.857264,0.615,0.8,0.059,1.525,-3.234,1.037,1
4.866699,0.612,0.8,0.053,1.647,-3.295,1.342,1
4.873463,0.614,0.802,0.054,0.976,-2.99,1.342,1
4.880279,0.615,0.805,0.053,0.61,-2.99,1.464,1
4.887892,0.614,0.814,0.051,0.732,-2.99,1.22,1
4.896857,0.611,0.815,0.05,0.427,-2.99,1.22,1
4.903581,0.613,0.82,0.051,-0.183,-2.99,0.976,1
4.911317,0.613,0.818,0.052,-0.976,-2.929,0.732,1
4.918891,0.616,0.821,0.053,-1.647,-2.868,0.549,1
4.928024,0.616,0.822,0.053,-1.831,-2.563,0.122,1
4.934986,0.617,0.82,0.059,-1.159,-2.563,0.0,1
4.942681,0.617,0.814,0.059,-0.305,-2.38,-0.061,1
4.951709,0.625,0.813,0.057,0.244,-2.319,-0.366,1
4.959443,0.617,0.804,0.054,0.61,-2.441,-0.366,1
4.96683,0.616,0.803,0.055,0.488,-2.441,-0.549,1
4.974953,0.607,0.798,0.049,-0.366,-2.319,-0.671,1
4.984242,0.612,0.794,0.045,-1.159,-2.319,-0.427,1
4.990853,0.604,0.796,0.041,-2.075,-2.319,-0.366,1
5.000042,0.605,0.794,0.037,-2.685,-2.38,-0.244,1
5.007411,0.604,0.797,0.033,-2.197,-2.807,-0.305,1
5.01624,0.607,0.792,0.029,-0.915,-2.807,-0.244,1
5.023166,0.61,0.798,0.029,0.61,-3.295,-0.244,1
5.031899,0.61,0.788,0.028,1.403,-3.54,0.0,1
5.038782,0.607,0.785,0.029,1.159,-3.662,-0.061,1
5.04752,0.609,0.792,0.026,1.22,-3.723,0.244,1
5.054296,0.609,0.792,0.02,1.098,-4.028,0.427,1
5.06272,0.605,0.791,0.012,0.671,-4.272,0.427,1
5.071607,0.603,0.789,0.011,0.183,-4.394,0.366,1
5.078239,0.603,0.785,0.009,-0.366,-4.76,0.488,1
5.086357,0.609,0.78,0.011,-0.244,-4.943,0.549,1
5.09453,0.604,0.783,0.008,-0.122,-5.126,0.549,1
5.103501,0.606,0.778,0.008,0.488,-5.493,0.61,1
5.110756,0.604,0.785,0.004,0.549,-6.164,0.793,1
5.117836,0.602,0.78,0.004,0.061,-6.53,1.037,1
5.127173,0.601,0.779,0.008,-0.61,-6.774,1.098,1
5.134314,0.611,0.781,0.02,-0.732,-7.568,1.159,1
5.142081,0.614,0.779,0.036,-1.403,-8.117,1.159,1
5.1516,0.616,0.771,0.06,-3.662,-8.361,1.22,1
5.158965,0.642,0.769,0.086,-5.31,-8.972,1.525,1
5.166031,0.655,0.766,0.124,-4.821,-9.338,2.197,1
5.174542,0.669,0.754,0.15,-2.441,-9.948,2.38,1
5.181978,0.686,0.738,0.179,0.061,-10.131,2.868,1
5.190509,0.692,0.726,0.204,1.159,-9.887,3.54,1
5.19878,0.671,0.721,0.232,1.586,-9.826,4.516,1
5.205271,0.674,0.715,0.258,2.99,-9.277,5.371,1
5.213313,0.686,0.708,0.3,5.187,-8.789,6.225,1
5.222293,0.687,0.697,0.332,10.253,-8.178,7.324,1
5.230383,0.687,0.689,0.366,14.038,-7.629,8.3,1
5.238124,0.694,0.672,0.403,16.723,-6.042,9.216,1
5.244899,0.692,0.653,0.446,17.272,-4.76,10.437,1
5.253174,0.709,0.638,0.487,16.54,-3.051,11.352,1
5.26085,0.716,0.625,0.521,15.624,-1.342,11.962,1
5.268111,0.736,0.611,0.568,17.333,1.342,12.939,1
5.275704,0.749,0.591,0.616,20.324,3.173,14.16,1
5.284407,0.746,0.572,0.664,24.475,5.676,15.197,1
5.293298,0.743,0.548,0.723,28.381,8.3,16.723,1
5.300113,0.739,0.528,0.774,32.043,11.169,18.371,1
5.307373,0.719,0.492,0.839,32.47,14.77,20.568,1
5.314881,0.728,0.48,0.909,31.188,18.798,22.888,1
5.32308,0.707,0.474,0.987,31.616,22.888,25.451,1
5.329825,0.694,0.472,1.071,33.203,27.587,28.137,1
5.337369,0.68,0.476,1.158,35.034,32.287,31.066,1
5.344821,0.655,0.497,1.266,35.705,37.536,33.752,1
5.353757,0.599,0.54,1.339,35.095,44.128,37.048,1
5.360711,0.542,0.565,1.404,31.616,52.917,40.283,1
5.367377,0.608,0.608,1.474,19.226,61.645,43.151,1
5.376131,0.495,0.73,1.538,23.315,68.969,43.762,1
5.382816,0.44,0.806,1.6,40.954,77.209,45.104,1
5.391365,0.44,0.847,1.622,52.246,85.998,45.959,1
5.399016,0.378,0.917,1.672,53.222,94.482,45.898,1
5.406052,0.315,0.977,1.714,54.199,104.858,45.288,1
5.414779,0.274,1.023,1.74,52.429,114.074,44.067,1
5.421737,0.223,1.074,1.767,46.02,124.755,42.663,1
5.429207,0.123,1.158,1.779,42.907,134.643,40.588,1
5.437579,0.082,1.249,1.78,47.668,144.348,38.085,1
5.445598,0.003,1.316,1.727,53.649,153.076,35.339,1
5.452084,-0.051,1.371,1.685,54.565,163.146,31.249,1
5.461238,-0.105,1.421,1.639,52.124,170.288,27.832,1
5.468542,-0.178,1.455,1.619,48.339,179.992,22.827,1
5.47762,-0.239,1.496,1.581,47.363,188.598,18.798,1
5.484465,-0.309,1.526,1.548,50.598,197.143,13.732,1
5.492054,-0.359,1.534,1.488,54.26,204.65,9.887,1
5.501213,-0.433,1.547,1.426,55.419,211.669,6.286,1
5.508098,-0.499,1.558,1.364,56.64,218.994,3.234,1
5.514991,-0.579,1.591,1.268,58.41,225.646,-0.061,1
5.522693,-0.622,1.618,1.19,61.645,231.079,-3.662,1
5.531292,-0.687,1.648,1.1,65.185,235.839,-7.446,1
5.538545,-0.734,1.674,1.025,72.998,240.539,-11.413,1
5.547093,-0.769,1.682,0.932,83.557,244.14,-14.526,1
5.554592,-0.82,1.67,0.818,88.134,247.863,-16.906,1
5.563855,-0.854,1.673,0.707,80.383,251.77,-19.409,1
5.571636,-0.904,1.703,0.622,72.875,255.371,-22.521,1
5.579443,-0.928,1.726,0.546,73.547,257.385,-24.536,1
5.58886,-0.958,1.74,0.45,79.895,259.887,-27.221,1
5.594873,-1.0,1.77,0.341,87.829,260.986,-29.602,1
5.603139,-1.056,1.796,0.237,100.341,260.681,-31.677,1
5.612328,-1.08,1.805,0.14,119.934,260.559,-33.569,1
5.619932,-1.104,1.785,0.018,130.249,260.681,-34.973,1
5.627839,-1.137,1.784,-0.127,124.816,261.474,-36.071,1
5.635945,-1.166,1.805,-0.219,114.074,262.207,-37.658,1
5.643844,-1.166,1.836,-0.313,107.604,262.573,-39.428,1
5.652222,-1.146,1.837,-0.418,102.722,261.962,-41.87,1
5.66069,-1.152,1.833,-0.484,96.313,260.986,-44.067,1
5.669198,-1.138,1.838,-0.562,94.543,259.277,-46.325,1
5.676016,-1.116,1.82,-0.649,100.891,255.981,-48.278,1
5.684837,-1.081,1.774,-0.755,109.069,251.281,-49.865,1
5.692127,-1.055,1.718,-0.782,118.53,246.398,-50.659,1
5.701142,-1.031,1.653,-0.85,114.135,243.408,-50.781,1
5.709124,-1.001,1.598,-0.964,91.552,240.661,-51.574,1
5.716896,-0.99,1.573,-1.079,65.307,237.548,-53.161,1
5.724274,-0.918,1.555,-1.176,52.368,231.933,-55.114,1
5.733001,-0.854,1.487,-1.253,50.781,223.876,-57.006,1
5.740367,-0.776,1.383,-1.343,46.02,216.43,-57.8,1
5.748007,-0.696,1.29,-1.403,40.832,208.19,-58.044,1
5.756855,-0.606,1.19,-1.46,46.142,197.692,-58.166,1
5.764061,-0.525,1.099,-1.524,53.71,187.622,-57.006,1
5.774161,-0.471,1.002,-1.584,55.603,177.978,-55.664,1
5.781959,-0.4,0.905,-1.629,49.133,167.053,-54.077,1
5.789136,-0.336,0.836,-1.667,41.87,157.409,-52.124,1
5.797576,-0.252,0.764,-1.682,37.78,145.202,-49.926,1
5.805589,-0.189,0.729,-1.675,40.71,134.216,-47.607,1
5.812773,-0.151,0.682,-1.665,44.555,123.657,-45.104,1
5.821648,-0.103,0.64,-1.652,44.86,112.365,-41.992,1
5.829643,-0.056,0.611,-1.63,39.978,103.393,-39.55,1
5.836709,0.007,0.598,-1.571,35.278,94.543,-36.621,1
5.845921,0.046,0.59,-1.5,35.339,84.045,-33.935,1
5.852663,0.101,0.575,-1.429,39.428,75.805,-31.555,1
5.861846,0.134,0.555,-1.342,39.978,68.359,-28.93,1
5.8691,0.166,0.545,-1.243,39.367,61.767,-26.184,1
5.876072,0.199,0.537,-1.129,39.855,56.457,-23.498,1
5.88504,0.217,0.54,-1.045,40.771,51.147,-20.385,1
5.892023,0.249,0.539,-0.99,38.208,47.668,-17.944,1
5.900924,0.255,0.564,-0.916,32.409,44.494,-15.38,1
5.908027,0.266,0.592,-0.863,29.663,41.442,-12.878,1
5.917193,0.273,0.615,-0.812,30.029,39.062,-11.108,1
5.923927,0.278,0.641,-0.774,28.808,37.292,-9.521,1
5.93223,0.295,0.662,-0.75,22.216,35.644,-8.117,1
5.939719,0.299,0.695,-0.714,16.174,34.118,-7.141,1
5.948554,0.307,0.717,-0.684,13.0,32.653,-6.652,1
5.955595,0.298,0.75,-0.642,12.207,31.188,-6.042,1
5.963503,0.31,0.767,-0.629,13.122,29.785,-5.798,1
5.971375,0.328,0.789,-0.616,13.366,28.381,-5.676,1
5.979104,0.354,0.794,-0.635,9.765,27.648,-5.92,1
5.987991,0.359,0.819,-0.649,3.234,26.733,-6.042,1
5.99538,0.359,0.837,-0.655,-1.586,25.146,-6.53,1
6.004736,0.373,0.849,-0.664,-1.525,23.315,-6.896,1
6.011563,0.382,0.841,-0.672,-1.281,21.545,-7.385,1
6.020739,0.394,0.831,-0.668,-2.746,19.165,-7.385,1
6.028078,0.417,0.833,-0.64,-3.784,16.723,-7.629,1
6.037408,0.432,0.824,-0.615,-1.342,14.831,-7.385,1
6.044418,0.44,0.82,-0.601,0.244,12.817,-7.446,1
6.053228,0.444,0.811,-0.585,-0.427,11.596,-7.324,1
6.060206,0.461,0.81,-0.565,-2.929,10.253,-6.652,1
6.067704,0.474,0.813,-0.543,-4.333,9.338,-6.042,1
6.076337,0.477,0.82,-0.527,-5.432,8.483,-5.615,1
6.083755,0.486,0.816,-0.509,-8.544,7.507,-4.821,1
6.092021,0.488,0.819,-0.494,-11.169,6.774,-4.821,1
6.099863,0.505,0.822,-0.474,-12.756,6.469,-4.516,1
6.108633,0.521,0.817,-0.462,-13.427,5.92,-4.272,1
6.117218,0.527,0.807,-0.458,-12.756,5.187,-4.15,1
6.12443,0.531,0.799,-0.458,-11.352,4.516,-4.028,1
6.132729,0.54,0.79,-0.456,-9.521,3.54,-4.333,1
6.139955,0.536,0.784,-0.445,-7.446,2.563,-4.211,1
6.147072,0.533,0.78,-0.437,-4.638,1.464,-4.028,1
6.155205,0.541,0.766,-0.428,-3.723,0.427,-3.601,1
6.164414,0.534,0.769,-0.406,-3.051,-0.122,-3.356,1
6.172897,0.536,0.764,-0.403,-2.685,-0.671,-3.051,1
6.179799,0.53,0.767,-0.388,-2.502,-1.098,-2.746,1
6.189667,0.535,0.767,-0.386,-2.38,-1.708,-2.319,1
6.196477,0.53,0.775,-0.382,-1.708,-2.258,-2.075,1
6.205414,0.525,0.776,-0.377,-0.122,-2.563,-2.136,1
6.21423,0.517,0.777,-0.368,2.258,-3.295,-1.831,1
6.221247,0.512,0.782,-0.355,4.882,-4.211,-1.586,1
6.230027,0.507,0.791,-0.344,8.056,-4.821,-1.342,1
6.238378,0.495,0.795,-0.325,10.07,-5.249,-1.098,1
6.247462,0.488,0.798,-0.32,10.375,-5.065,-1.159,1
6.25444,0.486,0.795,-0.32,7.629,-4.882,-1.586,1
6.263384,0.484,0.796,-0.313,2.38,-4.272,-1.586,1
6.270509,0.487,0.803,-0.308,-0.854,-3.906,-2.075,1
6.27962,0.482,0.803,-0.297,-2.197,-3.601,-2.685,1
6.286742,0.49,0.799,-0.297,-2.258,-3.54,-2.929,1
6.296731,0.493,0.799,-0.282,-0.793,-3.54,-2.929,1
6.304012,0.496,0.796,-0.278,1.953,-3.479,-2.807,1
6.312344,0.505,0.799,-0.274,4.028,-3.112,-2.929,1
6.319123,0.506,0.792,-0.278,4.15,-2.563,-2.685,1
6.326972,0.501,0.795,-0.285,1.77,-1.953,-2.746,1
6.336394,0.505,0.804,-0.291,-0.061,-1.525,-2.99,1
6.343594,0.507,0.812,-0.297,-0.671,-1.037,-3.051,1
6.35227,0.498,0.813,-0.305,-1.098,-0.793,-3.356,1
6.358521,0.497,0.813,-0.317,-3.295,-0.244,-3.601,1
6.367275,0.497,0.818,-0.317,-6.164,-0.183,-3.417,1
6.373841,0.507,0.825,-0.32,-7.568,0.183,-3.906,1
6.382357,0.513,0.825,-0.318,-5.737,0.061,-3.479,1
6.389301,0.529,0.825,-0.317,-3.112,-0.305,-3.906,1
6.39823,0.534,0.824,-0.315,0.0,-0.61,-4.028,1
6.407013,0.547,0.823,-0.318,2.502,-0.854,-4.333,1
6.413901,0.555,0.825,-0.326,4.15,-1.342,-4.516,1
6.42107,0.542,0.824,-0.33,3.906,-1.525,-4.638,1
6.428796,0.545,0.829,-0.345,2.99,-1.403,-5.126,1
6.437148,0.547,0.829,-0.356,0.244,-1.525,-5.371,1
6.445065,0.544,0.837,-0.365,-2.868,-1.586,-6.103,1
6.454064,0.531,0.843,-0.373,-4.638,-1.953,-6.835,1
6.461633,0.525,0.833,-0.37,-4.577,-2.441,-7.324,1
6.47031,0.526,0.828,-0.365,-2.929,-3.112,-7.812,1
6.479015,0.543,0.82,-0.356,-0.305,-3.845,-8.117,1
6.486131,0.546,0.811,-0.346,3.356,-4.699,-8.056,1
6.494957,0.55,0.797,-0.33,5.371,-5.004,-7.995,1
6.501971,0.557,0.787,-0.32,7.385,-5.31,-7.934,1
6.510372,0.566,0.786,-0.309,8.483,-5.187,-7.812,1
6.519226,0.575,0.777,-0.313,7.873,-5.065,-7.568,1
6.526533,0.571,0.777,-0.316,4.516,-4.699,-7.446,1
6.535464,0.57,0.766,-0.31,0.671,-4.394,-7.202,1
6.54289,0.573,0.77,-0.302,-3.234,-3.845,-6.652,1
6.551115,0.578,0.771,-0.294,-3.479,-3.845,-6.347,1
6.560424,0.583,0.772,-0.286,-0.854,-3.723,-6.042,1
6.567622,0.581,0.762,-0.28,1.586,-3.662,-5.737,1
6.576824,0.574,0.749,-0.282,1.342,-3.356,-5.371,1
6.585268,0.565,0.751,-0.274,-1.037,-2.685,-4.882,1
6.59438,0.561,0.754,-0.277,-2.258,-2.319,-4.699,1
6.601581,0.555,0.755,-0.265,-0.976,-1.831,-4.089,1
6.608903,0.551,0.756,-0.273,0.366,-1.708,-3.784,1
6.618281,0.552,0.753,-0.278,0.915,-1.342,-3.479,1
6.625214,0.555,0.756,-0.285,-0.061,-0.671,-3.356,1
6.634251,0.556,0.759,-0.288,-1.098,-0.488,-3.54,1
6.641481,0.554,0.759,-0.29,-1.647,-0.305,-2.99,1
6.649273,0.557,0.755,-0.295,-2.38,0.122,-3.112,1
6.658098,0.552,0.755,-0.294,-2.563,0.244,-3.051,1
6.66571,0.554,0.752,-0.295,-3.234,0.061,-2.746,1
6.674693,0.546,0.757,-0.295,-3.784,0.244,-2.868,1
6.681842,0.541,0.755,-0.3,-3.784,0.244,-2.563,1
6.689563,0.538,0.761,-0.3,-2.38,0.122,-2.441,1
6.697016,0.54,0.759,-0.296,-0.061,-0.122,-2.441,1
6.705267,0.544,0.753,-0.298,1.037,-0.061,-2.319,1
6.714473,0.541,0.748,-0.304,-0.183,0.0,-1.831,1
6.722394,0.545,0.754,-0.306,-1.708,0.244,-1.953,1
6.729721,0.552,0.76,-0.312,-2.014,0.183,-1.77,1
6.738227,0.545,0.765,-0.305,0.244,0.061,-1.708,1
6.745541,0.552,0.77,-0.307,2.197,-0.244,-1.708,1
6.754409,0.548,0.759,-0.311,2.807,-0.427,-1.77,1
6.762764,0.543,0.759,-0.314,1.159,-0.122,-1.647,1
6.770119,0.547,0.773,-0.313,-0.183,-0.061,-2.014,1
6.778117,0.546,0.771,-0.312,0.549,-0.305,-1.77,1
6.786471,0.551,0.777,-0.307,1.464,-0.488,-1.647,1
6.793901,0.552,0.776,-0.308,2.746,-0.732,-1.892,1
6.801985,0.556,0.779,-0.305,4.089,-0.976,-1.708,1
6.810996,0.561,0.773,-0.309,3.601,-1.098,-1.586,1
6.818156,0.565,0.778,-0.302,2.441,-0.793,-1.403,1
6.82675,0.565,0.779,-0.303,1.159,-0.793,-1.525,1
6.833507,0.565,0.781,-0.3,0.061,-0.549,-1.403,1
6.842801,0.57,0.783,-0.296,-0.549,-0.488,-1.586,1
6.851151,0.568,0.78,-0.301,-0.915,-0.366,-1.708,1
6.858709,0.569,0.775,-0.3,-1.098,-0.305,-1.953,1
6.868021,0.568,0.768,-0.303,-1.098,-0.244,-2.197,1
6.875198,0.564,0.769,-0.302,-0.427,-0.305,-2.136,1
6.883709,0.558,0.764,-0.296,1.22,-0.549,-1.831,1
6.891073,0.551,0.769,-0.292,2.868,-0.671,-1.77,1
6.900149,0.558,0.765,-0.293,4.272,-0.732,-1.647,1
6.908126,0.551,0.772,-0.288,4.333,-0.488,-1.464,1
6.915786,0.551,0.781,-0.285,4.699,-0.183,-1.22,1
6.923968,0.551,0.779,-0.288,4.577,0.183,-0.915,1
6.931596,0.555,0.782,-0.283,3.479,0.305,-1.22,1
6.93923,0.555,0.785,-0.276,2.868,0.549,-0.976,1
6.947035,0.559,0.795,-0.27,3.967,0.976,-0.976,1
6.95637,0.558,0.797,-0.273,5.737,0.915,-1.22,1
6.963243,0.554,0.8,-0.27,6.774,1.098,-1.342,1
6.971901,0.552,0.798,-0.275,6.347,1.525,-1.586,1
6.978801,0.554,0.797,-0.277,5.676,2.197,-1.708,1
6.988185,0.561,0.792,-0.27,4.333,2.746,-2.136,1
6.995347,0.567,0.784,-0.27,3.295,3.234,-2.319,1
7.004021,0.57,0.779,-0.265,3.112,3.479,-2.258,1
7.011115,0.576,0.774,-0.266,2.929,3.906,-2.38,1
7.02046,0.577,0.771,-0.27,1.953,4.333,-2.197,1
7.027195,0.57,0.771,-0.273,-0.549,5.004,-2.197,1
7.035873,0.574,0.772,-0.275,-4.455,5.432,-1.892,1
7.044632,0.567,0.774,-0.288,-7.812,6.164,-1.77,1
7.051408,0.561,0.779,-0.291,-8.483,6.408,-1.831,1
7.059914,0.569,0.782,-0.296,-8.117,6.347,-1.525,1
7.069093,0.57,0.787,-0.298,-5.249,5.981,-1.342,1
7.075274,0.572,0.795,-0.3,-1.342,5.737,-1.525,1
7.083552,0.576,0.795,-0.3,2.197,5.31,-1.464,1
7.090626,0.58,0.784,-0.304,3.601,5.004,-1.281,1
7.098669,0.573,0.786,-0.3,3.112,5.065,-1.403,1
7.10591,0.574,0.782,-0.301,1.22,5.249,-1.525,1
7.113963,0.573,0.785,-0.3,-1.525,5.615,-1.647,1
7.12214,0.563,0.792,-0.304,-2.807,5.981,-1.77,1
7.131981,0.554,0.796,-0.311,-3.845,6.042,-2.014,1
7.138581,0.551,0.799,-0.32,-4.638,6.042,-2.319,1
7.145131,0.549,0.807,-0.322,-4.577,5.615,-2.563,1
7.153465,0.551,0.81,-0.331,-3.54,5.187,-2.868,1
7.162046,0.55,0.808,-0.33,-1.708,4.943,-3.479,1
7.170169,0.548,0.808,-0.332,-0.183,4.882,-3.906,1
7.178697,0.549,0.806,-0.333,2.136,4.516,-4.333,1
7.185143,0.55,0.797,-0.327,2.99,3.723,-4.699,1
7.194323,0.549,0.789,-0.331,2.929,3.601,-4.943,1
7.201404,0.543,0.787,-0.334,2.563,3.234,-5.249,1
7.208412,0.541,0.791,-0.333,2.563,3.356,-5.249,1
7.216391,0.541,0.789,-0.34,2.685,2.868,-5.493,1
7.225619,0.546,0.788,-0.344,2.868,2.746,-5.737,1
7.232195,0.541,0.79,-0.345,2.136,2.38,-5.676,1
7.241064,0.551,0.786,-0.351,0.793,2.319,-5.737,1
7.248243,0.554,0.778,-0.352,-0.244,1.953,-5.92,1
7.256313,0.555,0.772,-0.35,-0.244,1.708,-6.347,1
7.264169,0.555,0.767,-0.354,0.061,1.159,-6.225,1
7.272786,0.553,0.764,-0.349,0.976,1.037,-6.164,1
7.279637,0.553,0.767,-0.343,2.38,0.732,-5.859,1
7.28846,0.548,0.77,-0.344,4.516,0.549,-5.737,1
7.295418,0.548,0.774,-0.346,5.737,0.366,-5.676,1
7.304197,0.548,0.776,-0.344,5.737,0.366,-5.615,1
7.311162,0.556,0.776,-0.346,4.272,0.488,-5.554,1
7.3195,0.556,0.787,-0.351,2.807,0.671,-5.554,1
7.327356,0.559,0.791,-0.353,1.831,0.427,-5.859,1
7.336282,0.559,0.79,-0.352,1.403,0.305,-5.859,1
7.344374,0.557,0.786,-0.349,0.244,0.488,-6.103,1
7.351622,0.554,0.785,-0.354,-0.671,0.488,-5.981,1
7.359538,0.551,0.786,-0.35,-0.976,0.366,-6.042,1
7.368527,0.558,0.782,-0.352,-0.305,0.427,-5.92,1
7.376705,0.56,0.776,-0.357,-0.793,0.671,-6.286,1
7.384766,0.564,0.769,-0.369,-1.953,0.488,-5.798,1
7.393281,0.567,0.767,-0.368,-3.173,0.366,-5.676,1
7.399749,0.574,0.756,-0.373,-4.028,0.122,-5.615,1
7.408149,0.575,0.753,-0.38,-4.394,-0.549,-5.187,1
7.416597,0.58,0.748,-0.374,-3.234,-1.403,-5.004,1
7.425551,0.584,0.749,-0.366,-0.976,-2.319,-4.516,1
7.432896,0.585,0.742,-0.361,1.586,-3.295,-4.211,1
7.442341,0.583,0.735,-0.35,2.014,-3.967,-3.784,1
7.450305,0.578,0.737,-0.341,0.488,-4.394,-3.662,1
7.457606,0.576,0.734,-0.331,-1.525,-4.577,-3.295,1
7.465575,0.578,0.729,-0.317,-2.868,-4.76,-3.356,1
7.474735,0.574,0.726,-0.312,-2.99,-4.76,-3.234,1
7.481772,0.574,0.721,-0.299,-2.502,-4.638,-3.356,1
7.490692,0.577,0.719,-0.294,-0.854,-4.821,-3.234,1
7.498325,0.575,0.727,-0.285,1.708,-5.004,-3.417,1
7.507487,0.58,0.724,-0.287,3.356,-4.943,-2.746,1
7.514238,0.577,0.724,-0.281,4.028,-4.577,-2.624,1
7.523287,0.581,0.725,-0.277,2.929,-4.394,-2.075,1
7.530573,0.585,0.724,-0.276,1.037,-4.089,-1.77,1
7.538781,0.586,0.722,-0.276,-0.122,-3.845,-1.647,1
7.546831,0.589,0.726,-0.264,-0.305,-3.845,-1.647,1
7.554595,0.589,0.726,-0.256,1.281,-3.845,-1.22,1
7.56443,0.59,0.724,-0.253,2.319,-3.662,-0.854,1
7.571234,0.59,0.723,-0.241,2.746,-3.356,-0.549,1
7.580761,0.589,0.729,-0.236,2.807,-2.868,0.122,1
7.587944,0.59,0.735,-0.236,3.662,-2.38,0.366,1
7.596669,0.589,0.737,-0.236,4.699,-1.708,0.488,1
7.605086,0.586,0.743,-0.233,5.249,-1.098,0.549,1
7.612762,0.587,0.744,-0.233,4.821,-0.366,0.61,1
7.62057,0.59,0.742,-0.234,3.417,0.488,0.427,1
7.627795,0.585,0.741,-0.238,2.136,0.915,0.549,1
7.635382,0.584,0.742,-0.24,1.098,1.647,0.61,1
7.644228,0.587,0.754,-0.243,1.464,2.563,0.671,1
7.652076,0.581,0.763,-0.245,2.99,2.624,0.915,1
7.659501,0.583,0.768,-0.251,3.356,3.234,0.854,1
7.666995,0.583,0.771,-0.257,2.258,3.784,0.793,1
7.67462,0.583,0.774,-0.259,-0.122,4.272,0.549,1
7.683172,0.588,0.777,-0.264,-1.647,4.821,0.305,1
7.690703,0.588,0.782,-0.271,-2.441,5.187,0.244,1
7.698361,0.588,0.787,-0.272,-1.953,5.493,-0.061,1
7.707629,0.586,0.792,-0.282,-0.366,5.493,-0.244,1
7.715319,0.576,0.795,-0.296,1.831,5.798,-0.671,1
7.722129,0.573,0.801,-0.302,2.99,6.225,-0.854,1
7.729992,0.574,0.797,-0.307,3.112,6.347,-1.037,1
7.739177,0.578,0.792,-0.311,2.075,6.958,-1.159,1
7.746727,0.587,0.781,-0.314,0.854,7.324,-1.403,1
7.755808,0.597,0.779,-0.317,-1.098,7.629,-1.281,1
7.764684,0.61,0.778,-0.324,-2.624,8.178,-1.525,1
7.771819,0.604,0.789,-0.333,-2.807,7.69,-1.892,1
7.780828,0.599,0.79,-0.349,-2.563,7.507,-1.953,1
7.787391,0.591,0.791,-0.358,-2.624,6.835,-2.014,1
7.796646,0.583,0.793,-0.364,-3.356,6.103,-2.136,1
7.804528,0.582,0.797,-0.365,-2.624,5.615,-2.319,1
7.811606,0.581,0.796,-0.361,-1.22,4.943,-2.624,1
7.820662,0.583,0.791,-0.361,0.854,4.089,-2.929,1
7.828039,0.584,0.785,-0.357,1.831,3.234,-3.173,1
7.834924,0.585,0.787,-0.348,2.746,2.868,-2.99,1
7.842653,0.577,0.792,-0.345,3.662,2.075,-3.112,1
7.851353,0.582,0.799,-0.336,4.577,1.77,-3.54,1
7.858331,0.577,0.799,-0.336,4.821,1.586,-3.967,1
7.866374,0.578,0.8,-0.339,3.906,1.464,-4.577,1
7.875147,0.573,0.799,-0.349,1.464,1.525,-5.126,1
7.882576,0.574,0.791,-0.358,-1.647,1.464,-5.859,1
7.892003,0.574,0.785,-0.362,-5.31,1.586,-5.92,1
7.899187,0.585,0.788,-0.371,-6.469,1.22,-6.713,1
7.9086,0.583,0.795,-0.363,-4.272,0.488,-7.141,1
7.916515,0.584,0.805,-0.364,1.098,-0.671,-7.507,1
7.924721,0.578,0.811,-0.362,4.882,-1.342,-7.812,1
7.933375,0.578,0.806,-0.367,6.652,-2.014,-8.178,1
7.941052,0.575,0.797,-0.368,5.249,-2.38,-8.666,1
7.949125,0.578,0.794,-0.374,3.112,-2.441,-9.033,1
7.957181,0.583,0.791,-0.367,1.586,-2.746,-9.704,1
7.964037,0.584,0.784,-0.369,1.342,-3.173,-10.009,1
7.971976,0.588,0.774,-0.369,1.831,-3.54,-10.498,1
7.979956,0.588,0.761,-0.373,1.77,-3.967,-10.742,1
7.988516,0.582,0.743,-0.367,0.854,-4.272,-10.925,1
7.997107,0.582,0.734,-0.358,-0.366,-4.577,-10.925,1
8.003612,0.581,0.738,-0.353,0.915,-4.76,-10.681,1
8.012182,0.581,0.735,-0.339,3.479,-5.554,-10.253,1
8.019188,0.586,0.729,-0.333,5.676,-5.859,-9.826,1
8.028447,0.586,0.718,-0.325,5.798,-5.92,-9.643,1
8.036998,0.594,0.711,-0.314,3.967,-5.859,-9.094,1
8.044433,0.591,0.703,-0.312,2.014,-5.615,-8.85,1
8.052896,0.595,0.701,-0.301,0.732,-5.554,-8.728,1
8.061609,0.599,0.688,-0.299,0.305,-5.554,-8.056,1
8.068633,0.595,0.693,-0.293,1.708,-5.554,-7.385,1
8.078043,0.594,0.694,-0.282,5.004,-5.798,-6.652,1
8.084362,0.595,0.69,-0.278,6.896,-5.676,-6.164,1
8.093097,0.592,0.687,-0.279,6.958,-5.615,-5.249,1
8.100513,0.593,0.682,-0.275,5.859,-5.493,-4.699,1
8.109987,0.593,0.679,-0.267,3.723,-4.821,-3.906,1
8.116848,0.593,0.673,-0.262,1.77,-4.15,-3.356,1
8.126031,0.596,0.672,-0.256,1.22,-3.784,-2.746,1
8.134397,0.591,0.67,-0.246,0.793,-3.356,-2.197,1
8.140916,0.594,0.675,-0.245,1.953,-2.868,-1.281,1
8.149999,0.597,0.676,-0.244,2.441,-1.77,-0.61,1
8.157292,0.589,0.672,-0.248,1.464,-1.464,-0.183,1
8.164785,0.584,0.675,-0.248,-0.793,-0.488,0.244,1
8.171662,0.59,0.674,-0.254,-3.051,0.244,0.549,1
8.179617,0.594,0.676,-0.249,-3.356,0.854,1.098,1
8.188584,0.601,0.677,-0.247,-2.319,1.098,1.22,1
8.196087,0.603,0.678,-0.245,-0.488,1.403,1.525,1
8.203376,0.602,0.677,-0.248,1.22,1.892,2.136,1
8.211052,0.604,0.676,-0.251,1.464,2.441,2.929,1
8.218622,0.606,0.678,-0.25,0.793,2.868,3.234,1
8.227684,0.604,0.683,-0.246,0.366,3.234,3.723,1
8.234977,0.604,0.689,-0.246,0.244,3.723,4.028,1
8.241866,0.605,0.688,-0.247,0.244,4.15,4.699,1
8.250297,0.608,0.692,-0.244,-0.061,4.516,5.126,1
8.257933,0.608,0.693,-0.234,-0.488,5.126,5.554,1
8.266061,0.607,0.699,-0.222,-0.549,5.737,6.103,1
8.273565,0.604,0.7,-0.21,0.183,6.347,6.469,1
8.282158,0.609,0.704,-0.203,0.915,7.019,6.774,1
8.290525,0.603,0.708,-0.198,0.671,8.3,7.385,1
8.297414,0.6,0.717,-0.185,0.671,9.216,7.69,1
8.304909,0.595,0.731,-0.175,0.793,10.437,7.995,1
8.312589,0.587,0.738,-0.168,1.831,11.718,8.361,1
8.321334,0.572,0.751,-0.155,3.906,13.061,8.666,1
8.328038,0.563,0.76,-0.137,7.141,15.014,9.46,1
8.335782,0.551,0.783,-0.133,11.352,17.15,10.375,1
8.343713,0.524,0.8,-0.136,15.93,19.165,11.413,1
8.352087,0.515,0.818,-0.14,20.08,21.545,12.329,1
8.359504,0.5,0.834,-0.151,22.583,24.597,13.488,1
8.367563,0.498,0.846,-0.159,20.69,27.709,14.282,1
8.374433,0.483,0.854,-0.173,14.526,30.639,14.587,1
8.383153,0.467,0.86,-0.184,5.859,33.63,14.465,1
8.39024,0.444,0.86,-0.197,-3.723,36.621,13.916,1
8.399387,0.417,0.857,-0.216,-13.122,38.818,13.0,1
8.40625,0.388,0.838,-0.246,-23.986,41.748,11.718,1
8.413646,0.362,0.817,-0.279,-34.912,43.884,10.192,1
8.422982,0.332,0.792,-0.322,-47.79,46.264,8.85,1
8.430893,0.318,0.741,-0.386,-63.232,47.973,7.568,1
8.438591,0.257,0.736,-0.445,-74.89,50.17,7.08,1
8.445928,0.228,0.723,-0.508,-77.453,50.292,5.981,1
8.454291,0.156,0.711,-0.584,-76.904,50.842,5.493,1
8.46327,0.145,0.685,-0.666,-76.354,50.048,5.554,1
8.470172,0.134,0.66,-0.743,-77.392,49.438,5.371,1
8.479269,0.132,0.638,-0.832,-78.369,48.339,5.615,1
8.486543,0.125,0.614,-0.907,-80.017,46.447,6.042,1
8.493876,0.122,0.574,-0.992,-83.374,44.433,6.53,1
8.502579,0.112,0.525,-1.097,-88.562,41.809,7.324,1
8.509803,0.093,0.483,-1.184,-92.834,37.963,8.605,1
8.516936,0.084,0.433,-1.288,-95.642,32.714,10.559,1
8.526352,0.058,0.374,-1.377,-97.167,27.343,12.939,1
8.532899,0.042,0.295,-1.466,-99.975,21.789,16.357,1
8.541966,0.042,0.221,-1.562,-106.018,15.869,20.446,1
8.549022,0.042,0.129,-1.693,-115.478,8.178,26.306,1
8.556623,0.035,0.054,-1.826,-123.779,0.61,32.104,1
8.564997,0.012,-0.007,-1.969,-128.356,-8.972,39.55,1
8.573884,-0.042,-0.075,-2.145,-124.267,-22.338,48.767,1
8.58274,-0.092,-0.145,-2.268,-111.022,-36.682,57.739,1
8.59047,-0.043,-0.233,-2.417,-93.566,-53.588,69.396,1
8.599113,-0.08,-0.323,-2.601,-91.369,-71.777,81.97,1
8.608148,-0.162,-0.365,-2.75,-98.022,-90.087,96.313,1
8.616095,-0.261,-0.355,-2.851,-95.642,-110.656,111.389,1
8.624668,-0.349,-0.339,-2.939,-83.801,-128.845,124.084,1
8.632749,-0.517,-0.312,-3.017,-68.664,-148.193,136.779,1
8.641957,-0.75,-0.254,-3.079,-57.922,-169.921,150.939,1
8.649669,-0.972,-0.151,-3.084,-58.105,-190.917,164.428,1
8.658992,-1.141,-0.022,-3.028,-58.41,-208.496,175.109,1
8.668064,-1.303,0.139,-2.917,-53.1,-229.675,185.18,1
8.675237,-1.469,0.303,-2.795,-47.79,-251.159,193.786,1
8.683673,-1.684,0.5,-2.65,-45.043,-272.216,200.195,1
8.691612,-1.872,0.664,-2.524,-45.166,-289.123,204.223,1
8.700373,-2.094,0.856,-2.364,-49.621,-306.884,207.397,1
8.709004,-2.327,1.071,-2.206,-54.931,-323.486,209.35,1
8.71761,-2.511,1.266,-2.044,-54.504,-336.914,210.021,1
8.724862,-2.66,1.437,-1.897,-49.011,-349.914,209.228,1
8.733946,-2.769,1.648,-1.676,-43.151,-366.027,206.542,1
8.741656,-2.883,1.884,-1.402,-32.165,-377.868,203.186,1
8.74933,-2.974,2.192,-1.106,-16.235,-390.38,196.166,1
8.757981,-3.059,2.459,-0.81,-8.789,-398.437,187.499,1
8.766083,-3.05,2.74,-0.478,-11.535,-403.015,176.391,1
8.774596,-2.999,2.964,-0.187,-21.484,-403.259,161.315,1
8.781348,-2.909,3.14,0.0,-28.381,-401.061,146.423,1
8.789021,-2.816,3.271,0.119,-31.982,-399.414,129.943,1
8.796697,-2.701,3.452,0.334,-27.954,-400.695,113.22,1
8.805617,-2.62,3.569,0.623,4.15,-399.902,91.43,1
8.812862,-2.502,3.542,0.804,12.573,-398.071,70.617,1
8.820549,-2.391,3.504,1.152,-4.272,-390.014,49.804,1
8.828556,-2.224,3.443,1.363,-36.01,-377.197,27.954,1
8.836357,-1.963,3.381,1.631,-48.706,-365.905,10.742,1
8.845597,-1.704,3.253,1.935,-44.677,-354.309,-5.126,1
8.853278,-1.5,3.11,2.158,-30.761,-338.317,-23.315,1
8.8615,-1.232,2.833,2.287,-32.653,-321.777,-38.024,1
8.870037,-1.024,2.618,2.328,-50.903,-300.476,-52.734,1
8.876774,-0.855,2.469,2.313,-61.645,-285.095,-63.415,1
8.885988,-0.696,2.318,2.325,-57.983,-270.69,-72.509,1
8.893617,-0.554,2.061,2.217,-64.575,-254.272,-82.458,1
8.901173,-0.392,1.852,2.15,-75.317,-241.577,-88.5,1
8.909475,-0.25,1.604,2.065,-78.125,-230.468,-92.895,1
8.918616,-0.138,1.365,1.975,-75.5,-218.933,-95.275,1
8.925067,-0.067,1.143,1.926,-67.504,-211.608,-95.886,1
8.934557,-0.009,0.912,1.923,-51.94,-203.002,-94.726,1
8.94116,0.026,0.717,1.932,-36.926,-193.847,-91.613,1
8.950485,0.044,0.57,1.97,-28.198,-184.509,-87.951,1
8.957483,0.062,0.429,2.056,-22.277,-174.377,-83.374,1
8.966237,0.1,0.294,2.115,-21.85,-159.729,-76.416,1
8.97531,0.162,0.198,2.147,-26.611,-144.409,-68.908,1
8.982018,0.236,0.132,2.143,-27.404,-130.859,-61.645,1
8.990681,0.316,0.08,2.07,-28.259,-117.98,-54.809,1
8.998549,0.354,0.083,2.004,-25.756,-104.187,-46.813,1
9.006166,0.384,0.101,1.916,-22.766,-93.2,-41.32,1
9.013756,0.398,0.144,1.835,-18.554,-82.885,-36.132,1
9.021805,0.415,0.17,1.766,-14.709,-71.594,-31.188,1
9.03077,0.436,0.199,1.712,-14.038,-61.584,-27.709,1
9.037276,0.451,0.227,1.619,-16.418,-51.391,-24.475,1
9.046663,0.471,0.25,1.54,-23.986,-42.236,-22.155,1
9.054418,0.495,0.293,1.411,-30.334,-31.738,-19.531,1
9.063241,0.538,0.33,1.266,-32.47,-24.353,-17.517,1
9.070367,0.544,0.356,1.151,-30.7,-17.517,-15.624,1
9.078042,0.559,0.362,1.067,-27.343,-12.084,-13.61,1
9.086345,0.558,0.376,0.963,-25.146,-7.141,-11.596,1
9.094142,0.562,0.401,0.88,-25.329,-1.586,-9.033,1
9.103505,0.566,0.415,0.787,-26.855,2.38,-6.713,1
9.110518,0.562,0.452,0.696,-29.052,6.591,-4.455,1
9.1195,0.566,0.488,0.61,-29.602,8.972,-2.258,1
9.127481,0.577,0.536,0.508,-29.663,10.437,-0.732,1
9.135142,0.588,0.564,0.438,-28.503,11.291,1.098,1
9.14336,0.599,0.589,0.372,-26.184,10.803,2.441,1
9.150721,0.597,0.617,0.332,-20.507,10.131,3.601,1
9.158355,0.607,0.629,0.298,-15.502,9.582,4.943,1
9.167058,0.616,0.63,0.281,-14.221,9.399,5.859,1
9.173998,0.626,0.631,0.278,-14.099,9.277,7.08,1
9.181377,0.636,0.639,0.283,-12.817,9.338,7.568,1
9.189597,0.63,0.641,0.296,-10.375,9.887,8.605,1
9.196759,0.639,0.642,0.309,-8.728,10.498,9.399,1
9.204629,0.648,0.648,0.301,-9.399,11.718,10.375,1
9.211928,0.646,0.661,0.297,-10.009,13.183,10.864,1
9.221023,0.654,0.674,0.284,-9.887,14.282,11.962,1
9.228116,0.666,0.693,0.266,-9.399,15.319,12.329,1
9.234867,0.676,0.72,0.249,-7.751,16.479,12.878,1
9.242261,0.687,0.743,0.215,-6.469,17.089,13.427,1
9.249548,0.687,0.764,0.18,-6.408,17.578,13.366,1
9.257759,0.684,0.792,0.154,-5.859,17.822,13.244,1
9.26598,0.696,0.812,0.119,-6.347,17.883,12.817,1
9.272502,0.69,0.829,0.081,-8.178,17.761,11.84,1
9.280794,0.682,0.848,0.055,-9.887,17.15,10.925,1
9.287548,0.68,0.864,0.021,-8.666,16.418,9.643,1
9.295768,0.68,0.875,-0.005,-5.004,15.258,8.483,1
9.303958,0.672,0.876,-0.028,-1.525,13.854,7.141,1
9.310916,0.662,0.872,-0.047,-0.732,12.695,6.225,1
9.319674,0.66,0.866,-0.059,-2.136,11.413,5.371,1
9.327528,0.665,0.862,-0.061,-3.356,9.826,4.577,1
9.334141,0.66,0.863,-0.062,-2.502,8.483,4.272,1
9.341846,0.664,0.866,-0.063,-1.77,6.591,3.662,1
9.350402,0.659,0.865,-0.061,-0.549,5.065,3.234,1
9.358461,0.66,0.865,-0.058,0.671,3.295,2.807,1
9.365357,0.665,0.854,-0.054,1.403,1.525,2.258,1
9.373135,0.668,0.855,-0.053,0.61,0.671,1.892,1
9.38191,0.66,0.86,-0.059,-0.732,-0.671,1.281,1
9.388348,0.654,0.859,-0.056,-1.953,-1.77,1.037,1
9.396969,0.645,0.866,-0.04,-0.61,-3.295,0.549,1
9.405584,0.638,0.863,-0.016,3.54,-5.004,0.244,1
9.413,0.632,0.856,0.003,5.615,-5.92,0.0,1
9.421572,0.63,0.849,0.023,5.554,-6.347,-0.305,1
9.429766,0.617,0.839,0.043,3.784,-6.652,-0.549,1
9.437994,0.608,0.835,0.059,2.014,-6.469,-0.854,1
9.444556,0.607,0.828,0.063,0.061,-6.286,-1.159,1
9.452647,0.604,0.829,0.059,-1.892,-6.225,-1.342,1
9.461795,0.603,0.833,0.057,-2.99,-6.225,-1.831,1
9.469028,0.599,0.839,0.054,-2.441,-6.286,-2.075,1
9.476001,0.601,0.837,0.069,-0.427,-6.652,-2.746,1
9.484382,0.597,0.833,0.069,1.22,-6.713,-2.868,1
9.492621,0.598,0.828,0.073,1.525,-6.774,-3.173,1
9.499294,0.598,0.823,0.078,0.488,-6.042,-3.417,1
9.508079,0.597,0.815,0.076,-1.037,-6.042,-3.601,1
9.51531,0.595,0.811,0.071,-3.173,-5.371,-3.601,1
9.522489,0.6,0.803,0.054,-6.835,-5.249,-3.601,1
9.530698,0.601,0.811,0.048,-8.239,-5.187,-3.662,1
9.538932,0.603,0.821,0.044,-5.92,-5.737,-3.54,1
9.546924,0.606,0.821,0.04,-2.136,-6.591,-3.54,1
9.553483,0.613,0.819,0.033,-0.427,-7.324,-3.54,1
9.560346,0.626,0.812,0.028,-0.366,-7.812,-3.906,1
9.568754,0.641,0.807,0.03,-1.892,-8.666,-3.723,1
9.577395,0.653,0.795,0.041,-3.356,-9.155,-4.211,1
9.585373,0.66,0.785,0.047,-3.723,-9.582,-4.516,1
9.593288,0.669,0.77,0.055,-5.432,-10.314,-4.516,1
9.603037,0.673,0.756,0.061,-6.713,-10.559,-4.699,1
9.610128,0.667,0.745,0.074,-5.859,-10.986,-4.638,1
9.619046,0.663,0.731,0.083,-4.333,-10.925,-4.333,1
9.626414,0.666,0.719,0.089,-3.662,-11.291,-4.272,1
9.633967,0.666,0.708,0.107,-2.868,-11.169,-3.479,1
9.64275,0.666,0.702,0.128,-1.281,-11.169,-2.685,1
9.650124,0.649,0.701,0.152,0.854,-10.864,-1.892,1
9.65789,0.647,0.69,0.163,-0.671,-9.826,-0.671,1
9.666889,0.643,0.7,0.165,-4.394,-8.85,0.305,1
9.674653,0.638,0.716,0.16,-6.469,-8.239,1.037,1
9.682894,0.633,0.731,0.159,-6.835,-7.629,1.708,1
9.689771,0.629,0.741,0.155,-6.958,-7.385,2.075,1
9.698961,0.624,0.746,0.155,-6.286,-6.896,2.136,1
9.706405,0.624,0.745,0.156,-4.638,-6.713,2.014,1
9.713989,0.621,0.743,0.165,-3.784,-6.591,2.014,1
9.721576,0.612,0.734,0.17,-2.075,-6.408,2.197,1
9.730469,0.611,0.729,0.177,-0.976,-6.164,2.38,1
9.737928,0.611,0.733,0.177,-0.305,-5.554,2.868,1
9.744763,0.609,0.728,0.173,-1.586,-5.31,3.356,1
9.755107,0.614,0.74,0.17,-3.173,-4.76,3.234,1
9.761855,0.622,0.752,0.166,-2.868,-4.638,3.54,1
9.770232,0.628,0.759,0.157,-1.342,-4.516,3.356,1
9.777513,0.631,0.758,0.152,-0.305,-4.76,3.234,1
9.785144,0.633,0.758,0.156,0.793,-4.699,2.99,1
9.792854,0.633,0.756,0.163,1.159,-4.455,2.929,1
9.800499,0.636,0.759,0.162,1.647,-4.272,3.051,1
9.808436,0.641,0.755,0.162,1.647,-4.15,2.868,1
9.816099,0.644,0.747,0.162,2.38,-4.272,2.624,1
9.823961,0.639,0.746,0.167,3.295,-3.845,2.807,1
9.831423,0.64,0.743,0.171,5.126,-4.089,2.99,1
9.840786,0.638,0.748,0.173,7.69,-4.211,3.173,1
9.846666,0.632,0.752,0.168,11.047,-3.967,3.234,1
9.855627,0.631,0.75,0.161,12.084,-3.417,3.601,1
9.86365,0.636,0.75,0.15,9.948,-3.234,3.967,1
9.87141,0.64,0.755,0.135,5.798,-3.112,4.455,1
9.878791,0.644,0.771,0.129,2.807,-2.807,4.455,1
9.886279,0.645,0.776,0.135,2.258,-3.112,4.516,1
9.894629,0.648,0.781,0.132,2.075,-3.356,4.638,1
9.902328,0.651,0.78,0.132,0.915,-3.417,4.394,1
9.910944,0.663,0.776,0.135,-0.732,-3.417,4.394,1
9.918074,0.661,0.776,0.137,-1.281,-3.356,4.272,1
9.925506,0.657,0.779,0.144,-0.122,-3.662,4.211,1
9.935572,0.634,0.776,0.146,1.525,-3.417,4.333,1
9.941516,0.661,0.768,0.14,-0.061,-3.479,4.516,1
9.949229,0.65,0.782,0.157,0.305,-3.417,4.638,1
9.958317,0.642,0.787,0.166,3.601,-3.173,4.516,1
9.965254,0.639,0.791,0.166,6.958,-3.112,4.577,1
9.973847,0.631,0.795,0.162,5.859,-2.624,4.882,1
9.981761,0.631,0.793,0.152,1.708,-1.953,4.516,1
9.989289,0.628,0.804,0.147,-3.112,-1.037,4.638,1
9.996523,0.634,0.811,0.142,-7.446,-0.61,4.089,1
