timestamp_s,ax,ay,az,gx,gy,gz,label
0.006129,0.698,0.594,0.402,4.211,0.793,3.173,1
0.012962,0.698,0.597,0.402,3.662,0.671,3.356,1
0.019747,0.696,0.596,0.396,2.746,0.732,3.54,1
0.026791,0.694,0.596,0.395,2.502,0.671,3.479,1
0.033703,0.697,0.596,0.403,2.624,0.732,3.479,1
0.042501,0.7,0.597,0.402,3.112,0.366,3.662,1
0.049141,0.702,0.595,0.404,3.112,0.427,3.723,1
0.055735,0.702,0.6,0.401,2.868,0.366,3.784,1
0.062439,0.707,0.607,0.396,2.014,0.488,3.845,1
0.069385,0.708,0.613,0.395,1.159,0.244,4.028,1
0.077445,0.705,0.618,0.387,0.61,0.305,3.723,1
0.083224,0.701,0.622,0.388,0.122,0.244,3.601,1
0.090846,0.702,0.625,0.385,0.305,0.0,3.54,1
0.099197,0.705,0.632,0.383,0.732,-0.122,3.234,1
0.106104,0.706,0.637,0.381,1.403,-0.244,2.868,1
0.114258,0.711,0.636,0.387,1.525,-0.61,2.807,1
0.121018,0.712,0.634,0.384,1.892,-0.915,2.624,1
0.128146,0.713,0.628,0.381,2.441,-1.159,2.502,1
0.136223,0.709,0.629,0.382,3.051,-1.403,2.441,1
0.142732,0.711,0.625,0.383,3.173,-1.464,2.258,1
0.151055,0.71,0.62,0.387,3.051,-1.77,2.014,1
0.158951,0.711,0.613,0.391,2.563,-2.014,2.014,1
0.165265,0.708,0.612,0.397,2.746,-2.136,2.014,1
0.173202,0.709,0.612,0.403,2.075,-1.953,1.953,1
0.179867,0.707,0.61,0.402,1.708,-1.892,1.892,1
0.187847,0.71,0.611,0.414,1.525,-2.197,1.953,1
0.194735,0.706,0.609,0.424,1.403,-2.014,1.953,1
0.202886,0.708,0.608,0.422,1.281,-1.647,1.953,1
0.209638,0.708,0.613,0.424,1.22,-1.647,2.014,1
0.216868,0.708,0.611,0.427,1.403,-1.403,2.136,1
0.224745,0.708,0.615,0.428,1.098,-1.342,2.014,1
0.232973,0.705,0.614,0.426,0.976,-1.22,1.892,1
0.239434,0.706,0.612,0.419,0.366,-0.915,1.892,1
0.247366,0.703,0.613,0.422,0.183,-0.854,1.892,1
0.25524,0.701,0.615,0.423,0.305,-0.854,1.892,1
0.262491,0.699,0.614,0.421,0.305,-0.61,1.77,1
0.270259,0.698,0.616,0.42,-0.244,-0.61,1.892,1
0.278371,0.7,0.622,0.424,-0.183,-0.366,1.77,1
0.286344,0.699,0.618,0.42,-0.427,-0.488,1.953,1
0.294509,0.701,0.622,0.424,-0.671,-0.427,1.647,1
0.301008,0.706,0.622,0.418,-0.61,-0.305,1.464,1
0.310285,0.707,0.629,0.415,-0.488,-0.244,1.525,1
0.317876,0.706,0.628,0.416,-0.488,-0.183,1.525,1
0.325674,0.708,0.63,0.409,-0.671,-0.305,1.342,1
0.333893,0.705,0.634,0.409,-0.183,-0.244,1.098,1
0.340262,0.708,0.632,0.41,-0.305,0.0,0.976,1
0.349123,0.702,0.631,0.409,-0.488,-0.427,1.098,1
0.357761,0.702,0.628,0.406,-0.305,-0.305,0.671,1
0.364126,0.703,0.631,0.409,-0.183,-0.427,0.366,1
0.372739,0.699,0.628,0.407,-0.183,-0.305,0.549,1
0.38105,0.7,0.63,0.409,-0.427,-0.305,0.183,1
0.387763,0.699,0.629,0.407,-0.366,-0.366,0.183,1
0.396301,0.701,0.626,0.416,-0.244,-0.305,0.061,1
0.404274,0.701,0.627,0.416,0.0,-0.366,-0.061,1
0.411484,0.7,0.622,0.414,0.0,-0.488,0.122,1
0.419056,0.699,0.623,0.413,0.0,-0.61,-0.183,1
0.427583,0.699,0.617,0.414,0.183,-0.305,-0.183,1
0.43488,0.696,0.618,0.413,-0.122,-0.427,-0.366,1
0.443301,0.698,0.614,0.413,0.0,-0.61,-0.549,1
0.452121,0.698,0.608,0.411,0.061,-0.549,-0.366,1
0.458763,0.696,0.608,0.411,-0.061,-0.61,-0.427,1
0.468036,0.696,0.607,0.412,-0.549,-0.793,-0.244,1
0.47574,0.698,0.608,0.415,0.305,-0.732,-0.122,1
0.483258,0.695,0.603,0.41,0.305,-0.488,0.061,1
0.492218,0.696,0.6,0.409,0.122,-0.61,0.305,1
0.499061,0.691,0.598,0.414,-0.427,-0.488,0.183,1
0.508448,0.691,0.599,0.416,-0.366,-0.61,0.244,1
0.515689,0.692,0.597,0.418,-0.488,-0.61,0.366,1
0.523155,0.689,0.6,0.424,-0.976,-0.305,0.549,1
0.530928,0.689,0.599,0.424,-1.098,-0.305,0.671,1
0.539399,0.692,0.6,0.422,-1.037,-0.061,0.854,1
0.546672,0.696,0.597,0.428,-0.61,-0.122,0.854,1
0.55425,0.695,0.596,0.43,-0.061,-0.122,1.22,1
0.563439,0.7,0.598,0.425,-0.122,0.0,1.159,1
0.570691,0.691,0.599,0.417,-0.244,0.366,1.22,1
0.57888,0.693,0.602,0.414,-0.732,0.244,1.342,1
0.586174,0.691,0.605,0.404,-0.61,0.122,1.281,1
0.593989,0.692,0.609,0.397,-0.671,0.183,1.464,1
0.60085,0.696,0.617,0.396,-0.549,0.061,1.403,1
0.609529,0.693,0.615,0.396,-0.671,-0.122,1.281,1
0.61686,0.694,0.61,0.394,-0.488,-0.183,1.281,1
0.62513,0.692,0.615,0.393,-0.854,-0.488,1.342,1
0.632284,0.693,0.616,0.395,-0.732,-0.549,1.403,1
0.639205,0.692,0.62,0.397,-0.427,-0.671,1.403,1
0.647778,0.693,0.617,0.402,-0.488,-0.61,1.464,1
0.654718,0.691,0.618,0.403,-0.488,-0.915,1.342,1
0.662519,0.69,0.619,0.407,-0.366,-0.854,1.281,1
0.669954,0.689,0.615,0.408,0.0,-0.915,1.464,1
0.677689,0.692,0.614,0.416,0.122,-0.793,1.586,1
0.686476,0.688,0.614,0.416,0.366,-0.549,1.525,1
0.693902,0.689,0.613,0.414,0.122,-0.488,1.403,1
0.701989,0.69,0.612,0.414,-0.122,-0.366,1.586,1
0.70856,0.693,0.615,0.412,-0.366,-0.305,1.464,1
0.716136,0.696,0.613,0.409,-0.244,-0.671,1.831,1
0.724354,0.698,0.614,0.408,-0.244,-0.427,1.586,1
0.731776,0.696,0.619,0.406,0.0,-0.427,1.77,1
0.73993,0.694,0.62,0.403,-0.122,-0.488,1.708,1
0.746489,0.695,0.615,0.402,-0.427,-0.549,1.892,1
0.75625,0.694,0.616,0.404,-0.793,-0.671,1.586,1
0.763828,0.691,0.614,0.406,-0.61,-0.793,1.708,1
0.771352,0.695,0.621,0.406,-0.183,-0.915,1.831,1
0.779673,0.696,0.621,0.409,-0.549,-0.854,1.708,1
0.787994,0.696,0.623,0.411,-0.671,-1.037,1.647,1
0.794197,0.697,0.629,0.415,-0.61,-0.976,1.831,1
0.801956,0.7,0.629,0.41,-0.366,-0.976,1.403,1
0.809042,0.697,0.627,0.41,0.0,-0.915,1.708,1
0.817114,0.695,0.637,0.406,-0.244,-0.854,1.647,1
0.825316,0.695,0.643,0.396,-1.098,-0.854,1.281,1
0.833116,0.687,0.65,0.4,-1.342,-1.22,1.098,1
0.840166,0.695,0.653,0.402,-0.183,-1.22,0.976,1
0.847945,0.692,0.643,0.406,0.61,-1.464,0.488,1
0.855702,0.694,0.638,0.409,1.098,-1.464,0.549,1
0.863912,0.692,0.63,0.413,1.342,-1.464,0.427,1
0.871834,0.694,0.635,0.414,0.793,-1.22,0.305,1
0.878273,0.69,0.641,0.416,-0.61,-1.098,0.244,1
0.886643,0.695,0.645,0.417,-1.22,-1.403,0.427,1
0.893007,0.691,0.651,0.422,-0.854,-1.342,0.061,1
0.901209,0.693,0.644,0.423,0.061,-1.342,-0.183,1
0.908038,0.694,0.64,0.423,0.793,-1.281,-0.061,1
0.915978,0.695,0.636,0.43,1.098,-1.037,-0.305,1
0.922735,0.691,0.637,0.426,0.915,-0.915,-0.305,1
0.92963,0.691,0.637,0.431,0.427,-0.854,-0.183,1
0.938131,0.689,0.638,0.433,0.244,-0.976,-0.305,1
0.946356,0.687,0.642,0.432,0.183,-0.549,-0.671,1
0.953504,0.69,0.64,0.432,0.854,-0.549,-0.61,1
0.961291,0.689,0.638,0.429,1.098,-0.61,-0.793,1
0.968804,0.692,0.631,0.432,0.976,-0.305,-1.098,1
0.97807,0.687,0.626,0.433,1.098,-0.488,-1.159,1
0.985476,0.69,0.62,0.434,0.549,-0.183,-0.915,1
0.992647,0.687,0.619,0.426,0.244,0.061,-0.915,1
1.000412,0.687,0.618,0.426,-0.488,-0.183,-1.281,1
1.009276,0.69,0.618,0.423,0.183,0.122,-0.854,1
1.016728,0.691,0.615,0.424,0.366,0.061,-1.098,1
1.023471,0.692,0.613,0.417,0.427,0.061,-1.037,1
1.031685,0.689,0.614,0.418,0.427,0.244,-0.854,1
1.038672,0.689,0.611,0.417,0.244,0.244,-0.854,1
1.046669,0.688,0.607,0.42,0.366,0.183,-0.671,1
1.055196,0.688,0.613,0.427,0.427,0.183,-0.732,1
1.06152,0.694,0.613,0.418,0.915,0.0,-0.549,1
1.069717,0.691,0.609,0.418,0.915,0.244,-0.549,1
1.078595,0.692,0.609,0.422,0.671,0.122,-0.488,1
1.085963,0.689,0.61,0.42,0.549,0.427,-0.549,1
1.092869,0.689,0.607,0.411,0.122,0.366,-0.183,1
1.100482,0.686,0.606,0.411,0.061,0.366,-0.183,1
1.109442,0.683,0.612,0.407,-0.366,0.183,-0.244,1
1.116437,0.687,0.612,0.4,-0.427,0.366,-0.244,1
1.126113,0.691,0.611,0.399,-0.183,-0.061,-0.183,1
1.132455,0.693,0.609,0.398,0.183,0.061,-0.061,1
1.142064,0.692,0.613,0.396,0.061,-0.305,0.0,1
1.14728,0.691,0.618,0.391,-0.244,-0.488,0.122,1
1.15615,0.693,0.614,0.396,0.244,-0.183,0.305,1
1.163448,0.693,0.613,0.395,0.122,-0.488,0.0,1
1.171147,0.692,0.614,0.393,0.183,-0.61,0.244,1
1.177939,0.689,0.608,0.393,0.244,-0.671,0.244,1
1.186096,0.694,0.606,0.397,0.244,-0.915,0.244,1
1.193863,0.692,0.608,0.407,-0.061,-1.037,0.366,1
1.20235,0.692,0.604,0.414,0.0,-1.22,0.244,1
1.209002,0.687,0.604,0.415,0.244,-1.159,0.427,1
1.215984,0.685,0.604,0.418,-0.061,-1.098,0.549,1
1.224208,0.683,0.604,0.422,-0.122,-1.22,0.732,1
1.232012,0.687,0.61,0.429,-0.427,-0.732,0.61,1
1.239113,0.688,0.615,0.429,-0.366,-0.915,0.854,1
1.246971,0.692,0.614,0.428,-0.305,-0.427,0.61,1
1.255199,0.693,0.622,0.42,-0.427,-0.549,0.732,1
1.262624,0.695,0.623,0.415,-0.671,-0.488,0.732,1
1.271308,0.694,0.625,0.41,-0.671,-0.427,0.854,1
1.277562,0.694,0.628,0.403,-0.549,-0.427,0.732,1
1.284479,0.694,0.633,0.402,-0.427,-0.61,0.488,1
1.292992,0.693,0.635,0.401,-0.061,-0.854,0.366,1
1.300273,0.692,0.633,0.403,0.366,-0.915,0.366,1
1.306926,0.69,0.632,0.408,0.183,-1.098,0.366,1
1.315015,0.689,0.627,0.411,0.061,-1.098,0.061,1
1.322913,0.688,0.627,0.414,0.183,-1.281,-0.122,1
1.329465,0.688,0.626,0.416,0.366,-1.098,-0.061,1
1.337783,0.687,0.623,0.424,0.244,-0.976,-0.061,1
1.346031,0.684,0.622,0.419,0.061,-0.793,-0.061,1
1.353726,0.685,0.621,0.423,-0.61,-0.793,0.244,1
1.361675,0.684,0.62,0.426,0.061,-0.915,0.122,1
1.368581,0.687,0.619,0.429,0.976,-0.61,0.122,1
1.377054,0.686,0.616,0.428,0.549,-0.549,0.183,1
1.38372,0.684,0.615,0.42,0.122,-0.488,0.061,1
1.391427,0.688,0.62,0.426,0.0,-0.427,0.427,1
1.400423,0.686,0.619,0.422,0.061,-0.244,0.366,1
1.406655,0.69,0.618,0.416,-0.305,-0.183,0.244,1
1.415311,0.692,0.626,0.417,-0.549,-0.244,0.427,1
1.421889,0.693,0.625,0.416,-0.366,-0.305,0.0,1
1.429469,0.695,0.625,0.415,-0.183,-0.244,0.061,1
1.438136,0.692,0.628,0.413,-0.183,-0.549,0.061,1
1.446088,0.691,0.63,0.413,-0.366,-0.427,-0.061,1
1.452774,0.692,0.629,0.415,0.0,-0.732,0.244,1
1.46036,0.692,0.626,0.414,0.061,-0.61,-0.061,1
1.468512,0.692,0.62,0.415,0.061,-0.671,-0.305,1
1.476381,0.69,0.623,0.415,0.061,-0.732,-0.122,1
1.48449,0.688,0.623,0.411,0.061,-0.671,-0.305,1
1.492875,0.694,0.625,0.416,0.183,-0.488,-0.305,1
1.500967,0.69,0.625,0.416,-0.183,-0.732,-0.305,1
1.507675,0.692,0.626,0.418,0.0,-0.549,-0.183,1
1.516935,0.69,0.624,0.417,-0.366,-0.854,-0.244,1
1.523477,0.689,0.626,0.416,-0.305,-0.793,-0.305,1
1.531749,0.689,0.626,0.415,0.122,-0.61,-0.488,1
1.54045,0.688,0.62,0.412,0.305,-0.732,-0.366,1
1.547004,0.689,0.618,0.409,0.122,-0.61,-0.488,1
1.555022,0.689,0.616,0.415,0.061,-0.488,-0.427,1
1.563415,0.69,0.615,0.414,0.122,-0.793,-0.244,1
1.569549,0.688,0.614,0.416,0.244,-0.854,-0.488,1
1.57753,0.691,0.612,0.417,0.0,-0.793,-0.305,1
1.58516,0.685,0.615,0.415,-0.244,-0.793,0.061,1
1.59312,0.681,0.615,0.414,-0.488,-0.915,-0.061,1
1.601241,0.678,0.616,0.415,-0.366,-0.976,-0.061,1
1.609648,0.676,0.611,0.418,-0.244,-0.732,-0.061,1
1.618355,0.684,0.613,0.416,0.0,-0.793,0.183,1
1.624941,0.684,0.615,0.418,-0.244,-0.793,0.122,1
1.633929,0.69,0.618,0.417,-0.61,-0.793,0.183,1
1.641397,0.687,0.626,0.419,-0.854,-0.732,0.305,1
1.649629,0.687,0.632,0.409,-0.793,-0.488,0.183,1
1.656909,0.689,0.638,0.414,-0.854,-0.732,0.061,1
1.664123,0.692,0.643,0.414,-0.732,-0.671,-0.122,1
1.672934,0.69,0.642,0.412,-0.549,-0.488,-0.183,1
1.68123,0.691,0.638,0.406,-0.427,-0.549,-0.427,1
1.689673,0.692,0.635,0.404,-0.183,-0.793,-0.427,1
1.697557,0.694,0.636,0.398,-0.061,-0.854,-0.732,1
1.706085,0.694,0.637,0.396,-0.183,-1.159,-0.671,1
1.713737,0.698,0.633,0.399,0.366,-1.525,-1.037,1
1.721023,0.699,0.624,0.406,0.488,-1.342,-0.976,1
1.729305,0.7,0.62,0.407,0.854,-1.647,-0.915,1
1.7369,0.692,0.617,0.411,0.793,-1.464,-1.037,1
1.745409,0.686,0.613,0.412,0.671,-1.647,-0.976,1
1.752538,0.686,0.609,0.41,0.915,-1.708,-1.098,1
1.761109,0.682,0.599,0.42,1.037,-1.831,-0.915,1
1.768987,0.683,0.591,0.419,0.488,-1.708,-0.671,1
1.775336,0.681,0.589,0.423,-0.122,-1.77,-0.427,1
1.783526,0.68,0.591,0.417,-0.793,-1.586,0.0,1
1.79208,0.676,0.591,0.418,-1.037,-1.342,0.244,1
1.799985,0.678,0.598,0.417,-0.976,-1.403,0.366,1
1.808031,0.681,0.598,0.414,-0.854,-1.342,0.732,1
1.814886,0.679,0.605,0.415,-0.793,-1.342,0.854,1
1.824414,0.684,0.608,0.421,-0.549,-1.525,0.854,1
1.830774,0.686,0.613,0.417,-0.671,-1.464,0.671,1
1.8382,0.68,0.612,0.418,-0.61,-1.464,0.61,1
1.846955,0.683,0.604,0.417,-0.915,-1.525,0.915,1
1.854045,0.684,0.603,0.412,-1.098,-1.464,0.61,1
1.861485,0.685,0.602,0.414,-0.732,-1.525,0.854,1
1.869019,0.683,0.596,0.413,-0.915,-1.464,1.037,1
1.876535,0.684,0.587,0.409,-0.915,-1.464,0.976,1
1.884889,0.685,0.583,0.409,-0.915,-1.647,1.22,1
1.892744,0.683,0.582,0.405,-1.098,-1.708,1.525,1
1.901462,0.683,0.581,0.407,-1.647,-1.586,1.77,1
1.909809,0.685,0.579,0.41,-1.831,-1.831,2.014,1
1.917279,0.686,0.581,0.416,-1.708,-1.77,2.502,1
1.925398,0.682,0.579,0.418,-1.342,-1.77,2.807,1
1.933684,0.681,0.583,0.416,-1.22,-1.892,3.234,1
1.942221,0.681,0.579,0.415,-1.464,-1.708,3.479,1
1.949172,0.678,0.582,0.414,-1.708,-2.014,3.906,1
1.957438,0.678,0.575,0.413,-2.075,-1.831,3.845,1
1.966423,0.673,0.573,0.411,-2.197,-2.075,4.15,1
1.974079,0.673,0.578,0.407,-2.258,-2.197,4.455,1
1.981032,0.667,0.576,0.414,-2.502,-2.38,4.577,1
1.988888,0.68,0.572,0.424,-2.197,-2.38,4.821,1
1.997949,0.68,0.566,0.424,-2.075,-2.685,5.249,1
2.00503,0.679,0.555,0.437,-1.892,-2.99,5.615,1
2.014165,0.68,0.541,0.449,-1.464,-2.746,5.92,1
2.022096,0.679,0.513,0.458,-0.549,-2.563,6.164,1
2.029066,0.674,0.486,0.475,0.183,-2.807,7.08,1
2.036676,0.656,0.442,0.504,1.281,-2.868,7.873,1
2.045592,0.637,0.41,0.544,2.014,-3.295,8.422,1
2.054824,0.618,0.37,0.582,2.868,-3.112,10.009,1
2.060402,0.588,0.319,0.637,2.441,-2.441,11.169,1
2.068233,0.557,0.274,0.691,1.281,-1.953,13.061,1
2.076975,0.534,0.239,0.757,0.0,-0.915,16.113,1
2.086466,0.444,0.201,0.837,-1.525,0.61,19.165,1
2.093679,0.484,0.195,0.926,-6.225,1.708,22.644,1
2.102443,0.449,0.174,1.11,-1.525,4.577,25.512,1
2.109343,0.448,0.153,1.238,7.263,7.751,29.663,1
2.117387,0.446,0.129,1.373,14.953,11.84,33.081,1
2.124911,0.412,0.096,1.535,23.254,16.601,36.987,1
2.133482,0.4,0.072,1.68,31.982,22.46,41.076,1
2.141809,0.379,0.051,1.81,43.823,30.212,46.264,1
2.149533,0.363,0.03,1.941,53.71,38.146,51.086,1
2.157591,0.333,0.022,2.044,62.133,46.813,56.457,1
2.164424,0.315,0.033,2.141,66.101,57.922,63.659,1
2.171883,0.292,0.075,2.222,65.551,68.176,69.396,1
2.179641,0.248,0.157,2.305,62.927,79.406,74.89,1
2.187536,0.228,0.246,2.387,59.02,91.613,79.833,1
2.194945,0.21,0.357,2.466,56.884,102.05,83.251,1
2.202609,0.187,0.45,2.507,57.739,115.478,86.425,1
2.209953,0.141,0.51,2.497,57.922,128.601,89.05,1
2.219066,0.062,0.585,2.456,55.969,141.113,90.637,1
2.226495,0.007,0.653,2.408,52.001,156.127,92.041,1
2.234918,-0.068,0.722,2.348,50.72,168.029,92.651,1
2.242931,-0.179,0.817,2.297,50.537,178.771,92.895,1
2.25053,-0.282,0.899,2.279,52.734,192.016,92.834,1
2.258915,-0.368,0.95,2.247,55.175,203.491,92.651,1
2.26576,-0.498,0.998,2.182,54.321,214.721,92.285,1
2.273212,-0.602,1.073,2.109,52.307,228.454,92.285,1
2.282197,-0.718,1.153,1.999,50.842,240.051,91.857,1
2.289976,-0.849,1.253,1.863,48.767,250.61,91.43,1
2.296806,-0.968,1.347,1.716,46.752,260.437,90.087,1
2.304358,-1.089,1.473,1.525,46.447,268.981,88.195,1
2.312284,-1.182,1.564,1.369,49.133,276.245,85.571,1
2.321221,-1.269,1.641,1.204,54.626,282.836,81.42,1
2.330056,-1.316,1.705,1.053,62.072,287.109,77.453,1
2.336895,-1.347,1.775,0.866,71.96,291.625,72.937,1
2.345603,-1.378,1.834,0.694,73.913,295.043,68.786,1
2.352384,-1.388,1.905,0.541,67.993,297.424,64.636,1
2.360943,-1.398,1.999,0.375,59.387,299.865,59.57,1
2.368289,-1.402,2.096,0.236,51.513,300.354,53.1,1
2.375071,-1.348,2.177,0.102,48.034,300.598,45.532,1
2.383793,-1.296,2.226,-0.023,50.842,299.621,37.475,1
2.392587,-1.274,2.254,-0.161,57.067,298.034,28.015,1
2.399949,-1.226,2.245,-0.313,63.171,295.837,20.141,1
2.408957,-1.164,2.228,-0.464,68.847,291.931,11.779,1
2.416856,-1.112,2.196,-0.619,71.228,287.17,4.455,1
2.425867,-0.999,2.121,-0.766,71.289,280.761,-3.784,1
2.43289,-0.904,2.048,-0.907,73.913,274.108,-9.887,1
2.442728,-0.806,1.958,-1.014,80.2,265.441,-16.052,1
2.449507,-0.74,1.865,-1.076,82.702,258.056,-20.08,1
2.456908,-0.628,1.738,-1.147,82.275,251.098,-23.864,1
2.465051,-0.569,1.646,-1.221,77.758,244.506,-25.939,1
2.473813,-0.514,1.568,-1.312,66.833,238.403,-28.076,1
2.483156,-0.464,1.51,-1.378,57.434,230.407,-30.822,1
2.490302,-0.413,1.453,-1.445,55.969,221.74,-33.264,1
2.498797,-0.389,1.404,-1.505,57.556,213.806,-35.217,1
2.506521,-0.349,1.339,-1.558,59.387,205.444,-36.926,1
2.514009,-0.329,1.284,-1.589,61.584,195.617,-38.513,1
2.522338,-0.293,1.211,-1.616,63.781,187.072,-39.306,1
2.531908,-0.224,1.145,-1.653,62.438,177.307,-39.978,1
2.538802,-0.185,1.099,-1.69,60.668,167.602,-40.222,1
2.546365,-0.101,1.035,-1.697,61.401,158.447,-40.344,1
2.555129,-0.074,0.986,-1.69,56.945,148.254,-40.527,1
2.562465,-0.025,0.923,-1.668,50.72,139.648,-40.161,1
2.570995,0.038,0.87,-1.66,45.227,130.798,-39.428,1
2.578523,0.077,0.815,-1.661,41.687,122.802,-38.818,1
2.58704,0.061,0.783,-1.64,39.489,113.891,-37.841,1
2.594242,0.21,0.708,-1.605,37.109,106.75,-36.926,1
2.603591,0.196,0.673,-1.605,30.517,98.266,-35.339,1
2.61061,0.169,0.663,-1.568,29.907,90.454,-33.752,1
2.618972,0.335,0.592,-1.489,28.564,82.641,-32.409,1
2.626582,0.312,0.558,-1.477,19.165,76.965,-30.334,1
2.635397,0.273,0.561,-1.443,12.512,70.312,-28.137,1
2.642606,0.432,0.517,-1.352,4.211,63.781,-26.367,1
2.651014,0.387,0.504,-1.331,-9.887,58.898,-24.414,1
2.659944,0.413,0.518,-1.246,-17.639,51.635,-22.46,1
2.668043,0.399,0.503,-1.152,-22.216,47.79,-20.202,1
2.676253,0.449,0.498,-1.095,-24.291,41.809,-18.798,1
2.684857,0.44,0.483,-1.003,-26.916,38.696,-16.235,1
2.691724,0.476,0.479,-0.927,-26.611,33.752,-14.526,1
2.700547,0.488,0.462,-0.852,-25.329,30.822,-11.962,1
2.709835,0.478,0.462,-0.786,-22.705,27.954,-10.192,1
2.717055,0.483,0.452,-0.734,-20.751,26.062,-8.239,1
2.723955,0.496,0.452,-0.696,-18.066,23.986,-6.408,1
2.731987,0.514,0.443,-0.671,-17.395,22.705,-4.516,1
2.741426,0.478,0.458,-0.656,-14.587,20.141,-2.563,1
2.748976,0.523,0.461,-0.628,-15.624,18.92,-1.098,1
2.757235,0.488,0.477,-0.612,-15.991,17.211,0.732,1
2.766366,0.504,0.484,-0.59,-17.7,15.869,1.953,1
2.773031,0.501,0.506,-0.578,-17.822,15.319,3.662,1
2.781274,0.508,0.525,-0.575,-16.906,13.977,5.249,1
2.789791,0.522,0.541,-0.571,-16.54,12.939,6.53,1
2.796433,0.515,0.555,-0.576,-15.563,11.718,7.568,1
2.803654,0.517,0.572,-0.572,-13.549,10.62,8.544,1
2.81205,0.541,0.582,-0.574,-13.854,9.643,9.521,1
2.81944,0.547,0.609,-0.581,-12.939,8.361,10.131,1
2.828269,0.553,0.627,-0.584,-10.314,6.286,10.437,1
2.835565,0.585,0.654,-0.58,-6.652,5.004,11.047,1
2.844601,0.601,0.658,-0.583,-2.319,3.051,10.986,1
2.851469,0.598,0.673,-0.586,-0.793,1.708,11.474,1
2.860525,0.595,0.675,-0.587,-1.647,0.305,11.108,1
2.868658,0.6,0.691,-0.583,-3.601,-0.671,11.169,1
2.875406,0.604,0.709,-0.57,-5.554,-2.136,11.291,1
2.884698,0.593,0.721,-0.561,-6.652,-3.051,11.291,1
2.891674,0.61,0.735,-0.537,-8.605,-4.333,11.413,1
2.900961,0.609,0.747,-0.518,-8.178,-5.065,11.23,1
2.909544,0.603,0.762,-0.502,-6.652,-5.615,11.23,1
2.916619,0.596,0.773,-0.489,-5.065,-6.591,10.925,1
2.925638,0.596,0.784,-0.478,-3.845,-7.324,10.62,1
2.933753,0.591,0.801,-0.465,-2.624,-7.507,10.009,1
2.940926,0.583,0.807,-0.454,-1.892,-7.995,9.643,1
2.949512,0.586,0.817,-0.448,-1.525,-8.361,8.789,1
2.958604,0.583,0.822,-0.452,-2.014,-8.789,8.239,1
2.965676,0.573,0.822,-0.451,-2.868,-9.216,7.568,1
2.974746,0.573,0.829,-0.446,-3.967,-9.46,6.958,1
2.982121,0.579,0.816,-0.432,-4.211,-9.765,6.225,1
2.989806,0.582,0.821,-0.418,-3.479,-10.07,5.615,1
2.998182,0.58,0.817,-0.409,-2.014,-10.559,5.371,1
3.006211,0.579,0.813,-0.397,-1.647,-11.047,4.943,1
3.012729,0.581,0.815,-0.386,-1.77,-11.23,4.455,1
3.021454,0.58,0.816,-0.375,-1.831,-10.986,4.211,1
3.028487,0.578,0.816,-0.371,-1.831,-10.986,3.906,1
3.036382,0.573,0.814,-0.368,-1.525,-10.986,3.54,1
3.043951,0.577,0.821,-0.367,-0.915,-11.169,2.99,1
3.053295,0.582,0.827,-0.363,-0.061,-11.169,2.258,1
3.059655,0.589,0.821,-0.349,0.793,-11.23,1.708,1
3.067164,0.591,0.816,-0.346,0.244,-11.047,0.854,1
3.075962,0.588,0.815,-0.345,-1.281,-10.803,0.427,1
3.083404,0.589,0.81,-0.341,-2.685,-10.498,-0.061,1
3.092624,0.593,0.812,-0.333,-2.929,-10.375,-0.732,1
3.100267,0.592,0.811,-0.325,-2.258,-10.07,-1.281,1
3.108061,0.596,0.811,-0.325,-1.281,-9.826,-1.647,1
3.116856,0.605,0.81,-0.318,-0.244,-9.46,-2.136,1
3.125121,0.605,0.814,-0.314,-0.244,-9.033,-2.624,1
3.133365,0.602,0.812,-0.312,-0.427,-8.911,-2.929,1
3.141001,0.596,0.812,-0.313,-0.305,-8.239,-3.479,1
3.147623,0.592,0.813,-0.314,-0.671,-7.812,-4.211,1
3.154705,0.596,0.806,-0.31,-1.037,-7.69,-4.455,1
3.163646,0.597,0.796,-0.311,-1.953,-6.896,-4.943,1
3.169685,0.597,0.789,-0.306,-2.746,-6.713,-5.065,1
3.177483,0.595,0.784,-0.303,-3.601,-6.408,-5.554,1
3.186233,0.597,0.773,-0.303,-3.601,-5.859,-5.554,1
3.194683,0.6,0.766,-0.297,-3.479,-5.676,-5.859,1
3.201924,0.595,0.758,-0.305,-4.028,-5.371,-6.103,1
3.210217,0.592,0.749,-0.297,-4.76,-4.821,-6.164,1
3.219416,0.587,0.755,-0.3,-5.249,-4.516,-6.347,1
3.228242,0.593,0.749,-0.304,-4.76,-4.211,-6.591,1
3.234472,0.6,0.746,-0.3,-4.028,-4.089,-6.591,1
3.24311,0.6,0.738,-0.298,-2.624,-3.662,-6.652,1
3.251032,0.605,0.74,-0.303,-2.624,-3.479,-6.835,1
3.258852,0.601,0.734,-0.297,-2.624,-3.295,-6.835,1
3.268168,0.604,0.731,-0.3,-2.502,-2.807,-6.896,1
3.27595,0.6,0.723,-0.301,-2.258,-2.319,-6.774,1
3.283508,0.6,0.711,-0.302,-1.647,-1.953,-6.896,1
3.292871,0.596,0.701,-0.309,-1.464,-1.647,-6.652,1
3.299594,0.591,0.687,-0.315,-1.892,-1.403,-6.53,1
3.307203,0.598,0.684,-0.315,-2.38,-1.037,-6.286,1
3.315831,0.603,0.673,-0.323,-2.807,-0.793,-5.798,1
3.323462,0.602,0.669,-0.326,-3.112,-0.244,-5.859,1
3.331849,0.603,0.661,-0.329,-2.441,-0.305,-5.432,1
3.341141,0.605,0.656,-0.326,-2.319,-0.122,-5.126,1
3.349838,0.606,0.653,-0.318,-1.953,0.061,-4.699,1
3.357454,0.605,0.651,-0.316,-2.38,0.488,-4.089,1
3.364818,0.598,0.648,-0.321,-2.929,1.22,-3.54,1
3.372694,0.6,0.651,-0.325,-3.112,1.342,-3.173,1
3.381948,0.594,0.652,-0.335,-2.929,1.464,-2.868,1
3.38889,0.591,0.653,-0.337,-2.624,1.892,-2.502,1
3.397582,0.589,0.65,-0.347,-2.319,1.831,-1.831,1
3.404938,0.592,0.648,-0.349,-2.624,1.831,-1.525,1
3.41451,0.587,0.648,-0.356,-2.807,2.014,-1.098,1
3.421309,0.583,0.642,-0.367,-2.746,1.892,-0.366,1
3.430586,0.583,0.645,-0.369,-3.112,1.647,-0.061,1
3.438084,0.592,0.643,-0.364,-2.807,1.831,0.305,1
3.445298,0.593,0.641,-0.36,-2.197,1.708,0.854,1
3.453982,0.587,0.644,-0.358,-1.953,1.647,1.525,1
3.461455,0.589,0.653,-0.358,-1.159,1.708,1.647,1
3.470578,0.589,0.655,-0.364,-0.671,1.708,2.258,1
3.477996,0.588,0.663,-0.364,-1.037,1.464,2.685,1
3.485626,0.588,0.662,-0.367,-1.098,1.708,2.99,1
3.494225,0.594,0.67,-0.367,-0.976,1.953,3.417,1
3.501594,0.593,0.678,-0.371,-0.854,1.831,3.845,1
3.510141,0.585,0.687,-0.366,-0.122,1.708,4.272,1
3.517725,0.587,0.692,-0.378,0.732,1.708,4.333,1
3.525369,0.589,0.694,-0.378,1.525,1.647,4.394,1
3.532464,0.598,0.704,-0.386,1.953,1.525,4.638,1
3.541021,0.597,0.713,-0.386,2.99,1.342,4.699,1
3.547875,0.604,0.714,-0.383,3.54,1.098,4.394,1
3.556961,0.606,0.722,-0.383,3.601,0.976,4.333,1
3.563796,0.61,0.727,-0.381,3.479,0.976,4.333,1
3.57238,0.611,0.728,-0.378,3.173,1.22,4.15,1
3.580819,0.61,0.734,-0.382,2.38,1.098,3.967,1
3.588698,0.617,0.743,-0.384,1.403,1.098,3.906,1
3.596785,0.611,0.746,-0.38,0.854,1.281,3.784,1
3.603903,0.605,0.755,-0.386,1.403,1.342,3.54,1
3.611168,0.608,0.761,-0.392,2.136,1.037,3.295,1
3.620097,0.611,0.762,-0.395,2.868,0.793,2.929,1
3.626692,0.613,0.763,-0.397,3.112,0.305,2.624,1
3.634865,0.613,0.774,-0.388,3.417,0.122,2.38,1
3.643526,0.61,0.775,-0.38,3.784,0.183,1.647,1
3.651212,0.611,0.777,-0.372,3.662,-0.305,1.647,1
3.65942,0.605,0.784,-0.371,3.173,0.183,1.342,1
3.667118,0.601,0.785,-0.369,2.319,0.427,1.098,1
3.673774,0.599,0.791,-0.371,1.159,0.366,0.61,1
3.682693,0.592,0.79,-0.372,0.061,0.549,-0.122,1
3.690638,0.595,0.787,-0.374,0.0,0.488,-0.61,1
3.697682,0.593,0.779,-0.376,-0.244,0.427,-0.732,1
3.706194,0.591,0.768,-0.377,-0.061,0.183,-1.159,1
3.714174,0.598,0.763,-0.374,0.0,0.122,-1.586,1
3.723821,0.598,0.753,-0.373,-0.183,-0.122,-1.77,1
3.730452,0.6,0.751,-0.365,-0.183,-0.061,-1.953,1
3.737851,0.594,0.742,-0.359,0.183,0.0,-2.014,1
3.745376,0.592,0.737,-0.359,0.488,0.0,-2.075,1
3.754744,0.595,0.734,-0.354,0.488,0.122,-2.136,1
3.761986,0.592,0.732,-0.355,0.366,0.61,-2.014,1
3.770692,0.591,0.729,-0.358,0.122,0.549,-2.136,1
3.778614,0.593,0.728,-0.357,-0.244,0.427,-2.258,1
3.786106,0.591,0.717,-0.352,-0.244,0.671,-2.014,1
3.795439,0.587,0.716,-0.354,-0.305,0.793,-2.075,1
3.80287,0.588,0.716,-0.354,-0.183,0.854,-2.136,1
3.810506,0.589,0.715,-0.354,-0.061,0.915,-2.136,1
3.818482,0.593,0.712,-0.353,-0.549,1.037,-1.953,1
3.826727,0.593,0.711,-0.354,-1.037,1.098,-1.77,1
3.834885,0.59,0.709,-0.354,-1.098,1.22,-1.525,1
3.843748,0.594,0.715,-0.352,-1.098,1.281,-1.586,1
3.850644,0.593,0.716,-0.351,-0.549,1.281,-1.647,1
3.858629,0.593,0.715,-0.353,-0.061,1.708,-1.647,1
3.866274,0.59,0.71,-0.36,0.061,1.464,-1.403,1
3.875568,0.589,0.705,-0.36,-0.549,1.708,-1.525,1
3.88292,0.593,0.704,-0.359,-0.488,1.831,-1.22,1
3.891324,0.596,0.703,-0.362,-0.183,1.586,-1.22,1
3.900616,0.595,0.7,-0.36,-0.061,2.014,-0.915,1
3.907412,0.594,0.699,-0.359,-0.061,1.892,-0.793,1
3.914597,0.593,0.699,-0.364,-0.366,2.197,-0.854,1
3.924196,0.59,0.701,-0.362,-0.122,2.319,-0.244,1
3.930256,0.59,0.699,-0.37,0.0,2.258,-0.305,1
3.939313,0.589,0.698,-0.378,-0.427,2.075,-0.244,1
3.946698,0.587,0.704,-0.387,-0.732,2.136,0.061,1
3.955336,0.589,0.699,-0.388,-0.61,1.953,0.122,1
3.962383,0.594,0.7,-0.39,-0.122,1.525,0.244,1
3.970287,0.599,0.694,-0.388,-0.305,0.915,0.366,1
3.978174,0.596,0.697,-0.382,-0.122,1.098,0.671,1
3.987122,0.594,0.697,-0.369,-0.122,1.037,0.671,1
3.994381,0.597,0.7,-0.364,0.061,1.22,0.976,1
4.001354,0.602,0.705,-0.361,0.0,1.403,1.037,1
4.009589,0.598,0.71,-0.367,-0.488,1.586,1.281,1
4.019,0.596,0.716,-0.371,-1.22,1.586,1.403,1
4.025657,0.591,0.729,-0.376,-1.342,1.586,1.525,1
4.033612,0.586,0.735,-0.377,-1.281,1.892,1.403,1
4.041614,0.593,0.74,-0.386,-0.732,1.831,1.159,1
4.050433,0.592,0.741,-0.39,-0.427,1.647,0.854,1
4.058169,0.593,0.735,-0.395,0.061,1.77,0.671,1
4.065956,0.593,0.737,-0.397,-0.305,1.342,0.427,1
4.07316,0.59,0.736,-0.398,-0.244,0.793,0.366,1
4.082078,0.594,0.737,-0.397,-0.122,0.915,0.0,1
4.090029,0.598,0.734,-0.392,0.549,0.61,0.0,1
4.097199,0.598,0.733,-0.388,0.366,0.427,0.122,1
4.10687,0.596,0.734,-0.385,0.366,0.183,-0.122,1
4.114159,0.598,0.731,-0.383,-0.061,0.488,-0.122,1
4.121577,0.593,0.735,-0.38,-0.549,0.427,-0.122,1
4.129951,0.586,0.741,-0.38,-0.793,0.244,-0.183,1
4.137909,0.586,0.742,-0.38,-0.61,0.366,-0.488,1
4.145888,0.585,0.738,-0.383,-0.427,0.244,-0.549,1
4.154052,0.583,0.734,-0.39,-0.244,0.366,-0.732,1
4.163162,0.585,0.727,-0.393,-0.366,0.244,-0.793,1
4.171442,0.588,0.726,-0.387,-0.183,-0.122,-0.976,1
4.178266,0.597,0.72,-0.379,0.305,-0.427,-0.732,1
4.186943,0.598,0.717,-0.379,0.976,-0.244,-0.915,1
4.194937,0.604,0.715,-0.373,1.342,-0.366,-0.61,1
4.202726,0.595,0.713,-0.368,0.854,-0.305,-0.549,1
4.210658,0.594,0.719,-0.372,0.305,0.0,-0.549,1
4.218839,0.595,0.723,-0.377,-0.061,0.122,-0.488,1
4.226172,0.595,0.722,-0.369,-0.244,0.061,-0.427,1
4.234273,0.589,0.721,-0.374,-0.061,0.366,-0.488,1
4.243255,0.593,0.72,-0.372,-0.061,0.244,-0.61,1
4.250984,0.594,0.718,-0.375,-0.427,0.244,-0.793,1
4.2593,0.594,0.716,-0.373,-0.671,0.305,-0.488,1
4.268647,0.593,0.718,-0.373,0.0,0.0,-0.549,1
4.276331,0.592,0.717,-0.364,0.0,0.305,-0.61,1
4.283569,0.596,0.717,-0.364,-0.488,0.427,-0.549,1
4.292878,0.587,0.717,-0.36,-0.671,0.732,-0.427,1
4.299108,0.594,0.72,-0.364,-0.976,0.976,-0.488,1
4.307903,0.586,0.719,-0.366,-0.366,0.976,-0.427,1
4.315128,0.589,0.717,-0.369,0.793,0.976,-0.488,1
4.323859,0.589,0.714,-0.367,0.976,0.915,-0.488,1
4.332124,0.591,0.712,-0.372,0.915,0.793,-0.427,1
4.339505,0.592,0.711,-0.373,0.61,0.793,-0.488,1
4.348153,0.594,0.709,-0.371,0.244,1.037,-0.183,1
4.35567,0.595,0.712,-0.366,0.183,0.976,-0.183,1
4.362915,0.588,0.712,-0.364,0.183,0.732,0.061,1
4.3704,0.588,0.714,-0.361,0.549,0.915,0.061,1
4.378918,0.585,0.719,-0.36,1.037,1.098,0.061,1
4.386359,0.585,0.724,-0.36,1.708,1.342,0.244,1
4.394756,0.585,0.73,-0.361,2.014,1.342,0.0,1
4.402179,0.595,0.735,-0.355,2.075,1.464,-0.061,1
4.410793,0.596,0.734,-0.358,2.014,1.464,-0.061,1
4.419961,0.599,0.741,-0.354,1.342,2.136,-0.427,1
4.42598,0.598,0.734,-0.358,0.915,1.953,-0.549,1
4.433289,0.595,0.734,-0.361,0.732,2.319,-0.732,1
4.440888,0.597,0.731,-0.365,0.488,2.136,-0.793,1
4.449619,0.6,0.728,-0.368,0.488,2.197,-1.037,1
4.456321,0.6,0.727,-0.363,0.793,2.136,-1.098,1
4.464183,0.597,0.728,-0.356,0.915,2.441,-0.854,1
4.473381,0.6,0.721,-0.355,1.403,2.319,-0.854,1
4.481263,0.596,0.718,-0.351,1.708,2.441,-1.159,1
4.487673,0.592,0.723,-0.351,2.136,2.624,-0.854,1
4.49694,0.597,0.721,-0.356,2.38,3.051,-0.976,1
4.505566,0.597,0.723,-0.359,1.647,3.356,-0.915,1
4.511987,0.596,0.722,-0.362,1.159,3.356,-0.61,1
4.520706,0.595,0.727,-0.369,0.976,3.295,-0.976,1
4.529944,0.597,0.729,-0.366,0.732,3.417,-0.793,1
4.536536,0.596,0.729,-0.366,0.854,3.417,-1.22,1
4.545087,0.591,0.724,-0.366,0.305,3.723,-1.159,1
4.553143,0.59,0.725,-0.363,0.488,3.662,-1.22,1
4.560196,0.586,0.728,-0.36,0.671,3.662,-1.098,1
4.567259,0.59,0.724,-0.364,0.854,3.723,-1.22,1
4.575382,0.587,0.732,-0.365,1.647,3.845,-1.22,1
4.582684,0.588,0.726,-0.366,2.319,4.028,-1.342,1
4.591102,0.592,0.729,-0.359,2.929,4.028,-1.22,1
4.599195,0.589,0.721,-0.356,3.356,4.028,-1.342,1
4.607633,0.594,0.72,-0.357,3.417,4.394,-1.159,1
4.614984,0.587,0.716,-0.355,3.173,4.272,-1.22,1
4.623121,0.584,0.716,-0.354,3.234,4.577,-1.159,1
4.630492,0.583,0.719,-0.353,3.112,4.76,-1.159,1
4.638178,0.577,0.727,-0.353,4.638,4.821,-1.037,1
4.646595,0.572,0.731,-0.355,6.896,4.882,-0.976,1
4.653659,0.552,0.741,-0.355,9.399,4.699,-0.793,1
4.66178,0.587,0.73,-0.356,10.986,5.187,-0.732,1
4.671625,0.603,0.729,-0.387,7.568,5.004,-0.915,1
4.677152,0.591,0.735,-0.4,3.784,5.249,-0.976,1
4.685792,0.598,0.741,-0.41,2.075,5.31,-1.464,1
4.694399,0.615,0.747,-0.411,1.22,4.882,-1.647,1
4.702719,0.605,0.751,-0.408,0.854,4.821,-1.892,1
4.709547,0.605,0.755,-0.409,0.976,4.577,-2.075,1
4.718935,0.603,0.748,-0.411,2.441,4.638,-2.563,1
4.726644,0.605,0.741,-0.418,3.051,4.699,-2.99,1
4.733721,0.601,0.736,-0.426,2.197,4.211,-2.99,1
4.741687,0.587,0.732,-0.426,1.342,3.967,-3.173,1
4.749912,0.581,0.728,-0.423,1.098,3.662,-3.173,1
4.758206,0.573,0.726,-0.417,1.159,3.662,-3.479,1
4.766339,0.577,0.719,-0.416,1.586,3.417,-3.356,1
4.773007,0.577,0.708,-0.423,0.732,2.929,-3.173,1
4.78055,0.576,0.701,-0.424,-0.183,2.99,-2.99,1
4.789209,0.581,0.692,-0.424,-0.549,2.807,-2.624,1
4.799021,0.583,0.691,-0.426,-0.61,2.563,-2.441,1
4.80497,0.586,0.687,-0.422,-0.244,2.075,-2.258,1
4.813679,0.586,0.683,-0.42,-0.427,1.892,-2.075,1
4.822812,0.582,0.674,-0.42,-0.732,1.708,-1.647,1
4.830019,0.583,0.673,-0.42,-1.708,1.464,-1.403,1
4.838483,0.584,0.672,-0.416,-2.38,1.281,-0.976,1
4.847095,0.583,0.673,-0.415,-2.319,0.976,-0.671,1
4.855544,0.583,0.68,-0.415,-1.525,0.427,-0.305,1
4.86433,0.585,0.683,-0.417,-1.159,0.244,0.0,1
4.87118,0.587,0.681,-0.41,-1.342,0.122,0.244,1
4.880434,0.58,0.687,-0.409,-1.464,0.061,0.427,1
4.887818,0.584,0.692,-0.412,-0.854,-0.122,0.671,1
4.895729,0.587,0.688,-0.411,-0.122,-0.366,0.793,1
4.903487,0.585,0.693,-0.414,0.183,-0.671,0.976,1
4.912054,0.584,0.69,-0.407,0.305,-0.976,1.037,1
4.918967,0.591,0.69,-0.4,0.183,-1.037,1.281,1
4.928098,0.591,0.692,-0.39,0.061,-1.098,1.281,1
4.935263,0.59,0.694,-0.383,-0.061,-1.342,1.525,1
4.942906,0.591,0.702,-0.377,0.122,-0.915,1.892,1
4.951223,0.592,0.711,-0.38,0.793,-0.671,1.953,1
4.959785,0.584,0.724,-0.381,1.403,-0.793,1.953,1
4.966962,0.594,0.729,-0.375,1.77,-1.037,1.831,1
4.97413,0.586,0.741,-0.375,2.502,-0.671,2.075,1
4.982555,0.589,0.75,-0.375,4.089,-0.854,1.892,1
4.991011,0.591,0.755,-0.37,6.469,-0.976,1.647,1
4.998045,0.587,0.751,-0.371,8.178,-0.732,1.22,1
5.0059,0.595,0.745,-0.373,9.704,-0.854,1.098,1
5.015231,0.596,0.743,-0.386,10.62,-0.976,1.037,1
5.022543,0.594,0.731,-0.392,9.033,-1.098,0.915,1
5.031713,0.597,0.722,-0.393,6.103,-0.976,0.61,1
5.03905,0.599,0.715,-0.395,2.441,-0.793,0.61,1
5.047191,0.591,0.709,-0.401,0.732,-0.671,0.732,1
5.054782,0.604,0.687,-0.414,-2.38,-0.671,0.915,1
5.063722,0.635,0.655,-0.422,-7.507,-0.976,0.915,1
5.072811,0.588,0.649,-0.449,-9.338,-0.549,1.831,1
5.081225,0.571,0.614,-0.485,-12.634,-0.671,2.441,1
5.089198,0.578,0.586,-0.525,-21.85,-0.488,3.723,1
5.098703,0.551,0.565,-0.562,-26.428,-0.671,4.333,1
5.10447,0.502,0.544,-0.612,-25.024,-1.525,5.187,1
5.113435,0.468,0.512,-0.667,-22.399,-2.685,6.469,1
5.122809,0.461,0.48,-0.733,-21.179,-3.723,7.934,1
5.130431,0.432,0.458,-0.81,-19.409,-5.432,9.765,1
5.139019,0.407,0.428,-0.887,-19.958,-7.141,11.901,1
5.147001,0.392,0.405,-0.993,-23.437,-9.643,14.587,1
5.15455,0.384,0.387,-1.085,-27.343,-12.39,16.784,1
5.163456,0.372,0.386,-1.185,-28.991,-17.028,19.714,1
5.17096,0.358,0.375,-1.271,-29.846,-21.423,22.155,1
5.178939,0.333,0.371,-1.365,-32.897,-26.0,24.719,1
5.188095,0.311,0.361,-1.468,-39.733,-32.47,27.77,1
5.197171,0.299,0.354,-1.547,-46.02,-39.489,31.188,1
5.204735,0.295,0.359,-1.627,-50.048,-46.691,34.667,1
5.213935,0.268,0.365,-1.697,-53.344,-53.833,37.841,1
5.222121,0.229,0.372,-1.755,-59.082,-63.354,41.931,1
5.229541,0.189,0.389,-1.799,-60.913,-71.105,45.471,1
5.237176,0.173,0.411,-1.834,-61.279,-79.406,48.645,1
5.24602,0.143,0.43,-1.848,-61.096,-88.134,51.696,1
5.254146,0.125,0.446,-1.857,-62.866,-96.252,54.382,1
5.262079,0.097,0.47,-1.854,-64.941,-105.957,58.166,1
5.269181,0.059,0.499,-1.853,-66.833,-114.624,60.791,1
5.277614,0.02,0.53,-1.842,-68.359,-122.985,63.415,1
5.285177,-0.016,0.576,-1.817,-67.993,-132.629,66.04,1
5.292944,-0.062,0.62,-1.806,-66.406,-141.113,68.481,1
5.300991,-0.116,0.675,-1.782,-65.002,-149.841,70.495,1
5.310135,-0.177,0.737,-1.736,-62.072,-159.423,72.692,1
5.317377,-0.23,0.789,-1.701,-61.828,-167.358,74.279,1
5.325307,-0.27,0.847,-1.651,-64.697,-174.987,75.561,1
5.333992,-0.312,0.903,-1.61,-72.814,-182.25,77.026,1
5.342417,-0.386,0.989,-1.563,-80.322,-188.659,78.308,1
5.351758,-0.436,1.076,-1.519,-86.669,-196.105,79.467,1
5.359311,-0.441,1.162,-1.47,-91.186,-203.552,80.017,1
5.366768,-0.511,1.263,-1.437,-90.942,-210.083,79.956,1
5.375543,-0.52,1.349,-1.373,-85.266,-216.857,79.223,1
5.384102,-0.581,1.41,-1.344,-78.43,-225.036,77.758,1
5.392339,-0.625,1.46,-1.29,-73.059,-233.215,75.561,1
5.4003,-0.712,1.51,-1.247,-71.594,-239.501,73.242,1
5.408191,-0.759,1.554,-1.182,-70.373,-247.009,70.373,1
5.416944,-0.802,1.589,-1.098,-66.467,-253.478,67.504,1
5.424312,-0.829,1.614,-1.01,-61.401,-258.85,64.208,1
5.432839,-0.858,1.64,-0.932,-57.739,-265.075,60.18,1
5.440873,-0.916,1.675,-0.842,-58.227,-270.385,56.579,1
5.44935,-0.958,1.702,-0.739,-59.082,-275.634,52.429,1
5.457289,-1.012,1.751,-0.588,-58.715,-280.456,48.339,1
5.466777,-1.063,1.781,-0.454,-54.016,-283.569,44.372,1
5.474055,-1.108,1.804,-0.294,-49.438,-286.376,39.489,1
5.482218,-1.136,1.836,-0.137,-49.56,-287.597,35.461,1
5.490954,-1.135,1.879,0.056,-53.955,-286.621,29.907,1
5.498609,-1.12,1.903,0.212,-56.884,-284.729,25.085,1
5.506421,-1.102,1.914,0.393,-55.114,-280.273,18.981,1
5.514468,-1.082,1.904,0.506,-51.208,-276.855,13.977,1
5.523796,-1.034,1.898,0.656,-47.912,-273.254,8.728,1
5.530027,-0.98,1.875,0.787,-44.738,-267.944,2.746,1
5.538815,-0.921,1.856,0.911,-42.297,-261.718,-2.929,1
5.547077,-0.856,1.826,1.004,-41.87,-255.371,-8.483,1
5.555018,-0.803,1.795,1.094,-41.381,-248.474,-13.671,1
5.564106,-0.723,1.755,1.184,-38.085,-240.356,-19.592,1
5.570424,-0.643,1.722,1.254,-35.827,-232.727,-24.414,1
5.579925,-0.557,1.68,1.339,-35.339,-225.28,-28.991,1
5.586571,-0.504,1.655,1.434,-35.4,-216.125,-33.996,1
5.594743,-0.397,1.633,1.567,-34.973,-207.641,-38.269,1
5.603394,-0.3,1.596,1.677,-31.677,-196.716,-43.029,1
5.610679,-0.197,1.547,1.749,-31.249,-186.828,-47.119,1
5.618739,-0.074,1.472,1.817,-32.287,-176.391,-50.415,1
5.626992,0.008,1.407,1.839,-32.836,-163.391,-53.833,1
5.636129,0.077,1.332,1.822,-36.804,-152.648,-55.908,1
5.643982,0.165,1.269,1.759,-44.067,-140.38,-58.227,1
5.652591,0.216,1.201,1.68,-48.278,-130.798,-59.936,1
5.65922,0.254,1.144,1.584,-50.476,-120.544,-61.645,1
5.667269,0.292,1.078,1.488,-50.659,-113.708,-62.805,1
5.675055,0.304,1.04,1.438,-47.363,-107.91,-63.903,1
5.682909,0.339,0.99,1.421,-39.489,-102.416,-64.88,1
5.690539,0.403,0.903,1.393,-31.677,-96.374,-65.246,1
5.700095,0.44,0.836,1.346,-28.564,-88.745,-65.795,1
5.706828,0.46,0.77,1.274,-30.273,-82.641,-65.734,1
5.715604,0.474,0.708,1.197,-33.325,-77.026,-65.307,1
5.723164,0.476,0.659,1.112,-36.743,-70.8,-64.392,1
5.731104,0.48,0.609,1.037,-38.635,-66.528,-63.659,1
5.740257,0.483,0.561,0.953,-39.367,-62.255,-62.194,1
5.748057,0.479,0.527,0.894,-36.743,-59.387,-60.546,1
5.756493,0.475,0.495,0.834,-30.334,-57.006,-58.593,1
5.764896,0.473,0.457,0.775,-25.512,-54.87,-56.945,1
5.773489,0.476,0.405,0.757,-22.888,-52.917,-54.992,1
5.781108,0.488,0.361,0.763,-20.935,-51.025,-52.734,1
5.788626,0.505,0.322,0.768,-18.737,-48.706,-50.537,1
5.795931,0.517,0.282,0.773,-17.761,-46.508,-48.461,1
5.804604,0.534,0.252,0.777,-18.188,-44.067,-45.654,1
5.811941,0.543,0.22,0.781,-18.493,-41.748,-42.053,1
5.820723,0.559,0.216,0.779,-19.287,-38.818,-39.062,1
5.829686,0.56,0.217,0.774,-20.874,-36.254,-35.888,1
5.836619,0.557,0.224,0.776,-22.277,-33.203,-32.104,1
5.845828,0.565,0.239,0.769,-21.728,-30.273,-29.113,1
5.852984,0.583,0.244,0.752,-20.568,-27.77,-26.428,1
5.860733,0.585,0.262,0.737,-18.92,-25.146,-22.888,1
5.868782,0.599,0.277,0.733,-17.211,-22.705,-20.141,1
5.877435,0.618,0.289,0.722,-15.136,-20.568,-17.578,1
5.886488,0.63,0.295,0.718,-13.366,-17.7,-14.526,1
5.893714,0.652,0.31,0.688,-13.61,-14.77,-12.207,1
5.902633,0.654,0.334,0.652,-15.808,-12.878,-9.765,1
5.910458,0.66,0.356,0.631,-17.517,-10.375,-7.385,1
5.916298,0.668,0.377,0.62,-16.54,-8.666,-5.554,1
5.924801,0.682,0.391,0.603,-14.892,-7.019,-3.662,1
5.934063,0.697,0.411,0.572,-13.671,-4.577,-1.342,1
5.941854,0.69,0.436,0.516,-15.747,-3.051,0.244,1
5.950825,0.69,0.472,0.481,-18.798,-2.014,1.647,1
5.957886,0.705,0.504,0.463,-18.676,-1.098,2.624,1
5.966618,0.718,0.523,0.442,-16.845,-0.793,3.234,1
5.973329,0.718,0.541,0.436,-14.404,-0.671,4.15,1
5.981555,0.713,0.57,0.449,-11.718,-0.488,4.577,1
5.988877,0.719,0.576,0.469,-7.507,0.366,5.065,1
5.996577,0.736,0.587,0.476,-4.76,1.342,5.554,1
6.004178,0.745,0.587,0.478,-3.54,2.136,5.615,1
6.011529,0.743,0.602,0.47,-4.15,3.723,5.92,1
6.020651,0.739,0.623,0.455,-5.859,5.126,6.225,1
6.028303,0.74,0.658,0.43,-9.704,6.652,6.591,1
6.034651,0.739,0.689,0.401,-11.657,7.629,6.347,1
6.042567,0.738,0.714,0.381,-11.291,8.117,5.676,1
6.050035,0.737,0.729,0.361,-8.483,8.178,4.943,1
6.057981,0.746,0.739,0.343,-6.225,8.666,4.089,1
6.065386,0.746,0.742,0.32,-5.371,8.85,3.356,1
6.072769,0.747,0.744,0.3,-4.76,8.666,2.685,1
6.081858,0.754,0.752,0.294,-3.295,8.85,2.014,1
6.089518,0.757,0.744,0.278,-1.22,8.911,1.037,1
6.097848,0.75,0.739,0.27,-1.098,8.85,0.427,1
6.105473,0.749,0.736,0.261,-2.014,9.094,-0.183,1
6.113535,0.748,0.728,0.264,-2.441,9.094,-0.427,1
6.120923,0.738,0.727,0.254,-2.99,9.216,-0.793,1
6.130194,0.735,0.728,0.248,-4.699,9.826,-1.098,1
6.137375,0.729,0.73,0.238,-5.004,9.704,-1.281,1
6.144823,0.712,0.736,0.224,-4.333,9.582,-1.77,1
6.152768,0.702,0.737,0.21,-2.563,9.155,-1.892,1
6.160217,0.693,0.738,0.189,-0.976,9.033,-2.502,1
6.169577,0.69,0.738,0.172,-0.061,8.544,-2.807,1
6.176325,0.687,0.734,0.153,0.671,7.934,-3.173,1
6.183695,0.687,0.727,0.144,1.77,7.08,-3.723,1
6.19229,0.689,0.712,0.137,3.295,6.103,-3.845,1
6.199604,0.69,0.697,0.125,4.028,5.371,-4.15,1
6.207958,0.693,0.689,0.107,3.234,4.455,-4.394,1
6.215837,0.691,0.678,0.093,1.525,2.746,-4.394,1
6.223779,0.698,0.676,0.098,1.342,1.647,-4.516,1
6.232561,0.707,0.664,0.105,2.563,0.427,-4.699,1
6.239927,0.71,0.652,0.112,3.356,-0.793,-4.394,1
6.24665,0.709,0.637,0.134,3.234,-1.77,-4.15,1
6.254647,0.71,0.628,0.152,2.99,-2.38,-3.784,1
6.263214,0.718,0.612,0.171,3.173,-2.929,-3.417,1
6.271822,0.728,0.603,0.188,2.99,-3.112,-2.807,1
6.278573,0.735,0.585,0.198,1.953,-3.051,-2.319,1
6.287339,0.739,0.584,0.205,0.793,-2.929,-1.892,1
6.2943,0.739,0.578,0.206,0.0,-3.173,-1.281,1
6.30296,0.731,0.581,0.208,-0.122,-3.356,-0.61,1
6.311874,0.735,0.573,0.216,0.366,-3.54,-0.183,1
6.318873,0.728,0.575,0.213,0.0,-3.601,0.427,1
6.326215,0.727,0.573,0.217,-0.305,-4.089,0.793,1
6.333859,0.723,0.574,0.226,-0.061,-4.028,1.586,1
6.342931,0.716,0.586,0.228,0.366,-4.272,2.075,1
6.349985,0.707,0.594,0.232,-0.122,-4.516,2.624,1
6.357986,0.705,0.609,0.242,-0.061,-4.943,3.051,1
6.364275,0.708,0.62,0.25,0.244,-4.577,3.356,1
6.372017,0.711,0.625,0.255,0.427,-4.455,3.723,1
6.380346,0.714,0.632,0.251,0.0,-4.333,3.906,1
6.389621,0.711,0.641,0.249,-0.854,-4.516,4.089,1
6.395836,0.712,0.649,0.247,-1.22,-4.516,4.272,1
6.40341,0.708,0.664,0.253,-0.854,-4.577,4.394,1
6.411511,0.701,0.667,0.257,-0.549,-4.699,4.394,1
6.419219,0.698,0.679,0.266,-0.305,-4.821,4.577,1
6.427867,0.703,0.684,0.28,0.122,-4.638,4.699,1
6.437183,0.709,0.687,0.292,0.244,-4.577,4.516,1
6.444189,0.716,0.684,0.297,-0.183,-4.333,4.455,1
6.451009,0.715,0.687,0.299,-0.671,-3.906,4.211,1
6.460673,0.72,0.69,0.3,-0.793,-3.662,4.028,1
6.467671,0.717,0.692,0.296,-0.854,-3.417,3.906,1
6.4749,0.715,0.693,0.296,-1.098,-3.051,3.723,1
6.482293,0.717,0.698,0.291,-0.793,-2.868,3.479,1
6.490099,0.713,0.708,0.29,-0.793,-3.173,3.112,1
6.497889,0.716,0.72,0.291,-0.671,-2.624,2.99,1
6.505844,0.724,0.716,0.292,-0.61,-2.746,2.624,1
6.514773,0.717,0.716,0.294,0.0,-2.807,2.258,1
6.522981,0.717,0.713,0.294,0.793,-2.807,1.708,1
6.530797,0.716,0.707,0.305,0.976,-2.868,1.525,1
6.538684,0.716,0.702,0.312,1.098,-2.868,0.976,1
6.546524,0.713,0.696,0.326,1.159,-2.502,0.854,1
6.554671,0.713,0.693,0.342,0.732,-2.502,0.732,1
6.562577,0.715,0.696,0.354,0.183,-1.831,0.793,1
6.570555,0.715,0.698,0.366,0.183,-1.098,0.488,1
6.576401,0.708,0.708,0.367,0.061,-0.427,0.61,1
6.584346,0.709,0.714,0.36,-0.488,0.488,0.305,1
6.591899,0.709,0.731,0.359,-1.098,0.915,0.061,1
6.600735,0.711,0.735,0.352,-0.488,1.525,0.061,1
6.608045,0.71,0.734,0.34,-0.366,2.075,-0.549,1
6.616045,0.714,0.738,0.329,-0.793,2.807,-0.854,1
6.624922,0.714,0.738,0.311,-1.098,3.051,-1.159,1
6.6316,0.716,0.739,0.304,-0.366,3.051,-1.708,1
6.639083,0.721,0.73,0.303,0.61,3.173,-2.136,1
6.646642,0.725,0.718,0.3,1.281,3.356,-2.624,1
6.656131,0.72,0.708,0.298,1.281,3.54,-2.807,1
6.662653,0.723,0.702,0.293,1.464,3.723,-2.868,1
6.67004,0.722,0.692,0.291,1.098,3.723,-2.99,1
6.677699,0.716,0.69,0.289,1.403,4.089,-3.54,1
6.686346,0.716,0.68,0.28,1.708,3.967,-3.295,1
6.693643,0.717,0.675,0.27,0.854,4.516,-3.295,1
6.702545,0.708,0.674,0.256,0.305,4.516,-3.295,1
6.709376,0.71,0.676,0.245,0.305,4.028,-3.356,1
6.717318,0.706,0.67,0.234,0.732,4.211,-3.662,1
6.72678,0.706,0.665,0.219,1.159,3.723,-3.54,1
6.733076,0.707,0.66,0.209,0.427,3.356,-3.295,1
6.740465,0.714,0.664,0.199,-0.732,2.99,-3.295,1
6.749714,0.713,0.659,0.191,-0.915,2.746,-3.173,1
6.755918,0.714,0.661,0.182,-0.549,2.014,-3.479,1
6.765062,0.716,0.656,0.184,0.244,1.586,-3.356,1
6.771963,0.717,0.648,0.182,0.122,0.915,-3.234,1
6.780689,0.722,0.643,0.187,-0.183,0.305,-3.295,1
6.78873,0.721,0.636,0.196,0.183,-0.122,-3.173,1
6.795697,0.723,0.625,0.198,0.427,-0.305,-2.929,1
6.802915,0.72,0.625,0.192,0.305,-0.61,-2.441,1
6.810698,0.712,0.625,0.193,-0.305,-0.915,-2.258,1
6.820088,0.708,0.631,0.198,-0.122,-1.281,-1.892,1
6.826542,0.705,0.633,0.203,0.793,-1.831,-1.403,1
6.836587,0.712,0.628,0.204,1.037,-1.647,-1.22,1
6.843357,0.708,0.627,0.208,-0.244,-2.136,-0.976,1
6.851075,0.709,0.635,0.209,-1.464,-2.38,-0.671,1
6.858283,0.708,0.638,0.212,-2.197,-2.624,-0.366,1
6.86752,0.708,0.645,0.214,-2.197,-2.99,-0.488,1
6.874817,0.711,0.654,0.222,-1.892,-3.234,-0.122,1
6.882537,0.713,0.656,0.226,-1.586,-3.479,-0.061,1
6.890967,0.714,0.659,0.237,-0.854,-3.601,-0.183,1
6.900139,0.715,0.653,0.243,-0.244,-3.662,-0.366,1
6.907397,0.717,0.656,0.245,-0.549,-3.723,0.0,1
6.916045,0.715,0.647,0.249,-0.427,-3.784,-0.366,1
6.922687,0.723,0.645,0.256,-0.183,-3.906,0.061,1
6.930487,0.726,0.638,0.258,-0.122,-3.967,0.122,1
6.938249,0.726,0.638,0.258,-0.915,-3.54,0.366,1
6.947653,0.737,0.65,0.254,-1.77,-3.54,0.488,1
6.95489,0.748,0.655,0.246,-2.319,-3.601,0.61,1
6.961624,0.752,0.667,0.243,-2.258,-3.723,0.732,1
6.970839,0.749,0.675,0.236,-1.647,-3.967,0.854,1
6.977928,0.734,0.68,0.233,-0.915,-4.333,0.61,1
6.984816,0.721,0.68,0.239,0.854,-4.821,0.61,1
6.993391,0.707,0.674,0.25,2.502,-5.187,0.488,1
7.000588,0.694,0.666,0.273,3.54,-5.554,0.671,1
7.008061,0.681,0.656,0.297,4.394,-5.187,0.549,1
7.015174,0.671,0.651,0.317,4.638,-5.126,0.854,1
7.022929,0.677,0.642,0.325,4.455,-4.516,0.915,1
7.031858,0.677,0.638,0.341,3.723,-4.089,0.976,1
7.03983,0.683,0.635,0.347,2.319,-3.234,1.281,1
7.046365,0.689,0.634,0.346,0.732,-2.502,1.708,1
7.054149,0.691,0.632,0.342,-0.915,-1.892,1.831,1
7.062577,0.696,0.634,0.332,-1.953,-1.22,2.136,1
7.070116,0.706,0.646,0.315,-2.563,-0.732,2.624,1
7.079654,0.708,0.647,0.299,-2.38,-0.549,2.502,1
7.087255,0.713,0.65,0.291,-2.075,-0.671,2.929,1
7.095358,0.721,0.655,0.286,-1.892,-0.549,2.685,1
7.103143,0.717,0.661,0.276,-1.159,-0.793,2.868,1
7.110791,0.718,0.663,0.271,0.061,-1.159,2.99,1
7.119113,0.727,0.666,0.274,0.915,-1.22,2.624,1
7.125021,0.73,0.669,0.271,1.464,-1.586,2.685,1
7.134022,0.73,0.669,0.268,1.342,-1.22,2.502,1
7.142758,0.729,0.67,0.267,0.549,-1.281,2.563,1
7.149386,0.726,0.68,0.259,-0.549,-0.854,2.38,1
7.157406,0.729,0.686,0.253,-0.976,-0.793,2.197,1
7.166387,0.722,0.696,0.239,-1.403,-1.159,2.502,1
7.173208,0.726,0.7,0.233,-1.22,-1.342,2.136,1
7.181263,0.727,0.711,0.227,-0.915,-1.708,1.953,1
7.188447,0.72,0.712,0.227,-0.305,-2.136,1.647,1
7.196215,0.716,0.722,0.231,0.427,-2.502,0.976,1
7.205386,0.716,0.721,0.235,1.525,-2.929,1.037,1
7.211842,0.708,0.725,0.241,1.708,-2.868,0.732,1
7.220655,0.712,0.719,0.246,1.892,-2.99,0.061,1
7.22846,0.716,0.713,0.249,1.953,-3.295,-0.122,1
7.236284,0.707,0.716,0.25,0.915,-3.112,-0.366,1
7.24513,0.711,0.719,0.238,-0.549,-3.173,-0.61,1
7.251799,0.702,0.728,0.24,-0.976,-3.54,-1.037,1
7.25953,0.703,0.731,0.24,0.183,-3.967,-1.586,1
7.267209,0.702,0.729,0.241,1.342,-4.516,-1.708,1
7.275028,0.701,0.722,0.255,1.831,-4.455,-2.014,1
7.283761,0.702,0.717,0.253,1.77,-4.516,-2.38,1
7.292945,0.707,0.713,0.271,1.525,-4.821,-2.868,1
7.300178,0.707,0.702,0.28,1.831,-5.004,-3.112,1
7.307458,0.706,0.69,0.284,2.136,-4.638,-3.234,1
7.314949,0.704,0.683,0.293,1.892,-4.638,-3.356,1
7.324405,0.708,0.677,0.299,1.525,-4.516,-3.417,1
7.331045,0.709,0.672,0.311,1.647,-4.272,-3.356,1
7.338834,0.715,0.664,0.31,2.075,-3.906,-3.295,1
7.346694,0.719,0.655,0.308,2.258,-3.54,-3.173,1
7.356052,0.717,0.642,0.311,1.525,-3.479,-2.868,1
7.362319,0.718,0.644,0.306,0.61,-2.685,-2.563,1
7.371077,0.714,0.642,0.294,-0.244,-2.685,-2.502,1
7.378831,0.72,0.643,0.292,-0.427,-2.624,-2.685,1
7.387994,0.714,0.64,0.292,0.183,-2.868,-2.197,1
7.394482,0.713,0.642,0.293,-0.061,-2.868,-2.136,1
7.403186,0.711,0.647,0.29,-0.854,-2.868,-1.831,1
7.411811,0.707,0.654,0.293,-0.793,-2.929,-1.708,1
7.419195,0.71,0.654,0.293,-0.549,-2.746,-1.892,1
7.427574,0.711,0.653,0.291,0.061,-2.807,-1.831,1
7.435213,0.711,0.65,0.292,0.061,-2.624,-1.77,1
7.444066,0.712,0.652,0.291,-0.122,-2.441,-1.525,1
7.451789,0.711,0.645,0.288,0.305,-2.38,-1.464,1
7.458831,0.708,0.641,0.287,0.427,-2.502,-1.464,1
7.46657,0.704,0.639,0.291,0.427,-2.319,-1.22,1
7.474222,0.706,0.636,0.28,0.366,-2.258,-0.915,1
7.483637,0.705,0.641,0.291,-0.061,-2.258,-0.793,1
7.491332,0.704,0.652,0.291,-0.366,-2.441,-0.671,1
7.498848,0.706,0.654,0.293,-0.549,-2.136,-0.305,1
7.507131,0.706,0.658,0.29,-0.793,-2.014,-0.427,1
7.516164,0.706,0.664,0.282,-0.732,-2.075,-0.305,1
7.524514,0.7,0.661,0.281,-0.366,-2.319,-0.366,1
7.531789,0.705,0.659,0.285,0.305,-2.685,-0.61,1
7.539341,0.708,0.656,0.282,0.732,-2.441,-0.305,1
7.547589,0.706,0.659,0.287,0.732,-2.685,-0.366,1
7.556655,0.704,0.655,0.286,0.488,-2.563,-0.427,1
7.563851,0.705,0.649,0.297,0.854,-2.502,-0.366,1
7.571697,0.708,0.644,0.295,0.671,-2.38,-0.183,1
7.579364,0.711,0.643,0.292,0.244,-2.258,0.122,1
7.58723,0.708,0.64,0.295,-0.061,-2.136,0.183,1
7.596371,0.71,0.646,0.294,-0.366,-2.136,0.488,1
7.603933,0.708,0.648,0.293,-0.793,-2.136,0.549,1
7.611859,0.712,0.652,0.289,-1.037,-2.319,0.671,1
7.618912,0.708,0.652,0.287,-0.854,-2.136,0.854,1
7.627862,0.706,0.662,0.282,-1.098,-2.197,0.732,1
7.634894,0.704,0.658,0.287,-0.305,-2.38,0.793,1
7.643789,0.708,0.652,0.291,0.427,-2.502,0.488,1
7.650883,0.708,0.649,0.3,0.732,-2.502,0.915,1
7.6578,0.711,0.64,0.308,0.854,-2.624,1.281,1
7.66485,0.71,0.635,0.315,0.427,-2.319,1.22,1
7.674022,0.712,0.633,0.324,0.244,-2.136,1.464,1
7.681686,0.711,0.632,0.33,-0.183,-1.892,1.525,1
7.688918,0.702,0.634,0.328,-0.854,-1.22,2.014,1
7.698008,0.703,0.639,0.327,-1.464,-1.159,2.319,1
7.704379,0.698,0.649,0.321,-2.258,-0.976,2.441,1
7.712354,0.698,0.666,0.314,-2.685,-0.549,2.502,1
7.720038,0.696,0.676,0.312,-1.708,-0.427,2.38,1
7.727758,0.699,0.68,0.304,-0.854,-0.061,2.38,1
7.735571,0.705,0.685,0.295,-0.366,-0.122,2.563,1
7.743488,0.707,0.686,0.286,-0.549,-0.122,2.258,1
7.751915,0.711,0.69,0.272,-0.854,-0.122,2.197,1
7.759811,0.715,0.692,0.261,-1.342,-0.183,1.892,1
7.768439,0.719,0.696,0.252,-1.342,-0.427,1.647,1
7.77687,0.72,0.694,0.244,-1.403,-0.915,1.403,1
7.784177,0.72,0.697,0.241,-1.281,-1.22,1.098,1
7.794234,0.713,0.699,0.24,-1.464,-1.647,0.793,1
7.801599,0.714,0.7,0.239,-1.281,-2.197,0.671,1
7.808031,0.715,0.696,0.248,-1.037,-2.807,0.244,1
7.815711,0.711,0.697,0.257,-1.037,-2.929,0.061,1
7.823263,0.714,0.694,0.26,-0.854,-2.929,-0.122,1
7.832427,0.709,0.693,0.268,-0.427,-2.807,-0.305,1
7.839507,0.709,0.692,0.272,-0.427,-3.173,-0.366,1
7.849548,0.705,0.689,0.268,-1.037,-3.112,-0.488,1
7.857206,0.703,0.689,0.263,-1.831,-2.929,-0.488,1
7.865299,0.7,0.695,0.255,-2.014,-3.234,-0.488,1
7.872843,0.701,0.688,0.25,-1.831,-3.479,-1.037,1
7.880467,0.706,0.684,0.252,-1.892,-3.906,-1.037,1
7.889558,0.711,0.679,0.247,-2.075,-4.089,-0.976,1
7.896851,0.714,0.679,0.25,-2.441,-4.272,-0.976,1
7.905246,0.7,0.689,0.251,-2.685,-4.15,-1.037,1
7.9143,0.719,0.69,0.256,-3.479,-4.455,-1.098,1
7.920758,0.718,0.688,0.268,-3.479,-4.455,-1.159,1
7.927493,0.721,0.688,0.276,-4.089,-4.516,-1.22,1
7.935428,0.723,0.682,0.276,-4.882,-3.967,-1.22,1
7.943102,0.728,0.685,0.274,-6.103,-3.662,-1.403,1
7.951883,0.724,0.685,0.272,-6.958,-3.417,-1.22,1
7.958058,0.724,0.685,0.263,-7.934,-3.295,-1.342,1
7.966124,0.717,0.683,0.251,-8.422,-3.601,-1.403,1
7.973565,0.712,0.686,0.244,-7.873,-3.601,-1.708,1
7.983247,0.708,0.689,0.237,-6.347,-4.211,-1.831,1
7.990126,0.695,0.692,0.234,-4.577,-4.882,-2.197,1
7.997515,0.694,0.688,0.227,-4.394,-5.187,-2.197,1
8.006813,0.693,0.686,0.225,-4.455,-5.798,-2.319,1
8.013724,0.688,0.686,0.234,-4.455,-6.591,-2.624,1
8.021681,0.687,0.684,0.235,-4.455,-6.713,-2.563,1
8.030862,0.69,0.681,0.227,-4.699,-7.202,-2.99,1
8.039201,0.678,0.686,0.214,-5.493,-7.507,-2.868,1
8.046374,0.681,0.684,0.21,-6.042,-8.3,-2.807,1
8.054867,0.679,0.682,0.211,-5.249,-9.094,-2.807,1
8.062722,0.678,0.677,0.199,-4.394,-9.826,-2.99,1
8.071827,0.68,0.679,0.199,-4.028,-10.437,-2.807,1
8.078747,0.681,0.677,0.194,-3.845,-11.108,-2.929,1
8.08701,0.685,0.674,0.201,-2.99,-11.901,-3.051,1
8.095446,0.683,0.668,0.199,-2.868,-12.756,-3.112,1
8.102935,0.684,0.665,0.206,-2.807,-13.366,-3.173,1
8.111941,0.687,0.657,0.209,-2.502,-14.038,-3.112,1
8.119571,0.687,0.653,0.217,-2.258,-14.77,-2.99,1
8.12681,0.684,0.645,0.22,-2.624,-15.197,-2.868,1
8.134534,0.692,0.634,0.227,-3.051,-15.869,-2.502,1
8.14207,0.693,0.626,0.234,-3.54,-15.991,-2.319,1
8.150215,0.692,0.622,0.239,-4.15,-16.418,-2.197,1
8.159485,0.695,0.619,0.25,-4.882,-16.784,-1.586,1
8.167289,0.698,0.612,0.262,-5.187,-16.967,-1.22,1
8.175235,0.706,0.613,0.286,-4.943,-17.089,-0.854,1
8.181996,0.709,0.612,0.307,-4.15,-17.15,-0.244,1
8.189317,0.709,0.606,0.328,-2.99,-16.906,0.0,1
8.198803,0.708,0.606,0.338,-1.953,-16.845,0.488,1
8.207461,0.71,0.602,0.353,-1.342,-16.418,0.793,1
8.214036,0.709,0.605,0.355,-1.586,-16.052,1.281,1
8.222237,0.708,0.6,0.354,-2.502,-15.563,1.525,1
8.229899,0.698,0.599,0.354,-2.624,-14.892,2.014,1
8.23835,0.703,0.594,0.355,-2.136,-14.77,2.38,1
8.245807,0.702,0.59,0.36,-2.136,-14.404,2.929,1
8.255234,0.702,0.585,0.369,-1.098,-14.343,3.479,1
8.262737,0.704,0.577,0.381,-0.915,-14.221,4.089,1
8.269686,0.707,0.58,0.397,-1.22,-13.61,4.638,1
8.277391,0.708,0.571,0.424,-1.953,-13.0,5.493,1
8.28654,0.704,0.565,0.455,-1.159,-12.634,6.164,1
8.293326,0.694,0.553,0.5,1.037,-12.573,6.896,1
8.300715,0.675,0.54,0.551,4.211,-12.207,7.446,1
8.308879,0.647,0.53,0.611,8.178,-12.207,7.995,1
8.317132,0.619,0.506,0.686,12.695,-11.657,8.972,1
8.322933,0.587,0.473,0.766,16.845,-10.62,9.948,1
8.33186,0.562,0.43,0.87,18.432,-9.216,10.925,1
8.339688,0.518,0.405,0.991,19.348,-7.69,12.329,1
8.346353,0.501,0.373,1.128,19.531,-5.249,13.427,1
8.355257,0.495,0.332,1.312,28.564,-2.075,15.258,1
8.362668,0.487,0.267,1.496,39.916,2.746,17.639,1
8.370313,0.472,0.203,1.652,46.813,8.789,20.629,1
8.376864,0.445,0.173,1.811,52.856,16.662,24.047,1
8.384464,0.466,0.075,1.959,59.143,23.681,28.137,1
8.391603,0.418,0.032,2.125,68.969,32.897,32.958,1
8.399933,0.36,0.001,2.269,74.584,42.724,38.085,1
8.407792,0.315,-0.01,2.436,78.369,53.1,43.762,1
8.414918,0.27,-0.013,2.605,84.045,65.307,49.377,1
8.423829,0.221,-0.029,2.751,89.172,78.002,55.48,1
8.429864,0.161,-0.02,2.89,89.355,92.895,62.316,1
8.438631,0.134,-0.02,2.989,85.632,108.642,69.03,1
8.445883,0.046,0.023,3.05,80.566,125.427,75.622,1
8.454047,-0.024,0.079,3.041,74.768,142.15,82.275,1
8.461215,-0.168,0.218,3.005,69.763,160.949,88.867,1
8.468932,-0.299,0.362,2.97,70.007,176.147,93.933,1
8.476841,-0.436,0.494,2.932,72.509,190.917,98.144,1
8.485396,-0.566,0.624,2.904,75.195,205.749,101.867,1
8.492587,-0.731,0.768,2.842,77.941,221.069,104.919,1
8.500484,-0.864,0.889,2.763,79.284,239.135,108.093,1
8.50793,-1.025,1.025,2.655,81.054,253.967,109.924,1
8.517303,-1.188,1.204,2.519,86.608,267.15,111.389,1
8.5247,-1.354,1.416,2.324,89.05,282.165,111.328,1
8.533307,-1.479,1.579,2.154,88.684,294.311,109.985,1
8.54069,-1.594,1.737,1.949,88.134,305.603,107.91,1
8.54921,-1.739,1.934,1.692,83.801,315.979,103.576,1
8.556781,-1.797,2.099,1.507,81.359,324.096,98.876,1
8.565625,-1.849,2.249,1.304,80.688,331.97,93.017,1
8.572772,-1.901,2.42,1.018,78.552,338.012,85.144,1
8.58157,-1.941,2.571,0.769,80.261,341.735,77.392,1
8.588376,-1.959,2.666,0.522,83.923,343.749,68.725,1
8.597052,-1.94,2.745,0.238,84.35,344.543,57.922,1
8.605331,-1.884,2.807,0.006,85.449,343.811,48.4,1
8.612306,-1.837,2.842,-0.271,91.125,340.942,38.635,1
8.621259,-1.802,2.829,-0.472,98.937,335.388,27.099,1
8.629447,-1.708,2.769,-0.642,106.323,329.589,17.761,1
8.636502,-1.612,2.694,-0.789,114.501,323.669,9.826,1
8.643854,-1.527,2.571,-0.957,114.99,315.368,1.281,1
8.653279,-1.45,2.464,-1.038,110.839,309.692,-3.723,1
8.660386,-1.357,2.377,-1.116,102.783,302.124,-9.887,1
8.668434,-1.326,2.289,-1.218,89.782,295.166,-15.319,1
8.676886,-1.251,2.206,-1.315,75.378,287.353,-20.69,1
8.685951,-1.164,2.143,-1.398,70.861,278.93,-25.573,1
8.691968,-1.078,2.059,-1.471,75.378,268.737,-31.311,1
8.7006,-0.985,1.956,-1.53,83.984,260.009,-35.461,1
8.709229,-0.869,1.813,-1.608,88.928,251.281,-37.963,1
8.718178,-0.819,1.693,-1.706,84.106,243.286,-40.405,1
8.724734,-0.745,1.589,-1.802,71.594,233.337,-42.907,1
8.733545,-0.661,1.546,-1.858,65.979,223.144,-45.532,1
8.740497,-0.613,1.499,-1.869,66.772,213.012,-47.729,1
8.749073,-0.561,1.423,-1.883,69.091,202.758,-50.17,1
8.755707,-0.447,1.293,-1.896,66.04,190.978,-52.001,1
8.764277,-0.399,1.199,-1.885,61.706,180.603,-52.612,1
8.773327,-0.281,1.097,-1.824,63.415,170.837,-53.222,1
8.781587,-0.206,1.0,-1.782,66.711,160.034,-52.551,1
8.788374,-0.105,0.913,-1.722,65.429,151.855,-51.391,1
8.797488,-0.085,0.867,-1.715,58.349,143.31,-50.048,1
8.807003,-0.047,0.832,-1.702,52.612,135.192,-48.889,1
8.812923,-0.029,0.795,-1.69,46.63,126.586,-47.973,1
8.822057,-0.011,0.764,-1.673,42.724,118.408,-46.936,1
8.82927,0.054,0.725,-1.642,39.184,110.046,-45.227,1
8.837181,0.115,0.687,-1.612,37.78,102.294,-43.579,1
8.845169,0.179,0.648,-1.545,39.794,93.688,-41.32,1
8.854023,0.247,0.593,-1.499,39.794,87.097,-39.123,1
8.861493,0.314,0.573,-1.437,43.09,80.383,-36.621,1
8.868752,0.324,0.54,-1.398,42.541,74.401,-33.874,1
8.876556,0.375,0.532,-1.346,36.682,69.091,-31.249,1
8.883937,0.385,0.542,-1.299,30.822,63.72,-28.686,1
8.892224,0.395,0.566,-1.246,26.916,58.532,-26.55,1
8.901538,0.399,0.594,-1.196,22.583,52.917,-24.414,1
8.90887,0.402,0.615,-1.132,19.409,47.668,-22.888,1
8.917396,0.405,0.629,-1.089,17.883,43.579,-21.789,1
8.926262,0.402,0.638,-1.033,18.188,39.123,-21.24,1
8.934567,0.411,0.631,-0.99,20.385,35.461,-20.507,1
8.941257,0.431,0.612,-0.95,20.324,32.165,-19.47,1
8.950428,0.427,0.603,-0.929,16.296,28.442,-18.737,1
8.957466,0.475,0.589,-0.909,9.948,25.329,-17.7,1
8.966679,0.477,0.606,-0.88,7.507,21.057,-16.906,1
8.974775,0.504,0.605,-0.827,5.798,17.028,-15.808,1
8.981698,0.518,0.606,-0.775,6.286,13.916,-14.77,1
8.989342,0.545,0.613,-0.712,12.695,10.131,-13.61,1
8.998328,0.577,0.599,-0.677,15.197,8.056,-12.451,1
9.005229,0.562,0.593,-0.646,13.061,6.347,-11.352,1
9.014399,0.568,0.59,-0.61,9.765,5.126,-10.07,1
9.023333,0.579,0.589,-0.576,7.751,3.54,-8.361,1
9.029752,0.566,0.602,-0.537,8.3,2.197,-7.202,1
9.037887,0.571,0.607,-0.502,6.713,1.708,-6.286,1
9.04657,0.558,0.616,-0.498,3.417,1.159,-5.065,1
9.054944,0.555,0.64,-0.493,0.122,-0.366,-4.272,1
9.063251,0.552,0.664,-0.462,-2.075,-1.22,-3.662,1
9.070584,0.56,0.681,-0.437,-1.525,-1.953,-3.662,1
9.078785,0.577,0.687,-0.423,-1.098,-2.807,-3.295,1
9.088242,0.582,0.685,-0.423,-1.708,-3.479,-2.929,1
9.096855,0.588,0.686,-0.429,-3.234,-3.967,-2.929,1
9.103972,0.587,0.691,-0.429,-5.371,-4.699,-2.38,1
9.113457,0.6,0.701,-0.419,-5.554,-5.126,-2.136,1
9.120036,0.629,0.701,-0.417,-3.234,-6.225,-2.075,1
9.129711,0.644,0.697,-0.41,-0.732,-7.202,-1.647,1
9.138108,0.649,0.694,-0.396,-0.854,-7.873,-1.281,1
9.147358,0.648,0.686,-0.376,-2.38,-8.422,-0.671,1
9.154622,0.644,0.692,-0.365,-3.662,-8.605,-0.549,1
9.163283,0.643,0.696,-0.342,-5.187,-9.094,0.061,1
9.17178,0.643,0.706,-0.326,-7.263,-8.911,0.366,1
9.178382,0.646,0.715,-0.318,-9.582,-8.605,0.976,1
9.187567,0.624,0.726,-0.303,-10.986,-8.361,1.22,1
9.195263,0.607,0.739,-0.3,-10.925,-8.239,1.159,1
9.203006,0.603,0.745,-0.282,-9.277,-7.751,1.22,1
9.211972,0.595,0.746,-0.286,-7.324,-7.629,0.732,1
9.220451,0.593,0.745,-0.28,-7.263,-7.202,0.427,1
9.227839,0.587,0.742,-0.278,-8.605,-6.347,0.0,1
9.234872,0.588,0.739,-0.287,-8.972,-6.286,-0.244,1
9.244478,0.589,0.737,-0.296,-8.911,-6.042,-0.427,1
9.251541,0.602,0.729,-0.302,-8.483,-6.103,-0.732,1
9.260645,0.625,0.72,-0.304,-8.911,-6.042,-0.671,1
9.268586,0.633,0.721,-0.293,-11.047,-5.981,-0.915,1
9.276205,0.638,0.724,-0.291,-14.038,-5.615,-0.671,1
9.285936,0.645,0.729,-0.289,-16.845,-5.371,-0.671,1
9.29305,0.647,0.733,-0.294,-18.188,-4.943,-0.549,1
9.300479,0.639,0.739,-0.308,-19.104,-5.065,-0.488,1
9.309654,0.635,0.748,-0.32,-19.287,-5.31,-0.549,1
9.316576,0.633,0.749,-0.331,-19.042,-5.371,-0.61,1
9.325236,0.609,0.758,-0.343,-17.578,-6.286,-0.61,1
9.334924,0.601,0.769,-0.353,-15.075,-6.713,-0.915,1
9.34271,0.611,0.762,-0.357,-11.718,-7.69,-1.403,1
9.350653,0.626,0.754,-0.352,-8.85,-8.789,-1.586,1
9.359384,0.639,0.744,-0.335,-6.286,-9.582,-1.647,1
9.368807,0.64,0.729,-0.316,-3.601,-9.826,-2.136,1
9.375848,0.644,0.711,-0.291,-2.624,-10.375,-1.892,1
9.384766,0.645,0.701,-0.272,-2.868,-10.131,-1.708,1
9.394191,0.648,0.69,-0.255,-4.089,-9.277,-1.281,1
9.401499,0.641,0.688,-0.239,-5.615,-8.911,-0.915,1
9.410379,0.628,0.688,-0.234,-7.385,-8.178,-0.427,1
9.417661,0.619,0.692,-0.226,-9.033,-7.629,-0.061,1
9.425272,0.611,0.708,-0.219,-9.582,-7.141,0.183,1
9.434588,0.611,0.705,-0.218,-9.399,-6.469,0.427,1
9.441795,0.607,0.717,-0.215,-7.751,-5.859,0.122,1
9.449594,0.611,0.721,-0.216,-5.92,-5.432,0.305,1
9.458774,0.612,0.722,-0.213,-3.356,-4.882,0.122,1
9.466259,0.619,0.715,-0.216,-1.525,-4.333,0.488,1
9.475362,0.621,0.708,-0.216,-0.854,-3.662,0.244,1
9.482485,0.625,0.701,-0.227,-1.647,-3.295,0.366,1
9.490682,0.628,0.703,-0.229,-2.624,-2.563,0.488,1
9.498392,0.629,0.7,-0.232,-3.601,-1.831,0.549,1
9.506019,0.619,0.699,-0.235,-3.906,-1.708,0.549,1
9.514261,0.621,0.702,-0.232,-3.601,-0.915,0.915,1
9.522156,0.627,0.706,-0.237,-1.831,-0.61,1.22,1
9.530836,0.622,0.709,-0.239,-0.549,-0.122,1.098,1
9.53922,0.627,0.708,-0.249,0.183,0.244,1.464,1
9.547033,0.626,0.712,-0.251,-0.061,0.854,1.403,1
9.553864,0.624,0.713,-0.26,-0.122,0.854,1.708,1
9.56109,0.624,0.711,-0.264,-0.488,1.159,1.403,1
9.56898,0.62,0.707,-0.271,-1.037,1.342,1.464,1
9.57733,0.612,0.715,-0.281,-0.854,1.525,1.647,1
9.585189,0.609,0.713,-0.288,0.183,1.586,1.647,1
9.591596,0.611,0.72,-0.293,0.732,1.586,2.014,1
9.600564,0.613,0.723,-0.295,1.22,1.77,1.892,1
9.609462,0.624,0.726,-0.302,1.525,1.647,1.953,1
9.616589,0.628,0.72,-0.308,1.037,1.708,2.136,1
9.624454,0.638,0.722,-0.309,0.61,1.586,2.136,1
9.631132,0.64,0.723,-0.313,0.061,1.647,1.892,1
9.640467,0.644,0.727,-0.317,-0.549,1.892,2.197,1
9.647445,0.64,0.729,-0.324,-1.403,1.708,1.892,1
9.65511,0.626,0.732,-0.323,-1.22,1.403,1.892,1
9.663465,0.625,0.733,-0.319,-0.732,1.22,2.014,1
9.672621,0.623,0.734,-0.318,-0.671,1.281,1.831,1
9.679657,0.625,0.729,-0.316,-0.915,1.464,2.014,1
9.688317,0.618,0.728,-0.324,-2.136,1.586,2.136,1
9.697211,0.62,0.731,-0.328,-3.234,1.708,2.319,1
9.70465,0.62,0.735,-0.34,-3.784,1.647,2.136,1
9.713613,0.616,0.743,-0.352,-4.638,1.464,2.136,1
9.720334,0.616,0.749,-0.361,-3.784,1.159,2.014,1
9.728602,0.626,0.748,-0.361,-2.563,0.488,1.77,1
9.735745,0.622,0.748,-0.356,-1.464,0.183,1.708,1
9.745499,0.619,0.749,-0.358,-0.183,-0.183,1.586,1
9.751954,0.626,0.746,-0.361,0.061,-0.427,1.281,1
9.760905,0.625,0.743,-0.357,-0.488,-0.732,1.342,1
9.768935,0.618,0.746,-0.357,-1.525,-1.098,1.159,1
9.776483,0.62,0.748,-0.346,-2.746,-1.22,1.098,1
9.784194,0.621,0.749,-0.343,-3.051,-1.342,1.098,1
9.791942,0.619,0.752,-0.343,-3.051,-1.098,0.793,1
9.800866,0.623,0.746,-0.346,-2.502,-1.22,0.671,1
9.808887,0.62,0.747,-0.345,-2.319,-1.464,0.427,1
9.8165,0.612,0.747,-0.345,-1.953,-2.075,0.61,1
9.825709,0.62,0.745,-0.344,-1.77,-2.258,0.183,1
9.833134,0.622,0.743,-0.339,-1.403,-2.563,0.122,1
9.842015,0.622,0.743,-0.328,-0.793,-2.624,-0.122,1
9.849483,0.622,0.741,-0.328,-1.159,-2.441,-0.061,1
9.858379,0.624,0.741,-0.328,-2.075,-2.868,0.061,1
9.865833,0.621,0.735,-0.321,-2.624,-2.624,-0.061,1
9.876186,0.615,0.737,-0.319,-3.479,-2.38,-0.061,1
9.882562,0.61,0.742,-0.316,-4.089,-2.38,-0.122,1
9.890307,0.608,0.741,-0.316,-3.417,-2.319,-0.061,1
9.898768,0.609,0.743,-0.312,-2.441,-2.258,-0.183,1
9.907982,0.61,0.739,-0.313,-1.831,-2.685,-0.183,1
9.915068,0.617,0.737,-0.308,-1.953,-2.319,-0.488,1
9.924313,0.619,0.738,-0.305,-1.892,-2.197,-0.61,1
9.932021,0.623,0.735,-0.306,-1.892,-2.197,-0.915,1
9.940986,0.615,0.733,-0.314,-1.77,-2.014,-0.976,1
9.949334,0.616,0.733,-0.318,-2.014,-2.258,-0.976,1
9.956058,0.613,0.727,-0.324,-2.441,-1.831,-1.037,1
9.964416,0.612,0.728,-0.323,-2.868,-1.831,-0.915,1
9.973283,0.614,0.718,-0.318,-2.624,-1.892,-1.037,1
9.982598,0.614,0.712,-0.322,-2.075,-1.953,-0.854,1
9.989351,0.612,0.712,-0.324,-1.77,-2.075,-0.915,1
9.998549,0.616,0.715,-0.32,-0.366,-2.38,-0.915,1
