timestamp_s,ax,ay,az,gx,gy,gz,label
0.003944,0.063,1.085,-0.002,17.7,-7.202,1.831,1
0.012736,0.066,1.086,-0.007,19.165,-9.216,0.122,1
0.020335,0.077,1.081,-0.011,20.019,-11.291,-1.464,1
0.02689,0.093,1.07,-0.002,19.348,-12.817,-2.502,1
0.03462,0.113,1.059,0.02,16.235,-13.977,-3.845,1
0.042944,0.112,1.062,0.047,11.779,-14.526,-4.821,1
0.050832,0.117,1.058,0.072,6.347,-14.953,-6.042,1
0.058992,0.12,1.054,0.086,1.892,-15.38,-7.08,1
0.067326,0.122,1.045,0.098,-1.403,-15.686,-7.812,1
0.075422,0.121,1.034,0.121,-3.295,-15.991,-8.422,1
0.084056,0.108,1.028,0.141,-4.15,-15.747,-8.85,1
0.09079,0.099,1.011,0.16,-4.211,-15.441,-8.422,1
0.099129,0.097,1.002,0.183,-4.333,-14.709,-8.178,1
0.107349,0.093,0.996,0.214,-5.554,-13.549,-7.873,1
0.116152,0.092,0.997,0.239,-6.713,-11.962,-7.08,1
0.123021,0.081,1.009,0.264,-7.873,-10.253,-6.713,1
0.131165,0.081,1.019,0.273,-8.483,-7.812,-5.554,1
0.139987,0.065,1.025,0.281,-6.591,-5.92,-4.394,1
0.147096,0.029,1.02,0.28,0.366,-4.333,-2.746,1
0.155876,0.013,1.014,0.272,8.728,-2.99,-1.159,1
0.163815,-0.008,1.005,0.253,14.404,-1.831,-0.122,1
0.172135,-0.02,0.996,0.228,16.784,-0.915,0.793,1
0.180801,-0.026,0.996,0.206,18.188,-0.305,0.976,1
0.187992,-0.02,1.002,0.195,18.737,0.183,0.793,1
0.195716,-0.002,1.002,0.178,17.883,0.915,-0.244,1
0.203529,0.007,1.001,0.162,15.808,1.159,-1.22,1
0.21055,-0.006,0.986,0.139,13.061,1.464,-2.319,1
0.218724,-0.019,0.977,0.113,9.277,1.098,-3.112,1
0.225529,-0.011,0.939,0.087,3.784,0.854,-3.051,1
0.23288,0.0,0.907,0.06,-1.098,0.427,-2.746,1
0.242237,-0.007,0.896,0.045,-5.187,-0.671,-2.319,1
0.250988,-0.021,0.896,0.047,-5.981,-1.77,-1.098,1
0.260252,-0.025,0.891,0.06,-4.882,-2.99,0.0,1
0.267039,-0.017,0.903,0.082,-3.173,-3.662,0.854,1
0.274262,-0.016,0.917,0.102,-1.953,-3.967,1.403,1
0.282197,-0.014,0.932,0.136,-1.525,-3.662,1.953,1
0.289906,-0.012,0.964,0.162,-0.305,-3.173,1.892,1
0.298306,-0.008,0.986,0.181,2.258,-2.075,1.953,1
0.306118,0.007,1.012,0.186,5.371,-1.098,2.075,1
0.312717,0.013,1.056,0.179,9.643,-0.915,1.586,1
0.321474,0.013,1.098,0.18,14.648,-0.244,0.0,1
0.328089,0.021,1.127,0.172,18.188,0.366,-1.159,1
0.335875,0.027,1.145,0.174,18.554,1.159,-2.807,1
0.343122,0.026,1.191,0.176,16.906,2.197,-4.211,1
0.350121,0.02,1.238,0.18,12.512,4.333,-6.713,1
0.358666,0.007,1.274,0.179,7.507,6.469,-9.277,1
0.367095,-0.003,1.278,0.161,2.929,8.666,-11.901,1
0.375192,-0.012,1.254,0.1,-2.197,10.192,-13.854,1
0.383129,-0.012,1.223,0.053,-12.023,11.962,-15.441,1
0.391366,-0.03,1.185,-0.028,-21.118,11.535,-15.258,1
0.400235,0.008,1.166,-0.089,-29.052,10.559,-14.831,1
0.408439,0.024,1.186,-0.123,-34.362,7.019,-15.38,1
0.41662,0.026,1.231,-0.109,-31.86,5.004,-16.174,1
0.424854,0.026,1.274,-0.111,-26.123,2.075,-17.944,1
0.433517,0.033,1.3,-0.096,-21.484,0.671,-20.141,1
0.441075,0.051,1.316,-0.1,-18.981,-1.281,-23.254,1
0.449774,0.069,1.316,-0.107,-21.423,-2.685,-26.855,1
0.458052,0.089,1.306,-0.113,-26.0,-4.333,-29.663,1
0.466923,0.106,1.279,-0.116,-32.775,-5.981,-32.287,1
0.474446,0.131,1.243,-0.111,-39.55,-7.69,-34.973,1
0.484724,0.158,1.208,-0.083,-44.311,-9.094,-36.743,1
0.493113,0.184,1.169,-0.051,-46.752,-10.07,-37.963,1
0.50097,0.197,1.134,0.002,-47.729,-10.62,-38.635,1
0.510273,0.172,1.106,0.035,-49.987,-10.375,-39.245,1
0.518743,0.122,1.089,0.067,-52.856,-9.643,-40.344,1
0.526377,0.08,1.069,0.08,-56.762,-8.911,-42.053,1
0.53529,0.082,1.038,0.083,-62.988,-8.056,-44.067,1
0.544523,0.119,0.987,0.076,-78.735,-7.263,-45.532,1
0.553049,0.157,0.954,0.07,-101.013,-6.225,-46.02,1
0.560107,0.181,0.947,0.067,-119.262,-5.615,-45.41,1
0.568708,0.188,0.952,0.053,-133.178,-5.737,-44.372,1
0.577338,0.208,0.946,0.038,-136.596,-6.835,-42.602,1
0.585363,0.25,0.946,0.012,-130.187,-9.094,-39.733,1
0.593798,0.271,0.962,0.007,-118.347,-11.108,-37.597,1
0.601609,0.229,0.988,0.003,-101.928,-12.634,-35.156,1
0.60992,0.219,1.021,-0.011,-89.355,-13.366,-33.508,1
0.617492,0.226,1.056,-0.026,-85.571,-13.671,-32.043,1
0.624514,0.241,1.105,-0.033,-88.134,-12.878,-31.188,1
0.633105,0.266,1.176,-0.044,-94.299,-11.474,-30.517,1
0.640904,0.295,1.269,-0.058,-100.891,-9.643,-30.761,1
0.647833,0.355,1.384,-0.085,-105.041,-7.69,-31.433,1
0.658525,0.389,1.477,-0.111,-108.947,-5.371,-33.142,1
0.665654,0.408,1.596,-0.146,-112.487,-2.319,-35.705,1
0.674293,0.41,1.479,-0.21,-123.413,0.244,-37.536,1
0.680245,0.401,1.6,-0.274,-134.948,1.953,-39.55,1
0.691089,0.385,1.709,-0.335,-139.038,3.845,-42.053,1
0.698567,0.393,1.78,-0.465,-135.375,4.272,-47.18,1
0.705362,0.412,1.568,-0.636,-117.98,2.868,-49.743,1
0.714825,0.33,1.602,-0.853,-97.29,-0.976,-52.917,1
0.721522,0.268,1.574,-0.843,-72.387,-8.361,-56.823,1
0.729758,0.311,1.561,-0.889,-49.194,-11.779,-60.058,1
0.736792,0.309,1.525,-0.9,-36.071,-17.578,-64.025,1
0.746457,0.299,1.472,-0.871,-26.916,-20.812,-67.871,1
0.752864,0.277,1.407,-0.797,-20.996,-26.0,-72.387,1
0.761744,0.278,1.311,-0.707,-12.451,-28.259,-75.744,1
0.768359,0.271,1.243,-0.604,0.854,-32.287,-78.613,1
0.777275,0.25,1.178,-0.502,20.935,-34.973,-80.993,1
0.783879,0.208,1.111,-0.427,41.687,-38.269,-83.068,1
0.792619,0.174,1.045,-0.32,62.927,-40.588,-84.472,1
0.801087,0.15,0.974,-0.242,84.899,-42.541,-85.937,1
0.808291,0.133,0.907,-0.159,100.585,-42.907,-86.975,1
0.817807,0.166,0.795,-0.121,109.558,-41.259,-87.585,1
0.824994,0.145,0.738,-0.073,107.788,-40.161,-87.341,1
0.833999,0.157,0.668,-0.036,102.905,-36.804,-86.242,1
0.840763,0.113,0.604,-0.008,89.599,-33.996,-85.021,1
0.849327,0.196,0.531,-0.026,73.425,-30.09,-83.068,1
0.856549,0.221,0.495,-0.052,52.001,-27.648,-80.871,1
0.864055,0.277,0.492,-0.063,33.325,-24.78,-77.514,1
0.873094,0.329,0.5,-0.063,16.357,-23.193,-74.157,1
0.881097,0.375,0.526,-0.065,5.981,-21.118,-71.289,1
0.888671,0.399,0.555,-0.065,-4.089,-20.69,-67.81,1
0.897315,0.422,0.595,-0.059,-8.361,-20.263,-65.551,1
0.906404,0.423,0.635,-0.048,-9.277,-20.935,-63.049,1
0.914851,0.416,0.68,-0.035,-5.126,-21.179,-60.729,1
0.923667,0.406,0.725,-0.029,2.624,-22.155,-58.898,1
0.933204,0.4,0.754,-0.024,10.986,-23.254,-57.312,1
0.941628,0.392,0.788,-0.014,15.991,-23.62,-56.213,1
0.948322,0.389,0.818,-0.005,16.113,-23.62,-55.603,1
0.958393,0.385,0.845,0.01,10.986,-22.766,-55.114,1
0.964308,0.382,0.874,0.014,1.098,-21.423,-54.931,1
0.972362,0.395,0.909,0.028,-10.437,-20.263,-55.236,1
0.982032,0.403,0.954,0.043,-19.592,-19.042,-55.725,1
0.989468,0.415,0.983,0.052,-25.146,-18.615,-56.884,1
0.996441,0.444,1.014,0.061,-24.658,-18.92,-58.105,1
1.00525,0.466,1.057,0.073,-17.578,-19.714,-59.02,1
1.011297,0.48,1.083,0.085,-3.234,-21.362,-60.241,1
1.020217,0.493,1.103,0.088,8.422,-22.644,-61.584,1
1.027965,0.501,1.124,0.099,21.545,-23.742,-62.866,1
1.036827,0.508,1.13,0.11,33.569,-24.658,-64.941,1
1.043069,0.527,1.127,0.12,39.428,-25.573,-66.223,1
1.05096,0.541,1.132,0.142,43.518,-25.878,-68.359,1
1.058157,0.532,1.117,0.144,46.264,-26.123,-70.007,1
1.066156,0.538,1.121,0.162,52.307,-26.55,-71.838,1
1.073294,0.523,1.057,0.156,55.664,-26.367,-72.082,1
1.080933,0.564,1.049,0.166,60.791,-26.55,-74.096,1
1.089424,0.545,1.018,0.176,64.086,-25.573,-74.829,1
1.096374,0.535,0.982,0.168,57.067,-23.498,-75.561,1
1.104807,0.553,0.92,0.168,39.672,-21.179,-75.805,1
1.111842,0.558,0.92,0.18,25.817,-18.432,-77.209,1
1.119149,0.577,0.969,0.162,6.225,-14.282,-77.514,1
1.127718,0.549,0.932,0.183,-3.234,-15.075,-78.735,1
1.134876,0.651,1.049,0.168,-3.845,-11.962,-79.467,1
1.142608,0.679,1.032,0.127,1.342,-15.014,-81.42,1
1.150634,0.655,1.017,0.164,18.371,-10.803,-82.153,1
1.158898,0.692,1.016,0.113,30.7,-13.977,-83.923,1
1.167106,0.699,0.982,0.121,39.184,-9.887,-84.777,1
1.174238,0.67,0.93,0.07,31.188,-9.399,-86.425,1
1.182368,0.693,0.921,0.066,24.78,-4.211,-87.402,1
1.189425,0.678,0.917,-0.004,11.718,-2.136,-89.843,1
1.19706,0.624,0.927,-0.001,3.662,2.502,-91.918,1
1.205549,0.614,0.918,-0.042,-4.699,4.15,-93.933,1
1.212179,0.557,0.93,-0.018,-3.417,7.568,-96.496,1
1.220137,0.508,0.928,-0.058,-3.601,9.155,-99.243,1
1.227778,0.47,0.928,-0.028,-0.854,10.498,-102.05,1
1.236139,0.487,0.904,-0.052,3.234,10.559,-104.125,1
1.242747,0.503,0.878,-0.043,9.033,10.62,-106.14,1
1.25094,0.533,0.836,-0.046,13.916,10.07,-107.604,1
1.257764,0.551,0.789,-0.035,16.906,10.375,-109.558,1
1.26631,0.534,0.752,-0.039,17.272,10.437,-110.351,1
1.272632,0.585,0.71,-0.032,15.93,10.437,-111.145,1
1.280639,0.596,0.68,-0.003,17.272,9.399,-111.572,1
1.289027,0.618,0.651,0.014,23.803,9.094,-111.999,1
1.295266,0.618,0.602,0.035,30.578,8.056,-112.304,1
1.302277,0.668,0.546,0.057,38.513,7.69,-112.609,1
1.309933,0.628,0.482,0.083,49.255,6.958,-111.999,1
1.317946,0.631,0.395,0.095,56.03,8.056,-111.145,1
1.32581,0.612,0.304,0.115,57.495,8.85,-109.863,1
1.334296,0.629,0.209,0.139,53.955,11.352,-107.91,1
1.342306,0.614,0.129,0.146,47.241,12.329,-104.064,1
1.350086,0.609,0.075,0.165,49.926,13.427,-100.83,1
1.358743,0.573,0.024,0.174,57.189,13.549,-96.862,1
1.365765,0.535,-0.021,0.195,69.152,14.099,-91.857,1
1.374939,0.548,-0.086,0.21,86.242,14.892,-85.083,1
1.381217,0.598,-0.16,0.235,102.111,16.845,-78.186,1
1.389896,0.68,-0.222,0.249,117.37,19.897,-70.922,1
1.396551,0.712,-0.273,0.25,128.479,23.254,-63.903,1
1.404322,0.702,-0.317,0.243,132.446,27.343,-56.091,1
1.412391,0.668,-0.337,0.215,127.563,31.616,-48.828,1
1.420196,0.641,-0.335,0.182,109.069,36.499,-41.076,1
1.427716,0.602,-0.296,0.151,86.73,40.832,-35.278,1
1.436506,0.604,-0.244,0.122,66.101,43.701,-30.273,1
1.44394,0.628,-0.175,0.089,53.1,45.898,-25.573,1
1.452024,0.659,-0.136,0.059,47.119,46.874,-21.301,1
1.460056,0.666,-0.087,0.026,45.043,47.851,-16.601,1
1.47017,0.646,-0.034,-0.018,44.25,47.546,-12.939,1
1.476746,0.64,0.023,-0.07,46.997,47.058,-9.155,1
1.483553,0.651,0.074,-0.104,52.246,45.532,-6.469,1
1.492091,0.698,0.151,-0.14,61.706,44.128,-4.821,1
1.500066,0.745,0.21,-0.182,72.448,41.809,-2.99,1
1.508721,0.784,0.275,-0.24,79.406,39.123,-1.342,1
1.516412,0.806,0.333,-0.293,75.256,37.902,-0.183,1
1.52505,0.839,0.417,-0.354,61.096,36.376,0.0,1
1.531303,0.823,0.55,-0.395,42.114,34.606,-1.037,1
1.541185,0.816,0.665,-0.45,25.634,31.311,-3.967,1
1.547894,0.813,0.775,-0.463,25.146,27.16,-6.774,1
1.555977,0.848,0.871,-0.484,35.949,21.606,-10.437,1
1.564253,0.846,0.955,-0.496,49.316,16.113,-13.977,1
1.571339,0.869,1.025,-0.517,65.734,9.155,-18.615,1
1.579323,0.919,1.076,-0.539,73.303,3.723,-22.46,1
1.588328,0.899,1.156,-0.508,75.439,-1.098,-26.55,1
1.595473,0.899,1.229,-0.521,70.983,-6.042,-32.348,1
1.604234,0.902,1.266,-0.507,56.945,-9.704,-37.841,1
1.611391,0.933,1.284,-0.5,38.513,-12.573,-44.006,1
1.618959,0.968,1.299,-0.478,19.897,-15.319,-50.354,1
1.626982,0.957,1.308,-0.461,7.019,-18.371,-56.762,1
1.635858,0.95,1.312,-0.44,2.929,-22.583,-64.392,1
1.642449,0.94,1.319,-0.386,12.023,-27.465,-70.556,1
1.651758,0.935,1.285,-0.342,22.155,-30.639,-76.538,1
1.657713,0.89,1.237,-0.24,24.169,-32.958,-82.946,1
1.665773,0.884,1.197,-0.187,27.038,-34.912,-88.317,1
1.67469,0.928,1.141,-0.097,36.315,-36.254,-93.322,1
1.683449,0.979,1.04,-0.01,49.133,-37.109,-97.778,1
1.689355,0.982,0.938,0.083,61.462,-36.315,-102.539,1
1.698613,0.955,0.818,0.157,61.645,-34.179,-106.811,1
1.706262,0.937,0.702,0.265,56.091,-29.785,-110.778,1
1.712733,0.908,0.598,0.364,53.283,-25.451,-115.173,1
1.721976,0.857,0.513,0.476,58.898,-20.385,-119.323,1
1.729148,0.793,0.405,0.565,71.044,-14.77,-123.596,1
1.736473,0.711,0.254,0.655,80.017,-6.042,-128.051,1
1.744992,0.673,0.122,0.698,76.599,2.685,-131.53,1
1.751845,0.652,0.014,0.729,66.772,12.756,-133.483,1
1.759226,0.629,-0.056,0.743,60.607,22.399,-134.948,1
1.767618,0.568,-0.128,0.761,59.509,31.494,-135.131,1
1.774748,0.597,-0.234,0.738,57.617,41.198,-134.155,1
1.781963,0.648,-0.335,0.719,53.649,50.659,-131.896,1
1.790267,0.738,-0.434,0.681,51.635,60.485,-127.38,1
1.797965,0.755,-0.528,0.612,38.757,71.838,-120.666,1
1.806682,0.749,-0.562,0.536,25.39,81.359,-114.257,1
1.815364,0.71,-0.561,0.448,18.676,89.477,-108.703,1
1.822392,0.69,-0.565,0.352,19.287,97.045,-102.966,1
1.830257,0.679,-0.579,0.27,23.01,101.989,-97.473,1
1.839601,0.655,-0.62,0.197,25.024,107.482,-91.674,1
1.847453,0.631,-0.683,0.118,21.728,112.67,-84.899,1
1.85464,0.618,-0.722,0.027,10.498,119.384,-76.11,1
1.863357,0.601,-0.755,-0.097,-2.685,124.084,-68.481,1
1.870889,0.559,-0.752,-0.195,-16.784,128.295,-59.875,1
1.87913,0.524,-0.748,-0.288,-24.963,131.103,-52.734,1
1.887266,0.46,-0.727,-0.368,-29.785,133.483,-44.677,1
1.895919,0.389,-0.704,-0.451,-32.043,134.643,-38.208,1
1.905125,0.335,-0.683,-0.547,-31.677,134.643,-30.273,1
1.912212,0.294,-0.682,-0.649,-32.958,134.582,-23.925,1
1.920031,0.264,-0.708,-0.762,-43.64,134.155,-16.723,1
1.929299,0.286,-0.724,-0.846,-57.8,133.422,-10.62,1
1.936997,0.291,-0.725,-0.939,-63.964,130.554,-3.784,1
1.944377,0.306,-0.741,-1.018,-64.27,127.197,3.112,1
1.953189,0.304,-0.751,-1.109,-71.594,123.352,9.582,1
1.960949,0.271,-0.736,-1.195,-91.125,120.544,15.075,1
1.971286,0.247,-0.697,-1.299,-112.609,117.37,19.47,1
1.976939,0.274,-0.66,-1.37,-120.483,110.961,23.864,1
1.985893,0.312,-0.637,-1.432,-114.135,103.332,27.404,1
1.994601,0.337,-0.637,-1.482,-100.646,93.2,31.799,1
2.002316,0.396,-0.657,-1.515,-87.89,84.838,36.132,1
2.010177,0.482,-0.704,-1.554,-79.223,73.974,41.748,1
2.017769,0.609,-0.727,-1.574,-71.533,65.49,47.607,1
2.026632,0.705,-0.756,-1.599,-76.66,56.274,53.833,1
2.032626,0.739,-0.756,-1.612,-98.571,48.706,60.363,1
2.040887,0.864,-0.728,-1.631,-123.168,41.564,66.406,1
2.049567,0.946,-0.671,-1.65,-128.54,31.616,72.021,1
2.058819,1.026,-0.613,-1.583,-127.38,22.277,77.209,1
2.067079,1.035,-0.538,-1.55,-108.459,4.821,82.763,1
2.074024,1.152,-0.513,-1.449,-96.557,-5.249,87.097,1
2.082985,1.057,-0.454,-1.368,-96.984,-18.249,89.965,1
2.092417,1.116,-0.418,-1.27,-89.416,-26.611,93.811,1
2.101537,1.069,-0.303,-1.121,-86.853,-36.987,95.947,1
2.108843,1.038,-0.176,-1.041,-75.744,-45.959,97.167,1
2.116982,1.023,-0.057,-0.902,-66.04,-53.039,96.801,1
2.125792,1.019,0.036,-0.809,-57.983,-60.913,95.275,1
2.133207,0.995,0.167,-0.655,-47.119,-66.894,93.017,1
2.142147,0.975,0.309,-0.483,-28.503,-73.608,88.439,1
2.150354,0.959,0.425,-0.305,-12.634,-78.125,83.557,1
2.159233,0.918,0.566,-0.109,3.723,-81.909,76.171,1
2.168356,0.805,0.698,0.142,15.319,-83.129,67.565,1
2.175873,0.719,0.778,0.341,26.123,-82.641,57.617,1
2.183136,0.644,0.822,0.537,35.766,-80.688,48.706,1
2.190363,0.603,0.829,0.715,44.86,-76.721,39.794,1
2.199407,0.544,0.793,0.867,48.706,-71.105,31.005,1
2.207641,0.487,0.728,1.054,50.292,-63.354,22.888,1
2.215025,0.48,0.634,1.204,59.02,-53.161,14.831,1
2.2223,0.488,0.522,1.327,62.927,-41.137,10.192,1
2.230233,0.403,0.44,1.39,53.955,-27.77,6.103,1
2.238326,0.322,0.382,1.437,42.236,-13.122,3.173,1
2.245367,0.29,0.308,1.458,36.682,1.831,0.793,1
2.252719,0.27,0.218,1.471,41.809,15.624,-0.244,1
2.261653,0.203,0.081,1.484,59.936,28.93,0.0,1
2.268839,0.224,-0.057,1.487,85.449,42.236,1.525,1
2.278069,0.263,-0.323,1.451,107.116,59.814,6.469,1
2.284742,0.339,-0.588,1.4,111.938,75.927,13.061,1
2.292995,0.369,-0.793,1.316,95.458,94.665,21.911,1
2.300176,0.264,-0.921,1.233,52.429,115.722,32.409,1
2.308369,0.229,-0.974,1.192,7.812,136.291,42.907,1
2.316047,0.155,-1.0,1.054,-19.836,155.151,53.466,1
2.325155,0.016,-1.033,0.948,-51.94,176.635,65.185,1
2.331311,-0.202,-1.006,0.798,-80.932,194.213,74.829,1
2.340498,-0.38,-0.876,0.708,-93.322,208.679,83.618,1
2.349544,-0.515,-0.823,0.518,-99.06,226.867,93.933,1
2.35673,-0.701,-0.792,0.449,-97.473,237.67,100.463,1
2.365283,-0.937,-0.789,0.264,-68.481,248.168,108.703,1
2.373961,-1.215,-0.861,0.111,-46.325,256.53,117.126,1
2.381356,-1.436,-0.876,-0.105,-45.654,265.869,127.441,1
2.390104,-1.714,-0.789,-0.226,-68.786,276.55,139.099,1
2.398189,-1.977,-0.668,-0.372,-87.402,285.034,147.766,1
2.405405,-2.234,-0.579,-0.467,-98.999,291.931,155.517,1
2.413755,-2.51,-0.52,-0.625,-107.849,299.682,164.428,1
2.421573,-2.726,-0.504,-0.735,-111.938,305.48,171.813,1
2.429669,-2.877,-0.547,-0.883,-109.313,310.485,181.335,1
2.438872,-3.088,-0.609,-1.012,-95.947,311.828,191.223,1
2.446582,-3.146,-0.773,-1.165,-72.082,311.34,206.359,1
2.455361,-3.366,-0.883,-1.283,-52.795,308.837,221.74,1
2.462453,-3.519,-1.008,-1.415,-32.653,303.771,240.6,1
2.470448,-3.698,-1.067,-1.477,1.037,293.518,265.869,1
2.478167,-3.927,-1.125,-1.517,28.991,282.409,290.954,1
2.486416,-4.29,-1.069,-1.548,70.19,268.188,319.274,1
2.495373,-4.474,-1.15,-1.63,115.112,252.685,351.135,1
2.503162,-4.68,-1.156,-1.701,178.894,226.989,393.127,1
2.511876,-5.005,-1.161,-1.788,275.085,190.368,439.636,1
2.519711,-5.365,-1.231,-1.921,386.535,142.272,490.722,1
2.52729,-5.867,-1.274,-2.005,472.045,81.726,543.762,1
2.536326,-6.419,-1.275,-2.049,518.066,24.353,589.111,1
2.544362,-7.005,-1.297,-2.109,539.184,-39.916,632.995,1
2.553709,-7.976,-1.2,-2.106,565.185,-118.957,681.579,1
2.560684,-8.917,-1.064,-2.101,598.999,-196.716,718.811,1
2.568572,-10.114,-0.779,-2.082,658.264,-296.325,753.234,1
2.576347,-11.2,-0.483,-2.007,705.322,-392.333,770.446,1
2.585961,-12.601,-0.162,-1.912,734.252,-488.464,774.841,1
2.594218,-14.083,0.148,-1.803,726.501,-614.99,758.789,1
2.603506,-15.579,0.466,-1.615,685.058,-699.462,732.788,1
2.611107,-15.995,0.884,-1.34,622.497,-790.405,691.223,1
2.619644,-15.999,1.358,-0.858,581.909,-867.187,641.906,1
2.628021,-15.999,1.762,-0.357,582.946,-937.622,579.772,1
2.635291,-15.999,1.969,0.159,575.195,-985.29,521.24,1
2.645094,-15.999,2.154,0.5,556.274,-1024.353,457.824,1
2.652525,-15.999,2.15,0.952,538.94,-1053.466,385.253,1
2.661487,-15.999,2.019,1.481,527.587,-1066.467,327.697,1
2.669445,-15.999,2.03,1.797,525.268,-1068.725,265.319,1
2.676742,-15.999,2.144,2.232,533.02,-1074.34,209.899,1
2.685032,-15.999,2.231,2.493,578.002,-1067.443,133.911,1
2.693167,-15.999,2.291,2.592,611.877,-1057.922,58.349,1
2.701154,-15.999,2.333,2.629,653.32,-1034.484,-35.705,1
2.710854,-15.999,2.301,2.518,703.979,-1008.178,-120.361,1
2.718639,-15.993,2.141,2.243,752.929,-971.374,-222.29,1
2.727604,-14.929,1.904,2.118,782.409,-921.081,-319.885,1
2.734904,-13.968,1.605,1.959,797.241,-869.445,-397.827,1
2.744303,-12.877,1.224,1.809,783.813,-794.921,-475.219,1
2.751456,-12.059,0.874,1.628,747.558,-727.233,-531.127,1
2.760757,-11.394,0.553,1.609,647.949,-638.549,-579.528,1
2.768986,-10.754,0.3,1.667,524.841,-563.659,-604.675,1
2.77604,-10.065,0.134,1.697,397.521,-488.098,-617.492,1
2.783639,-9.68,0.028,1.741,342.651,-437.622,-619.201,1
2.792633,-9.136,-0.144,1.819,326.538,-391.784,-615.539,1
2.801286,-8.52,-0.423,1.85,326.66,-340.087,-608.032,1
2.810156,-8.023,-0.73,1.853,314.758,-284.79,-596.679,1
2.819387,-7.295,-1.03,1.817,289.794,-236.877,-584.838,1
2.826767,-6.566,-1.269,1.725,259.887,-184.936,-569.946,1
2.835374,-6.138,-1.449,1.63,227.172,-146.301,-554.687,1
2.842635,-5.43,-1.62,1.547,203.186,-105.834,-535.766,1
2.853254,-4.78,-1.739,1.44,188.049,-74.34,-514.892,1
2.862311,-4.162,-1.867,1.346,179.321,-44.372,-491.882,1
2.869324,-3.781,-1.948,1.277,174.255,-23.315,-466.003,1
2.878409,-3.502,-2.025,1.217,180.786,-2.38,-437.744,1
2.885494,-3.322,-2.097,1.182,190.551,12.695,-412.292,1
2.89419,-3.069,-2.211,1.099,187.561,31.249,-379.821,1
2.903297,-2.725,-2.282,1.064,175.17,47.851,-347.351,1
2.912067,-2.494,-2.297,1.009,164.611,60.546,-319.458,1
2.919264,-2.272,-2.312,0.992,159.362,73.181,-286.499,1
2.928553,-2.046,-2.329,0.935,155.029,84.472,-254.699,1
2.935477,-1.851,-2.31,0.895,147.094,94.299,-227.844,1
2.944536,-1.659,-2.273,0.815,129.089,102.172,-201.965,1
2.952942,-1.494,-2.202,0.775,103.149,110.778,-173.4,1
2.961639,-1.362,-2.116,0.729,84.289,116.149,-151.062,1
2.970331,-1.191,-2.037,0.702,70.861,121.459,-126.159,1
2.978603,-1.002,-1.962,0.656,61.401,124.755,-102.966,1
2.987494,-0.895,-1.848,0.622,51.33,127.502,-81.176,1
2.994112,-0.815,-1.705,0.602,44.799,129.211,-64.331,1
3.005082,-0.746,-1.576,0.572,42.968,129.943,-46.203,1
3.011093,-0.695,-1.438,0.541,43.945,129.76,-29.418,1
3.020582,-0.638,-1.321,0.5,43.334,129.272,-16.784,1
3.028677,-0.565,-1.185,0.458,37.536,128.479,-3.784,1
3.03599,-0.499,-1.08,0.427,28.198,127.807,7.995,1
3.044843,-0.443,-0.974,0.408,23.986,125.732,16.54,1
3.052314,-0.364,-0.881,0.391,24.475,123.84,23.925,1
3.059245,-0.324,-0.802,0.386,25.573,121.154,30.578,1
3.067019,-0.259,-0.734,0.364,24.536,119.567,35.949,1
3.075835,-0.185,-0.679,0.367,22.705,117.004,41.992,1
3.083598,-0.115,-0.621,0.364,22.888,114.929,46.325,1
3.091178,-0.068,-0.564,0.368,23.132,112.792,49.255,1
3.099232,-0.022,-0.501,0.374,23.437,110.534,51.818,1
3.106684,0.026,-0.44,0.378,22.766,108.032,53.894,1
3.114981,0.07,-0.391,0.386,21.972,105.957,55.053,1
3.122617,0.117,-0.349,0.388,19.775,103.393,56.091,1
3.131508,0.162,-0.322,0.393,14.648,101.501,56.396,1
3.139073,0.213,-0.316,0.392,7.324,100.097,56.335,1
3.146111,0.309,-0.32,0.389,0.183,98.937,56.152,1
3.155203,0.421,-0.311,0.393,-4.272,97.167,55.908,1
3.162436,0.511,-0.294,0.398,-2.38,94.787,55.725,1
3.16947,0.562,-0.275,0.399,5.737,91.796,55.847,1
3.1771,0.598,-0.267,0.396,15.197,88.378,55.725,1
3.18635,0.65,-0.26,0.396,24.902,84.35,56.03,1
3.193589,0.725,-0.253,0.41,32.47,80.444,56.579,1
3.201171,0.775,-0.24,0.425,39.489,77.392,57.312,1
3.209909,0.78,-0.228,0.422,43.518,74.157,57.922,1
3.218177,0.782,-0.232,0.432,46.02,71.838,58.593,1
3.226056,0.817,-0.24,0.433,48.95,69.702,59.692,1
3.233459,0.865,-0.238,0.45,52.612,67.077,60.791,1
3.242046,0.872,-0.224,0.454,58.715,64.331,61.462,1
3.248239,0.875,-0.218,0.47,67.687,61.401,62.255,1
3.255763,0.906,-0.225,0.456,75.317,59.448,62.622,1
3.264549,0.932,-0.235,0.459,79.101,56.884,62.927,1
3.271221,0.962,-0.242,0.454,79.284,54.931,63.598,1
3.279842,0.946,-0.245,0.464,77.148,52.917,64.086,1
3.287183,1.002,-0.256,0.473,74.401,50.781,65.368,1
3.295357,0.995,-0.229,0.503,73.913,50.17,66.711,1
3.304412,1.033,-0.208,0.509,73.608,47.973,68.115,1
3.310595,1.008,-0.173,0.536,75.073,48.583,69.458,1
3.318448,1.019,-0.147,0.518,74.279,46.752,70.922,1
3.326542,0.979,-0.13,0.54,75.317,47.79,72.57,1
3.334061,0.998,-0.127,0.524,74.462,45.349,73.547,1
3.34326,1.052,-0.108,0.532,74.218,46.203,75.195,1
3.350819,1.035,-0.091,0.531,72.875,45.41,76.049,1
3.358207,1.071,-0.075,0.566,71.35,44.799,76.66,1
3.367232,0.97,0.04,0.604,98.754,44.067,77.27,1
3.375548,1.025,0.036,0.659,134.521,40.344,77.941,1
3.382791,1.006,0.028,0.63,146.85,37.475,78.552,1
3.39034,0.956,0.039,0.669,148.01,36.926,78.43,1
3.397997,1.057,0.046,0.649,143.249,36.499,78.063,1
3.406538,1.035,0.058,0.685,136.413,36.865,77.697,1
3.413259,1.032,0.063,0.645,126.77,36.132,76.721,1
3.422007,1.008,0.083,0.656,118.713,37.902,75.073,1
3.427936,1.004,0.109,0.595,113.586,38.085,73.913,1
3.435765,0.958,0.122,0.587,107.971,39.245,71.96,1
3.443603,0.942,0.137,0.523,102.416,40.344,70.19,1
3.451217,0.927,0.163,0.514,99.182,41.809,68.298,1
3.459115,0.913,0.187,0.477,99.182,43.09,66.162,1
3.466481,0.886,0.198,0.471,102.783,44.189,64.086,1
3.475205,0.894,0.193,0.416,106.567,46.325,62.194,1
3.482615,0.895,0.194,0.42,108.764,48.706,60.668,1
3.491547,0.817,0.304,0.365,125.915,52.246,59.265,1
3.499541,0.808,0.302,0.431,149.414,49.56,57.312,1
3.506619,0.91,0.253,0.334,186.035,48.645,58.288,1
3.514047,0.936,0.193,0.373,204.528,47.607,58.288,1
3.522932,0.842,0.176,0.295,211.608,48.645,58.471,1
3.530494,0.926,0.209,0.353,215.27,48.889,59.875,1
3.538092,0.958,0.194,0.29,211.608,48.889,60.668,1
3.545428,0.879,0.203,0.341,202.087,51.208,62.072,1
3.554279,0.838,0.234,0.297,195.617,51.635,63.659,1
3.560414,0.858,0.234,0.33,185.607,54.626,66.101,1
3.569239,0.828,0.221,0.308,168.579,55.847,67.993,1
3.576723,0.762,0.215,0.346,146.972,59.326,70.19,1
3.586356,0.783,0.253,0.317,128.356,61.462,72.326,1
3.594882,0.797,0.304,0.354,119.445,63.964,73.547,1
3.602116,0.803,0.331,0.326,118.896,65.673,74.401,1
3.611772,0.797,0.37,0.352,128.479,68.359,75.317,1
3.618573,0.769,0.395,0.332,138.732,68.359,75.744,1
3.625912,0.74,0.431,0.34,148.193,70.068,76.049,1
3.633107,0.71,0.457,0.331,155.456,69.396,76.171,1
3.641527,0.684,0.476,0.337,166.503,70.556,77.209,1
3.650193,0.669,0.496,0.31,173.95,70.739,78.063,1
3.657131,0.648,0.502,0.311,174.194,72.875,79.895,1
3.666412,0.637,0.503,0.274,162.963,74.523,81.054,1
3.674268,0.63,0.512,0.263,141.967,78.369,81.787,1
3.681881,0.618,0.529,0.231,122.558,80.627,82.153,1
3.690091,0.6,0.562,0.225,106.872,83.679,82.031,1
3.697694,0.618,0.597,0.206,95.764,86.059,81.604,1
3.70576,0.614,0.648,0.205,92.895,89.599,79.895,1
3.712913,0.61,0.684,0.209,96.496,91.857,77.88,1
3.720547,0.607,0.713,0.219,104.309,94.177,75.622,1
3.729317,0.59,0.728,0.219,112.243,96.313,72.998,1
3.736861,0.568,0.732,0.218,117.431,98.999,70.861,1
3.744084,0.552,0.727,0.208,117.553,101.562,68.786,1
3.75157,0.55,0.73,0.197,111.389,105.102,66.833,1
3.759283,0.56,0.734,0.175,103.393,107.666,65.185,1
3.76704,0.569,0.745,0.154,93.749,110.046,63.72,1
3.77401,0.591,0.767,0.122,83.068,112.854,62.133,1
3.782583,0.602,0.795,0.085,73.73,115.234,60.607,1
3.789985,0.598,0.84,0.041,67.504,117.736,57.678,1
3.799241,0.595,0.855,0.0,66.101,118.652,55.297,1
3.804903,0.552,0.875,-0.034,67.993,120.117,52.185,1
3.813713,0.518,0.887,-0.06,72.631,121.154,49.194,1
3.820757,0.488,0.89,-0.088,77.575,121.643,46.203,1
3.829427,0.479,0.868,-0.121,82.336,122.314,43.029,1
3.835507,0.472,0.853,-0.142,84.045,122.985,40.954,1
3.84315,0.502,0.86,-0.165,85.449,123.901,39.245,1
3.851426,0.526,0.897,-0.201,87.463,124.389,37.78,1
3.858246,0.538,0.939,-0.25,91.674,124.267,36.071,1
3.867031,0.552,0.974,-0.284,95.642,123.901,34.545,1
3.874591,0.545,1.001,-0.333,97.595,123.352,32.287,1
3.883254,0.528,1.02,-0.378,96.191,122.985,30.151,1
3.892591,0.523,1.04,-0.405,92.651,122.436,27.709,1
3.89959,0.52,1.054,-0.421,93.749,121.215,24.841,1
3.908674,0.524,1.069,-0.436,101.44,118.957,22.827,1
3.917669,0.522,1.076,-0.438,112.06,116.149,20.812,1
3.924639,0.54,1.083,-0.452,126.525,113.281,18.92,1
3.934254,0.532,1.086,-0.472,136.291,110.351,17.15,1
3.941674,0.553,1.097,-0.49,137.634,108.581,15.808,1
3.950094,0.534,1.097,-0.507,135.375,106.811,14.343,1
3.957697,0.514,1.085,-0.502,129.272,105.834,12.512,1
3.966087,0.5,1.074,-0.506,119.262,105.163,10.62,1
3.973875,0.476,1.061,-0.498,110.107,104.919,8.789,1
3.98076,0.454,1.046,-0.487,102.233,104.98,7.263,1
3.990394,0.445,1.034,-0.48,94.97,104.919,5.493,1
3.998193,0.423,1.034,-0.483,87.097,104.553,3.295,1
4.006795,0.428,1.013,-0.466,77.148,104.553,0.732,1
4.013219,0.441,0.997,-0.467,71.105,104.431,-1.342,1
4.022117,0.458,0.992,-0.445,72.021,104.187,-3.356,1
4.029819,0.464,0.973,-0.438,78.186,103.576,-5.065,1
4.036515,0.513,0.966,-0.418,86.425,103.515,-6.408,1
4.045129,0.488,0.948,-0.423,91.613,102.539,-7.629,1
4.052107,0.56,0.917,-0.423,95.031,103.637,-8.789,1
4.060168,0.613,0.906,-0.436,95.703,104.553,-9.399,1
4.068517,0.669,0.919,-0.48,91.613,105.712,-10.131,1
4.076472,0.599,0.924,-0.508,83.557,105.957,-10.986,1
4.08408,0.613,0.932,-0.516,75.256,106.933,-11.901,1
4.091733,0.644,0.952,-0.501,69.396,106.018,-13.061,1
4.099688,0.637,0.968,-0.514,69.58,105.468,-13.977,1
4.107626,0.621,0.974,-0.528,70.739,103.942,-15.38,1
4.115385,0.604,0.954,-0.554,67.81,103.027,-16.845,1
4.124726,0.63,0.963,-0.562,65.979,101.989,-18.005,1
4.132989,0.579,0.953,-0.595,68.359,100.341,-19.47,1
4.140708,0.592,0.951,-0.622,68.664,99.365,-21.057,1
4.148267,0.552,0.954,-0.634,69.03,97.839,-22.644,1
4.155802,0.531,0.95,-0.645,70.8,96.923,-24.536,1
4.165823,0.512,0.945,-0.644,75.988,95.764,-26.306,1
4.174889,0.46,0.916,-0.634,81.481,94.482,-28.381,1
4.181265,0.443,0.865,-0.603,82.092,94.177,-29.724,1
4.190373,0.407,0.827,-0.575,82.031,94.848,-31.249,1
4.198484,0.416,0.79,-0.554,79.895,95.703,-31.555,1
4.205695,0.354,0.746,-0.545,72.387,96.496,-32.287,1
4.215474,0.369,0.715,-0.522,61.767,97.778,-32.592,1
4.223415,0.372,0.691,-0.511,53.283,99.06,-32.897,1
4.231827,0.314,0.686,-0.502,52.917,98.876,-33.264,1
4.238804,0.371,0.635,-0.514,58.959,99.548,-32.897,1
4.247395,0.347,0.587,-0.504,66.65,98.205,-32.592,1
4.254305,0.348,0.528,-0.512,76.354,97.778,-30.761,1
4.263236,0.368,0.486,-0.511,86.242,97.167,-28.015,1
4.270815,0.384,0.471,-0.535,91.552,97.106,-25.085,1
4.278962,0.403,0.472,-0.548,89.172,96.618,-22.277,1
4.285688,0.349,0.466,-0.579,83.068,97.229,-19.47,1
4.294152,0.341,0.482,-0.589,75.561,96.313,-16.357,1
4.303015,0.389,0.496,-0.602,72.753,95.52,-13.305,1
4.311769,0.41,0.51,-0.637,74.035,94.238,-10.253,1
4.31908,0.436,0.506,-0.653,78.674,90.942,-6.469,1
4.328175,0.427,0.501,-0.697,82.336,88.317,-2.38,1
4.335119,0.395,0.526,-0.712,82.824,86.486,1.464,1
4.342861,0.383,0.543,-0.744,83.74,83.984,5.187,1
4.350495,0.356,0.574,-0.762,84.167,81.909,8.239,1
4.358959,0.346,0.607,-0.8,83.801,80.261,10.864,1
4.365673,0.345,0.648,-0.822,80.566,78.125,13.183,1
4.372896,0.336,0.69,-0.836,76.232,76.538,14.526,1
4.381363,0.354,0.743,-0.867,72.326,74.523,15.563,1
4.389768,0.415,0.788,-0.875,67.443,70.983,16.723,1
4.39716,0.429,0.85,-0.875,66.04,68.786,17.395,1
4.404346,0.451,0.907,-0.908,68.176,64.697,17.211,1
4.412585,0.458,0.94,-0.897,68.176,60.852,17.333,1
4.42032,0.476,0.977,-0.924,71.472,58.166,16.784,1
4.427509,0.459,1.025,-0.914,70.373,53.527,15.869,1
4.435806,0.491,1.065,-0.919,72.082,53.283,15.075,1
4.444452,0.489,1.088,-0.942,72.509,48.156,13.244,1
4.452872,0.441,1.1,-0.914,66.162,47.851,11.596,1
4.45929,0.455,1.119,-0.954,58.349,44.921,9.887,1
4.466947,0.456,1.135,-0.925,48.645,43.273,6.774,1
4.475261,0.438,1.15,-0.907,36.926,41.748,4.089,1
4.482352,0.452,1.171,-0.906,32.653,39.55,1.037,1
4.491723,0.444,1.186,-0.892,31.555,36.56,-2.502,1
4.499061,0.461,1.187,-0.878,33.447,33.386,-5.92,1
4.507155,0.477,1.187,-0.864,37.597,30.029,-8.911,1
4.514725,0.483,1.169,-0.861,43.945,26.672,-11.84,1
4.522649,0.479,1.14,-0.852,48.889,22.583,-15.014,1
4.530369,0.462,1.099,-0.839,49.621,19.897,-17.639,1
4.53841,0.446,1.057,-0.819,48.339,17.333,-19.836,1
4.548385,0.445,1.006,-0.794,46.874,15.258,-21.545,1
4.556241,0.44,0.947,-0.765,46.325,12.573,-23.132,1
4.563873,0.441,0.907,-0.75,42.663,10.803,-24.475,1
4.572945,0.441,0.879,-0.737,36.254,9.399,-25.268,1
4.580255,0.447,0.85,-0.72,27.038,7.934,-26.245,1
4.587347,0.458,0.826,-0.705,20.996,6.164,-26.672,1
4.596264,0.458,0.802,-0.693,17.944,4.211,-26.794,1
4.60323,0.473,0.779,-0.692,16.479,2.136,-26.733,1
4.610314,0.456,0.743,-0.687,15.502,-0.244,-26.55,1
4.619037,0.449,0.72,-0.689,14.831,-2.624,-26.062,1
4.62687,0.476,0.693,-0.692,14.038,-5.31,-25.512,1
4.635102,0.498,0.679,-0.706,11.535,-8.361,-24.475,1
4.642153,0.495,0.668,-0.709,3.906,-10.192,-23.376,1
4.65159,0.489,0.666,-0.737,-4.699,-11.84,-21.85,1
4.659134,0.517,0.686,-0.75,-15.991,-13.488,-20.629,1
4.667298,0.557,0.705,-0.759,-28.015,-15.441,-20.141,1
4.676362,0.526,0.726,-0.781,-32.653,-18.31,-19.836,1
4.683527,0.491,0.745,-0.79,-26.855,-21.972,-19.714,1
4.692727,0.52,0.749,-0.796,-9.887,-27.099,-19.409,1
4.700078,0.508,0.754,-0.795,10.375,-31.982,-18.92,1
4.708171,0.521,0.767,-0.794,28.442,-37.109,-18.554,1
4.718076,0.565,0.775,-0.79,46.325,-41.503,-18.859,1
4.726515,0.6,0.791,-0.774,50.903,-44.494,-19.47,1
4.734099,0.614,0.812,-0.752,46.325,-46.264,-20.324,1
4.742589,0.636,0.831,-0.73,37.597,-46.874,-21.545,1
4.751365,0.651,0.843,-0.7,28.198,-46.997,-22.949,1
4.759164,0.703,0.849,-0.69,16.479,-46.02,-24.475,1
4.768336,0.754,0.861,-0.698,3.356,-45.593,-25.695,1
4.776743,0.797,0.87,-0.687,-6.958,-45.166,-26.611,1
4.785268,0.782,0.875,-0.668,-16.174,-44.555,-27.099,1
4.792827,0.762,0.891,-0.672,-27.221,-44.067,-27.709,1
4.799807,0.79,0.922,-0.634,-35.583,-43.945,-28.93,1
4.807653,0.886,0.955,-0.633,-40.222,-42.785,-29.602,1
4.815691,0.816,0.985,-0.604,-42.663,-44.311,-31.188,1
4.823979,0.821,1.015,-0.591,-46.508,-43.395,-33.508,1
4.832348,0.784,1.055,-0.57,-59.875,-42.419,-35.644,1
4.840821,0.784,1.106,-0.577,-71.044,-42.968,-37.658,1
4.848033,0.775,1.134,-0.547,-76.66,-44.433,-40.527,1
4.856285,0.848,1.174,-0.535,-70.129,-45.104,-42.724,1
4.863983,0.837,1.207,-0.537,-57.617,-49.072,-45.288,1
4.872851,0.815,1.199,-0.498,-38.269,-52.246,-47.973,1
4.879263,0.818,1.224,-0.499,-26.916,-55.053,-50.903,1
4.887195,0.803,1.244,-0.477,-23.071,-56.396,-54.26,1
4.896132,0.804,1.265,-0.46,-27.038,-57.189,-57.189,1
4.903239,0.806,1.286,-0.44,-34.851,-58.166,-60.302,1
4.912406,0.833,1.341,-0.413,-42.541,-58.288,-63.11,1
4.921122,0.835,1.429,-0.38,-43.762,-60.913,-66.894,1
4.928804,0.825,1.525,-0.375,-33.325,-63.964,-70.434,1
4.937157,0.807,1.6,-0.354,-14.77,-68.725,-74.462,1
4.94465,0.789,1.63,-0.359,10.62,-73.974,-79.528,1
4.952783,0.774,1.637,-0.365,27.77,-78.247,-84.96,1
4.961703,0.729,1.641,-0.357,41.137,-81.665,-91.125,1
4.969483,0.668,1.636,-0.334,46.508,-83.557,-97.167,1
4.97694,0.614,1.625,-0.307,47.363,-84.228,-104.858,1
4.984393,0.568,1.6,-0.258,41.687,-83.862,-111.572,1
4.992841,0.478,1.592,-0.199,37.658,-83.312,-118.591,1
5.001534,0.374,1.571,-0.128,34.667,-81.481,-125.915,1
5.009332,0.287,1.494,-0.032,31.005,-79.528,-134.887,1
5.016517,0.218,1.434,0.086,31.921,-77.209,-142.211,1
5.024948,0.166,1.364,0.187,33.935,-73.852,-149.841,1
5.032163,0.145,1.27,0.3,32.043,-70.739,-155.212,1
5.040419,0.163,1.19,0.437,30.273,-67.26,-159.851,1
5.04848,0.146,1.103,0.578,29.418,-62.255,-163.818,1
5.055601,0.144,1.031,0.72,29.418,-55.969,-167.724,1
5.064709,0.11,0.941,0.867,30.151,-49.011,-171.386,1
5.072632,0.125,0.894,0.984,32.531,-37.475,-176.391,1
5.079358,0.058,0.862,1.084,40.161,-27.282,-182.067,1
5.088206,-0.043,0.788,1.172,51.147,-16.296,-187.133,1
5.097663,-0.1,0.683,1.224,61.096,-2.99,-193.176,1
5.105516,-0.167,0.528,1.26,63.781,11.352,-197.998,1
5.114336,-0.201,0.406,1.279,60.424,26.672,-200.866,1
5.123151,-0.231,0.273,1.266,57.739,42.419,-202.575,1
5.13202,-0.224,0.153,1.269,54.016,55.053,-202.88,1
5.14002,-0.223,0.041,1.247,45.471,72.021,-201.049,1
5.147983,-0.263,-0.053,1.203,32.592,86.669,-198.425,1
5.155168,-0.304,-0.12,1.143,13.244,103.027,-194.824,1
5.164885,-0.336,-0.178,1.073,-2.563,116.333,-191.894,1
5.172371,-0.359,-0.242,0.992,-12.695,130.004,-187.988,1
5.180821,-0.375,-0.298,0.895,-10.864,142.272,-183.959,1
5.191249,-0.403,-0.378,0.797,-1.953,152.282,-180.053,1
5.200067,-0.455,-0.46,0.675,10.437,164.611,-173.889,1
5.207652,-0.5,-0.559,0.556,19.226,175.842,-166.87,1
5.215415,-0.541,-0.651,0.448,24.78,184.936,-160.095,1
5.223873,-0.561,-0.728,0.356,31.005,195.19,-151.367,1
5.232144,-0.641,-0.798,0.272,33.691,203.796,-142.822,1
5.240349,-0.67,-0.87,0.186,35.827,213.256,-132.446,1
5.248609,-0.699,-0.954,0.101,36.315,220.886,-122.924,1
5.257909,-0.814,-0.978,0.004,37.597,229.248,-111.45,1
5.266751,-0.968,-1.015,-0.065,38.879,235.839,-98.632,1
5.275854,-1.023,-1.057,-0.193,51.879,244.14,-84.716,1
5.284935,-1.159,-1.026,-0.229,58.166,247.802,-73.547,1
5.292358,-1.201,-1.098,-0.366,56.945,254.272,-59.875,1
5.300637,-1.335,-1.058,-0.395,58.654,255.798,-48.828,1
5.309203,-1.449,-1.104,-0.493,60.058,259.826,-33.996,1
5.318229,-1.468,-1.06,-0.529,61.645,263.61,-20.629,1
5.32686,-1.474,-1.154,-0.625,58.532,264.953,-5.126,1
5.332913,-1.556,-1.167,-0.651,42.358,268.981,12.023,1
5.341011,-1.572,-1.177,-0.735,37.902,270.507,27.893,1
5.351168,-1.613,-1.248,-0.745,49.072,270.629,44.982,1
5.360293,-1.655,-1.281,-0.84,77.453,268.066,66.955,1
5.367669,-1.722,-1.287,-0.911,124.816,264.526,91.613,1
5.37644,-1.831,-1.338,-0.995,180.664,257.629,119.628,1
5.383096,-1.958,-1.409,-1.096,226.318,249.45,147.766,1
5.392493,-2.064,-1.502,-1.209,269.714,236.389,184.02,1
5.399374,-2.131,-1.576,-1.316,299.987,223.632,217.041,1
5.406001,-2.398,-1.592,-1.453,319.702,206.115,251.281,1
5.416928,-2.5,-1.582,-1.461,345.52,187.011,286.926,1
5.423967,-2.661,-1.553,-1.64,388.305,158.691,329.223,1
5.435058,-2.921,-1.525,-1.691,434.753,121.643,372.497,1
5.441494,-3.262,-1.445,-1.838,479.553,78.002,414.245,1
5.450483,-3.616,-1.432,-1.919,498.718,28.808,454.833,1
5.459139,-4.008,-1.381,-2.017,494.995,-16.967,486.877,1
5.46609,-4.542,-1.279,-2.0,484.008,-72.814,519.958,1
5.474568,-5.035,-1.207,-2.021,474.243,-123.229,544.555,1
5.484378,-5.661,-1.196,-1.969,452.636,-181.457,570.129,1
5.491512,-6.351,-1.181,-1.908,412.536,-238.159,593.078,1
5.501539,-7.063,-1.148,-1.772,376.403,-282.043,610.839,1
5.508551,-7.765,-1.086,-1.656,333.801,-332.031,630.065,1
5.517453,-8.712,-0.965,-1.482,300.048,-376.037,647.766,1
5.52659,-9.59,-0.867,-1.314,266.296,-417.541,663.024,1
5.535223,-10.374,-0.653,-1.167,268.249,-451.171,675.048,1
5.542376,-11.264,-0.385,-0.994,321.35,-495.971,682.861,1
5.551344,-12.003,-0.168,-0.92,384.582,-549.682,681.03,1
5.559807,-12.82,0.103,-0.799,457.641,-600.891,671.081,1
5.566595,-13.521,0.355,-0.686,534.423,-660.217,649.108,1
5.575019,-14.292,0.545,-0.522,581.42,-727.416,611.511,1
5.583325,-14.984,0.722,-0.325,572.387,-778.076,571.655,1
5.591409,-15.457,0.987,-0.044,527.832,-824.157,522.705,1
5.599552,-15.521,1.273,0.297,483.642,-854.553,481.506,1
5.60776,-15.457,1.402,0.64,449.523,-880.737,435.729,1
5.615954,-15.572,1.469,1.023,446.472,-899.23,401.55,1
5.623428,-15.612,1.75,1.417,494.628,-912.597,361.511,1
5.632307,-15.815,2.083,1.69,628.112,-937.438,295.898,1
5.639115,-15.766,2.261,1.961,777.893,-952.941,221.618,1
5.647844,-15.051,2.239,1.943,919.067,-961.242,126.342,1
5.655571,-14.044,1.943,1.858,991.149,-951.721,19.775,1
5.663889,-12.676,1.581,1.642,965.82,-913.574,-102.783,1
5.670728,-12.003,1.448,1.504,903.076,-867.37,-196.105,1
5.679074,-11.436,1.354,1.409,817.687,-808.898,-274.78,1
5.688676,-10.439,1.202,1.24,692.993,-741.21,-347.656,1
5.695311,-9.624,1.104,1.195,576.965,-682.373,-394.103,1
5.704573,-8.946,1.037,1.217,463.806,-628.784,-427.917,1
5.711151,-8.602,0.999,1.294,361.389,-571.105,-455.078,1
5.718632,-8.325,0.915,1.402,292.419,-527.648,-471.679,1
5.728223,-7.702,0.726,1.513,224.914,-484.558,-482.421,1
5.735303,-7.063,0.625,1.569,154.968,-444.885,-488.037,1
5.744324,-6.687,0.564,1.625,125.061,-416.32,-487.06,1
5.753073,-6.169,0.508,1.667,136.352,-388.305,-482.727,1
5.760926,-5.958,0.583,1.753,186.706,-367.675,-479.919,1
5.769133,-5.774,0.492,1.848,271.484,-338.378,-479.553,1
5.77586,-5.641,0.355,1.823,334.167,-309.814,-480.102,1
5.784123,-5.345,0.031,1.808,366.332,-275.207,-479.797,1
5.792366,-4.991,-0.263,1.748,350.219,-231.262,-476.257,1
5.801128,-4.623,-0.491,1.708,308.654,-194.091,-469.238,1
5.809607,-4.216,-0.686,1.663,262.695,-161.56,-459.533,1
5.816579,-3.935,-0.838,1.639,220.703,-129.15,-443.908,1
5.825502,-3.688,-1.04,1.635,190.917,-102.722,-430.236,1
5.83386,-3.46,-1.198,1.562,137.512,-75.805,-411.743,1
5.842146,-3.21,-1.28,1.586,102.844,-57.678,-395.69,1
5.850736,-2.842,-1.359,1.561,84.472,-39.367,-376.037,1
5.859103,-2.522,-1.424,1.581,93.444,-23.62,-355.468,1
5.868019,-2.287,-1.511,1.56,113.159,-10.62,-336.73,1
5.876533,-2.053,-1.62,1.564,134.033,6.774,-313.537,1
5.88407,-1.813,-1.688,1.52,142.578,24.658,-289.55,1
5.892799,-1.645,-1.741,1.464,136.474,40.649,-268.127,1
5.90194,-1.468,-1.729,1.39,118.53,55.175,-247.07,1
5.909752,-1.344,-1.696,1.345,98.632,71.228,-219.421,1
5.916711,-1.232,-1.662,1.285,91.369,82.336,-195.861,1
5.925126,-1.123,-1.632,1.241,90.576,90.942,-176.513,1
5.932076,-1.026,-1.607,1.18,88.256,97.595,-157.714,1
5.942367,-0.914,-1.565,1.12,83.801,104.187,-139.77,1
5.949539,-0.783,-1.512,1.044,80.688,110.473,-119.934,1
5.958649,-0.674,-1.446,0.973,70.739,116.21,-100.952,1
5.96571,-0.588,-1.381,0.909,60.791,119.628,-85.876,1
5.976237,-0.528,-1.281,0.845,52.734,123.413,-68.847,1
5.983538,-0.388,-1.161,0.806,54.138,124.816,-53.955,1
5.991297,-0.363,-1.06,0.75,62.438,126.342,-39.306,1
6.001525,-0.288,-0.986,0.706,61.95,126.525,-28.32,1
6.007776,-0.244,-0.895,0.666,60.18,127.99,-17.944,1
6.017385,-0.192,-0.817,0.626,56.03,128.295,-7.385,1
6.024559,-0.158,-0.737,0.598,52.734,129.455,0.976,1
6.031132,-0.035,-0.647,0.576,50.17,129.028,8.117,1
6.038772,0.006,-0.556,0.546,52.856,129.333,14.648,1
6.049074,0.01,-0.482,0.505,54.809,128.601,20.08,1
6.055962,0.037,-0.42,0.476,53.222,128.295,25.634,1
6.063088,0.14,-0.366,0.451,50.109,126.953,30.395,1
6.070716,0.242,-0.311,0.446,48.706,126.159,34.301,1
6.079405,0.314,-0.258,0.431,49.743,124.572,38.085,1
6.086928,0.358,-0.208,0.429,51.574,123.291,41.564,1
6.094159,0.392,-0.157,0.406,54.504,122.009,45.288,1
6.102882,0.419,-0.133,0.391,54.809,120.239,47.607,1
6.111011,0.503,-0.066,0.368,55.175,119.384,49.865,1
6.117818,0.508,-0.051,0.36,50.842,117.675,51.513,1
6.125567,0.558,-0.018,0.334,46.447,117.309,52.978,1
6.132981,0.549,-0.003,0.336,41.015,115.356,53.771,1
6.140566,0.562,0.023,0.327,40.832,115.417,55.114,1
6.149591,0.652,0.075,0.308,47.363,113.647,56.274,1
6.157539,0.663,0.054,0.302,55.969,111.999,57.983,1
6.164928,0.706,0.062,0.25,56.701,111.511,59.326,1
6.173251,0.717,0.099,0.24,57.128,110.534,60.485,1
6.181247,0.788,0.137,0.198,63.293,108.398,61.584,1
6.188778,0.773,0.15,0.216,68.237,106.384,62.499,1
6.196924,0.778,0.189,0.186,74.829,102.355,64.147,1
6.204307,0.788,0.228,0.216,82.641,99.609,64.453,1
6.211879,0.805,0.264,0.209,98.449,94.604,65.368,1
6.220816,0.791,0.292,0.239,115.356,89.538,66.04,1
6.228731,0.792,0.313,0.227,135.498,85.205,66.772,1
6.235596,0.79,0.309,0.211,153.808,79.65,67.382,1
6.245138,0.825,0.278,0.165,156.738,77.392,67.565,1
6.252103,0.868,0.244,0.141,146.423,75.866,68.054,1
6.260855,0.979,0.25,0.1,123.779,75.805,68.725,1
6.26877,1.027,0.265,0.074,101.379,76.721,68.603,1
6.275552,1.015,0.3,0.039,80.017,78.491,67.321,1
6.284585,1.0,0.335,0.021,60.791,80.749,65.246,1
6.293526,1.006,0.38,-0.009,41.503,83.374,61.706,1
6.300592,1.041,0.433,-0.036,28.015,84.655,57.617,1
6.307779,1.063,0.471,-0.062,21.545,84.289,53.771,1
6.316653,1.069,0.509,-0.08,20.385,83.312,49.499,1
6.323259,1.049,0.544,-0.105,24.414,81.787,44.982,1
6.331915,1.061,0.57,-0.117,31.677,79.406,40.039,1
6.339415,1.049,0.588,-0.124,39.367,77.453,34.912,1
6.347622,1.019,0.602,-0.107,46.997,75.195,29.357,1
6.355854,1.05,0.614,-0.09,58.898,72.814,23.01,1
6.363108,1.042,0.619,-0.061,71.166,70.556,17.272,1
6.370909,1.046,0.633,-0.029,91.491,68.847,10.986,1
6.377985,1.055,0.622,-0.022,111.389,66.711,5.737,1
6.387451,1.051,0.603,0.01,127.868,65.063,0.915,1
6.394285,1.035,0.56,0.012,136.535,63.598,-3.295,1
6.403603,1.033,0.506,0.022,140.441,64.208,-7.629,1
6.410974,1.026,0.459,0.036,139.221,64.636,-10.62,1
6.419505,1.045,0.434,0.068,137.573,65.734,-13.732,1
6.427769,1.07,0.449,0.075,142.639,66.955,-16.296,1
6.434613,1.077,0.405,0.09,159.362,67.871,-19.165,1
6.442984,1.037,0.374,0.079,170.959,70.739,-20.568,1
6.450224,1.029,0.377,0.07,181.213,71.777,-21.972,1
6.456745,0.999,0.317,0.084,184.143,73.852,-22.46,1
6.463846,0.938,0.274,0.076,181.457,74.768,-22.888,1
6.471433,0.92,0.228,0.074,177.062,75.805,-22.46,1
6.48048,0.928,0.196,0.072,171.936,77.27,-22.583,1
6.488948,0.927,0.181,0.083,171.081,78.186,-22.277,1
6.495569,0.96,0.151,0.092,175.598,78.857,-20.507,1
6.503334,0.967,0.152,0.081,187.866,79.895,-17.822,1
6.511542,0.983,0.147,0.093,201.354,79.956,-15.258,1
6.520097,0.977,0.129,0.082,217.651,81.542,-12.023,1
6.527518,0.936,0.096,0.038,223.693,82.031,-9.643,1
6.534492,0.883,0.101,0.055,220.336,85.021,-7.263,1
6.541581,0.83,0.08,0.02,205.322,85.876,-4.882,1
6.550594,0.802,0.072,0.031,187.011,88.317,-1.708,1
6.557693,0.808,0.069,0.02,171.691,88.867,1.403,1
6.566501,0.807,0.062,0.017,159.118,89.294,4.638,1
6.573811,0.787,0.078,0.015,150.451,88.562,7.629,1
6.58234,0.748,0.107,0.028,150.268,89.965,10.498,1
6.590617,0.736,0.138,0.018,153.991,91.125,13.0,1
6.597986,0.745,0.17,0.003,157.653,94.177,16.235,1
6.606348,0.751,0.179,-0.021,152.465,95.825,18.249,1
6.614035,0.717,0.19,-0.041,137.39,98.632,19.592,1
6.623053,0.66,0.194,-0.061,110.046,100.219,20.629,1
6.630098,0.648,0.215,-0.061,87.402,100.585,21.545,1
6.638005,0.69,0.251,-0.053,77.697,99.487,22.277,1
6.645127,0.771,0.283,-0.057,84.533,98.876,22.888,1
6.653832,0.836,0.312,-0.076,99.792,97.9,23.498,1
6.662513,0.937,0.344,-0.136,117.309,98.083,24.291,1
6.670148,0.936,0.368,-0.166,128.112,98.51,25.085,1
6.677326,0.923,0.382,-0.219,131.713,100.585,25.634,1
6.686938,0.855,0.407,-0.239,128.601,101.623,25.939,1
6.694571,0.754,0.444,-0.269,124.45,103.942,26.428,1
6.701478,0.7,0.484,-0.283,121.459,104.614,26.306,1
6.709318,0.679,0.512,-0.305,121.032,105.651,26.062,1
6.71783,0.669,0.529,-0.364,117.553,105.773,25.695,1
6.726413,0.677,0.558,-0.424,113.22,106.689,24.78,1
6.733341,0.668,0.592,-0.479,106.201,105.957,23.559,1
6.740631,0.647,0.629,-0.538,104.919,104.187,22.583,1
6.749934,0.584,0.65,-0.591,111.877,100.952,22.033,1
6.757347,0.555,0.662,-0.661,122.619,97.106,22.277,1
6.765708,0.512,0.682,-0.64,145.935,92.712,22.766,1
6.773014,0.535,0.651,-0.733,155.212,86.059,22.583,1
6.78239,0.513,0.635,-0.691,166.87,83.74,23.254,1
6.790538,0.487,0.599,-0.698,176.208,77.453,23.986,1
6.798686,0.475,0.596,-0.647,191.223,72.387,26.428,1
6.806258,0.482,0.586,-0.645,205.383,69.824,28.869,1
6.814067,0.543,0.597,-0.732,215.698,62.683,30.273,1
6.821219,0.536,0.578,-0.684,224.914,60.363,31.86,1
6.829719,0.54,0.587,-0.667,229.187,54.626,34.179,1
6.837426,0.48,0.566,-0.623,228.637,52.246,36.132,1
6.844227,0.439,0.551,-0.616,221.313,49.316,37.902,1
6.853163,0.415,0.55,-0.58,212.219,47.607,39.367,1
6.860622,0.332,0.562,-0.539,208.129,44.006,40.954,1
6.868605,0.401,0.495,-0.547,202.88,42.846,42.724,1
6.876131,0.415,0.506,-0.57,196.716,40.527,44.982,1
6.883584,0.446,0.475,-0.568,181.64,39.55,47.241,1
6.892706,0.46,0.5,-0.547,169.616,39.306,49.804,1
6.900596,0.5,0.51,-0.513,163.024,37.475,52.307,1
6.909267,0.513,0.506,-0.488,160.217,37.292,54.565,1
6.917022,0.457,0.514,-0.473,151.55,35.888,57.861,1
6.924613,0.621,0.567,-0.482,148.376,36.56,60.058,1
6.934065,0.683,0.61,-0.497,139.16,35.156,61.523,1
6.941931,0.67,0.665,-0.522,123.291,35.095,63.293,1
6.949942,0.655,0.727,-0.524,112.243,35.339,64.147,1
6.955636,0.658,0.778,-0.537,107.482,34.118,64.025,1
6.963916,0.669,0.805,-0.524,104.003,33.813,64.697,1
6.970166,0.684,0.84,-0.549,99.121,33.264,64.819,1
6.977301,0.69,0.866,-0.546,89.416,32.409,64.514,1
6.984983,0.729,0.896,-0.537,76.721,32.531,64.331,1
6.993805,0.738,0.951,-0.524,62.866,32.531,63.537,1
7.00151,0.74,1.014,-0.51,53.405,31.311,61.828,1
7.011848,0.684,1.071,-0.487,53.405,30.944,60.546,1
7.01898,0.696,1.11,-0.461,59.265,28.137,58.776,1
7.02759,0.671,1.149,-0.466,67.932,26.062,56.64,1
7.036852,0.64,1.183,-0.438,69.274,24.353,54.321,1
7.04415,0.629,1.203,-0.432,63.476,23.437,52.001,1
7.051466,0.639,1.243,-0.404,55.664,22.46,48.645,1
7.059191,0.635,1.257,-0.384,49.255,21.179,45.288,1
7.066569,0.621,1.268,-0.358,44.799,20.263,42.114,1
7.075815,0.604,1.275,-0.332,43.457,18.92,38.818,1
7.083278,0.602,1.271,-0.3,45.288,17.517,35.034,1
7.09151,0.604,1.265,-0.276,49.011,16.174,32.104,1
7.099698,0.583,1.245,-0.257,52.795,14.953,28.808,1
7.107257,0.568,1.222,-0.238,56.396,13.671,25.146,1
7.114603,0.563,1.193,-0.227,59.448,12.695,22.338,1
7.123443,0.553,1.193,-0.209,64.392,12.084,19.836,1
7.129972,0.548,1.179,-0.189,70.007,11.352,17.272,1
7.137629,0.555,1.16,-0.18,72.998,11.23,15.014,1
7.145101,0.554,1.144,-0.172,70.922,11.291,12.939,1
7.152274,0.557,1.117,-0.167,63.781,12.329,10.742,1
7.161338,0.56,1.101,-0.155,54.016,13.549,9.033,1
7.169525,0.558,1.083,-0.139,44.128,15.258,6.774,1
7.176804,0.561,1.063,-0.131,37.841,16.479,5.065,1
7.184037,0.551,1.05,-0.123,33.203,17.578,3.845,1
7.192923,0.559,1.036,-0.11,31.738,18.737,2.502,1
7.200406,0.568,1.013,-0.106,31.799,19.409,1.464,1
7.209499,0.578,0.992,-0.104,33.325,20.812,0.305,1
7.218588,0.574,0.969,-0.107,33.386,21.606,-0.366,1
7.226113,0.553,0.955,-0.108,29.663,22.827,-1.159,1
7.234673,0.539,0.939,-0.114,24.536,23.925,-1.953,1
7.241623,0.528,0.927,-0.116,17.822,25.39,-2.624,1
7.249437,0.521,0.913,-0.122,12.756,26.306,-3.234,1
7.257255,0.515,0.889,-0.128,9.155,27.343,-3.601,1
7.26681,0.519,0.873,-0.138,6.286,28.198,-3.967,1
7.273642,0.527,0.855,-0.15,3.723,28.442,-4.15,1
7.282452,0.543,0.847,-0.16,3.662,28.808,-4.15,1
7.293044,0.548,0.836,-0.174,5.371,28.686,-4.15,1
7.300443,0.566,0.821,-0.188,7.629,28.442,-3.723,1
7.308205,0.579,0.807,-0.203,9.704,28.381,-3.417,1
7.316365,0.578,0.792,-0.218,9.338,28.564,-2.99,1
7.324167,0.599,0.774,-0.225,8.789,28.381,-2.563,1
7.33129,0.594,0.759,-0.239,7.141,28.564,-2.258,1
7.33997,0.578,0.75,-0.243,4.211,28.503,-1.464,1
7.34616,0.575,0.741,-0.252,1.525,28.381,-1.037,1
7.354051,0.573,0.739,-0.25,0.427,28.015,-0.549,1
7.362113,0.579,0.743,-0.254,1.22,27.709,-0.366,1
7.368856,0.583,0.745,-0.248,5.004,26.855,0.61,1
7.375898,0.59,0.745,-0.249,10.559,26.245,0.915,1
7.385003,0.591,0.75,-0.253,16.174,25.146,1.281,1
7.392381,0.587,0.752,-0.252,20.629,24.658,1.831,1
7.401262,0.598,0.754,-0.261,24.291,23.62,2.319,1
7.408554,0.61,0.767,-0.258,26.428,22.888,2.502,1
7.417532,0.637,0.789,-0.269,25.817,22.583,2.502,1
7.424963,0.649,0.807,-0.282,22.338,22.521,2.563,1
7.433342,0.661,0.82,-0.294,16.845,22.583,2.197,1
7.442171,0.696,0.856,-0.306,11.474,22.338,1.831,1
7.449298,0.72,0.9,-0.317,7.202,22.46,1.22,1
7.456999,0.736,0.938,-0.328,5.065,21.972,0.305,1
7.464923,0.748,0.981,-0.335,7.202,21.118,-0.793,1
7.473604,0.765,1.021,-0.338,12.268,19.714,-2.075,1
7.480613,0.794,1.058,-0.339,18.005,18.676,-4.15,1
7.488817,0.813,1.09,-0.344,21.057,17.578,-5.981,1
7.495486,0.838,1.112,-0.337,18.127,16.723,-7.995,1
7.503512,0.861,1.15,-0.361,15.991,17.15,-10.314,1
7.511727,0.845,1.196,-0.36,5.981,16.967,-13.793,1
7.519818,0.86,1.248,-0.436,-1.892,16.113,-17.517,1
7.528384,0.883,1.342,-0.419,-7.873,15.686,-21.789,1
7.534904,0.882,1.384,-0.5,-14.587,12.573,-26.855,1
7.543679,0.83,1.468,-0.513,-10.864,12.084,-31.188,1
7.552271,0.801,1.461,-0.569,-7.507,7.202,-35.4,1
7.560381,0.897,1.493,-0.541,5.004,4.333,-40.954,1
7.56717,0.946,1.458,-0.52,12.634,0.305,-45.471,1
7.575025,1.022,1.457,-0.479,15.502,-0.915,-50.781,1
7.582937,1.017,1.416,-0.451,6.408,-3.295,-55.725,1
7.591362,1.062,1.393,-0.421,-12.145,-3.906,-60.913,1
7.59978,0.993,1.375,-0.377,-32.531,-4.943,-65.429,1
7.609148,0.997,1.333,-0.37,-64.392,-4.211,-69.824,1
7.61836,0.939,1.305,-0.337,-92.529,-6.469,-73.547,1
7.625711,0.881,1.228,-0.335,-100.952,-8.605,-73.974,1
7.632857,0.874,1.253,-0.301,-85.205,-12.145,-77.026,1
7.642031,0.798,1.29,-0.251,-56.762,-16.662,-80.993,1
7.650621,0.77,1.235,-0.245,-16.296,-20.08,-85.327,1
7.658496,0.734,1.178,-0.22,8.178,-22.827,-90.087,1
7.667297,0.745,1.101,-0.212,8.3,-23.559,-93.749,1
7.676191,0.744,1.012,-0.191,-11.535,-22.338,-96.435,1
7.684869,0.768,0.915,-0.163,-41.503,-20.08,-98.51,1
7.691312,0.854,0.818,-0.126,-71.655,-20.263,-98.937,1
7.700615,0.776,0.782,-0.085,-88.5,-19.287,-98.205,1
7.707572,0.777,0.802,-0.06,-89.721,-19.958,-98.754,1
7.716247,0.744,0.842,-0.051,-81.42,-20.751,-99.853,1
7.725029,0.693,0.831,-0.026,-62.988,-23.193,-100.952,1
7.732145,0.662,0.836,-0.007,-41.503,-24.963,-101.257,1
7.74165,0.611,0.797,0.01,-16.479,-28.015,-101.745,1
7.74942,0.629,0.765,0.002,7.751,-29.602,-101.867,1
7.756559,0.646,0.755,0.004,22.277,-31.311,-103.515,1
7.764054,0.629,0.735,0.0,24.23,-30.761,-104.064,1
7.772933,0.613,0.639,-0.016,6.225,-30.212,-102.355,1
7.781441,0.629,0.7,0.013,-12.695,-27.221,-102.355,1
7.78858,0.598,0.68,0.021,-24.78,-28.32,-101.684,1
7.796183,0.611,0.72,0.029,-22.583,-27.587,-101.074,1
7.803675,0.654,0.678,0.022,-17.272,-31.127,-99.67,1
7.812023,0.654,0.724,0.03,-0.976,-30.883,-98.693,1
7.819675,0.651,0.669,0.0,27.16,-37.109,-98.144,1
7.827308,0.618,0.689,0.025,51.696,-35.705,-97.473,1
7.836689,0.6,0.67,-0.001,75.561,-39.794,-99.06,1
7.844199,0.445,0.595,0.002,93.322,-37.231,-99.365,1
7.853599,0.345,0.551,-0.027,95.703,-37.658,-99.304,1
7.86164,0.326,0.496,-0.024,89.172,-33.752,-99.426,1
7.87036,0.319,0.449,-0.004,80.81,-32.409,-99.121,1
7.877232,0.403,0.398,-0.02,73.913,-29.296,-97.717,1
7.887007,0.506,0.385,0.004,68.298,-27.77,-95.947,1
7.89483,0.556,0.369,-0.037,67.993,-25.207,-94.055,1
7.902872,0.604,0.339,-0.039,68.664,-23.01,-91.918,1
7.911171,0.655,0.298,-0.074,65.429,-20.996,-89.965,1
7.918573,0.674,0.276,-0.07,55.297,-17.944,-87.402,1
7.926502,0.702,0.261,-0.098,43.701,-16.418,-85.266,1
7.935885,0.698,0.256,-0.084,33.142,-14.831,-82.885,1
7.943114,0.693,0.26,-0.101,28.93,-15.197,-80.322,1
7.951197,0.694,0.25,-0.101,28.442,-15.441,-78.735,1
7.959048,0.681,0.238,-0.099,33.386,-17.761,-76.721,1
7.966389,0.68,0.219,-0.084,41.381,-18.981,-74.584,1
7.97594,0.707,0.197,-0.082,49.865,-21.301,-72.265,1
7.983347,0.745,0.176,-0.062,59.143,-22.888,-69.58,1
7.990531,0.773,0.164,-0.056,68.176,-24.841,-66.101,1
7.999378,0.787,0.161,-0.046,73.547,-25.573,-63.293,1
8.006589,0.798,0.155,-0.043,76.049,-26.306,-60.363,1
8.013048,0.809,0.162,-0.027,76.293,-26.367,-57.617,1
8.020169,0.809,0.176,-0.025,74.218,-26.428,-55.297,1
8.02799,0.788,0.2,-0.011,72.998,-25.512,-53.344,1
8.037277,0.777,0.218,-0.01,73.73,-25.451,-51.94,1
8.045441,0.772,0.226,0.004,75.439,-24.597,-51.33,1
8.052548,0.795,0.224,0.021,77.453,-23.742,-50.842,1
8.05971,0.813,0.221,0.047,79.528,-22.644,-50.476,1
8.068455,0.827,0.221,0.075,83.923,-21.057,-49.804,1
8.076261,0.837,0.216,0.101,89.904,-19.714,-49.255,1
8.084752,0.838,0.214,0.137,97.534,-18.005,-49.011,1
8.092456,0.831,0.202,0.167,103.149,-16.601,-48.767,1
8.101509,0.836,0.199,0.201,107.727,-13.732,-48.278,1
8.108976,0.84,0.19,0.226,109.497,-11.108,-47.851,1
8.11622,0.759,0.11,0.218,101.684,-8.117,-46.081,1
8.124075,0.833,0.099,0.27,83.374,-3.723,-43.701,1
8.131623,0.957,0.134,0.292,74.462,1.708,-43.64,1
8.140509,0.929,0.187,0.332,76.416,4.455,-43.945,1
8.147756,0.826,0.24,0.356,89.782,7.69,-44.494,1
8.155446,0.828,0.264,0.384,105.468,8.911,-45.227,1
8.164668,0.799,0.29,0.396,127.868,11.779,-46.691,1
8.171825,0.771,0.314,0.41,148.986,12.878,-48.645,1
8.179695,0.77,0.302,0.426,170.715,15.686,-50.781,1
8.187709,0.753,0.275,0.443,184.936,18.432,-52.673,1
8.195238,0.743,0.237,0.45,190.124,24.841,-54.626,1
8.202349,0.736,0.191,0.452,180.908,30.517,-55.48,1
8.210574,0.727,0.146,0.461,162.475,38.513,-55.358,1
8.219772,0.725,0.099,0.465,135.925,45.715,-55.175,1
8.227808,0.75,0.06,0.475,102.905,55.603,-53.833,1
8.236116,0.773,0.042,0.487,71.96,64.514,-52.001,1
8.24477,0.75,0.041,0.479,53.894,71.838,-50.231,1
8.252337,0.736,0.012,0.468,40.344,78.247,-49.072,1
8.261338,0.77,-0.024,0.436,27.526,85.388,-46.997,1
8.269104,0.785,-0.06,0.397,19.348,90.026,-45.349,1
8.278633,0.816,-0.084,0.344,15.441,94.97,-42.785,1
8.286111,0.83,-0.123,0.3,14.77,100.219,-39.916,1
8.294251,0.823,-0.155,0.238,13.427,105.041,-36.987,1
8.30369,0.761,-0.178,0.188,10.192,110.595,-34.423,1
8.311584,0.655,-0.185,0.137,2.624,116.516,-32.165,1
8.318687,0.561,-0.183,0.091,-5.126,121.643,-30.639,1
8.326651,0.441,-0.179,0.053,-11.474,127.014,-30.151,1
8.334142,0.327,-0.184,0.027,-12.756,131.225,-29.357,1
8.342602,0.214,-0.194,-0.001,-11.962,135.131,-28.991,1
8.351384,0.069,-0.22,-0.033,-9.643,139.221,-28.32,1
8.359392,-0.02,-0.249,-0.047,-7.629,142.456,-27.709,1
8.368348,-0.086,-0.296,-0.055,-4.76,146.057,-26.55,1
8.375569,-0.169,-0.333,-0.058,-2.563,150.207,-24.475,1
8.38374,-0.319,-0.378,-0.058,-4.15,154.174,-22.033,1
8.391949,-0.426,-0.405,-0.06,-11.352,159.057,-19.714,1
8.400821,-0.509,-0.438,-0.065,-20.874,163.94,-17.333,1
8.40898,-0.611,-0.488,-0.063,-34.729,169.433,-14.282,1
8.417515,-0.649,-0.551,-0.069,-43.151,174.56,-10.864,1
8.425774,-0.651,-0.617,-0.066,-43.334,178.405,-7.568,1
8.433478,-0.663,-0.698,-0.087,-37.292,182.617,-2.746,1
8.442794,-0.654,-0.813,-0.134,-26.062,188.659,6.042,1
8.453612,-0.709,-0.909,-0.181,-21.667,194.396,16.113,1
8.461012,-0.814,-1.014,-0.251,-35.644,202.026,29.724,1
8.470082,-0.97,-1.046,-0.285,-54.626,207.397,40.344,1
8.479082,-1.1,-1.069,-0.33,-81.298,214.355,52.185,1
8.485431,-1.185,-1.061,-0.373,-92.895,219.299,61.645,1
8.494577,-1.315,-1.056,-0.402,-91.735,223.327,71.289,1
8.50134,-1.457,-1.078,-0.446,-79.284,226.501,83.679,1
8.510127,-1.62,-1.098,-0.493,-62.927,229.37,95.458,1
8.517825,-1.823,-1.139,-0.554,-44.189,232.36,111.572,1
8.525877,-1.941,-1.214,-0.64,-33.142,235.473,127.197,1
8.534539,-2.02,-1.289,-0.739,-31.433,238.708,146.179,1
8.541542,-2.148,-1.35,-0.804,-43.701,243.041,163.452,1
8.549224,-2.378,-1.357,-0.848,-56.518,245.3,178.71,1
8.556466,-2.59,-1.312,-0.881,-55.175,247.497,197.448,1
8.56511,-2.771,-1.26,-0.927,-18.188,244.384,219.97,1
8.57447,-3.018,-1.216,-0.982,39.245,239.318,244.628,1
8.581705,-3.355,-1.233,-1.02,77.026,232.788,269.409,1
8.591998,-3.558,-1.277,-1.109,106.628,223.571,304.26,1
8.600365,-3.828,-1.294,-1.174,128.784,214.111,341.186,1
8.608579,-4.062,-1.341,-1.31,141.418,203.308,374.45,1
8.615429,-4.386,-1.366,-1.358,141.662,190.917,415.771,1
8.624549,-4.748,-1.382,-1.461,132.995,177.917,451.965,1
8.634291,-5.247,-1.319,-1.498,131.469,161.254,502.38,1
8.643244,-5.846,-1.217,-1.518,154.479,140.869,541.503,1
8.650988,-6.43,-1.117,-1.542,216.125,114.379,589.05,1
8.659007,-7.092,-1.034,-1.517,295.104,72.021,643.676,1
8.666458,-7.719,-0.981,-1.511,338.928,34.851,685.18,1
8.675063,-8.461,-0.911,-1.46,363.342,-3.54,725.952,1
8.683775,-9.229,-0.796,-1.417,374.145,-43.518,765.563,1
8.692265,-10.295,-0.591,-1.319,390.197,-91.308,809.509,1
8.699733,-11.369,-0.321,-1.198,423.156,-144.958,849.548,1
8.709323,-12.371,-0.058,-1.125,465.637,-197.448,879.089,1
8.717961,-13.621,0.31,-1.051,517.089,-257.995,902.038,1
8.724354,-14.935,0.765,-0.916,583.923,-341.491,918.64,1
8.732726,-15.814,1.117,-0.771,657.409,-438.354,922.18,1
8.740397,-15.996,1.455,-0.583,712.097,-526.977,914.001,1
8.749183,-15.999,1.858,-0.386,763.977,-622.07,892.761,1
8.758425,-15.999,2.125,-0.049,828.613,-733.276,845.947,1
8.767617,-15.999,2.16,0.333,887.023,-838.623,772.705,1
8.774875,-15.999,2.017,0.78,885.864,-919.372,685.607,1
8.781942,-15.999,2.065,1.196,827.575,-958.679,594.299,1
8.789386,-15.999,1.673,1.621,727.783,-980.529,515.93,1
8.798915,-15.999,1.914,1.971,653.503,-958.496,435.852,1
8.806671,-15.999,2.453,2.262,630.31,-954.162,331.298,1
8.813461,-15.999,2.326,2.32,647.949,-932.556,240.417,1
8.822268,-15.262,1.983,2.331,619.445,-916.87,155.578,1
8.830463,-14.229,1.975,2.439,565.918,-888.854,84.411,1
8.838112,-13.711,2.091,2.417,526.672,-865.905,20.874,1
8.845433,-12.794,2.156,2.466,545.288,-836.608,-51.574,1
8.852759,-11.952,2.139,2.448,606.933,-814.208,-115.966,1
8.861721,-10.955,1.882,2.259,675.964,-782.043,-181.03,1
8.869352,-9.892,1.459,2.002,705.261,-736.633,-254.699,1
8.878677,-9.203,1.103,1.759,659.667,-685.363,-310.729,1
8.887195,-8.435,0.807,1.654,529.785,-617.248,-359.985,1
8.894113,-7.682,0.668,1.659,367.919,-553.1,-388.977,1
8.902195,-7.067,0.632,1.757,249.206,-502.685,-398.986,1
8.911566,-6.581,0.675,1.796,179.321,-465.27,-403.076,1
8.919193,-6.255,0.678,1.851,167.663,-427.673,-405.517,1
8.928454,-6.049,0.654,1.852,184.57,-396.667,-409.79,1
8.937364,-5.694,0.528,1.853,210.998,-368.286,-415.71,1
8.944982,-5.331,0.349,1.836,222.473,-334.167,-423.095,1
8.952468,-4.989,0.144,1.812,211.303,-302.49,-427.673,1
8.961361,-4.512,-0.034,1.765,191.284,-265.747,-430.419,1
8.968974,-4.281,-0.198,1.752,164.733,-237.182,-429.138,1
8.977854,-4.057,-0.322,1.756,136.962,-206.665,-423.706,1
8.985253,-3.893,-0.417,1.769,112.67,-174.926,-415.039,1
8.993389,-3.708,-0.443,1.727,91.613,-153.686,-407.958,1
9.002679,-3.404,-0.52,1.768,95.214,-133.85,-400.024,1
9.011142,-3.236,-0.61,1.748,105.529,-111.45,-387.817,1
9.018922,-2.957,-0.709,1.757,114.868,-91.979,-376.647,1
9.028358,-2.633,-0.838,1.715,113.952,-69.824,-362.487,1
9.037863,-2.433,-0.934,1.687,101.379,-46.142,-347.167,1
9.044737,-2.138,-1.053,1.638,78.43,-25.451,-330.2,1
9.054371,-1.898,-1.092,1.599,57.189,-6.835,-312.622,1
9.060973,-1.708,-1.121,1.588,49.865,7.812,-297.18,1
9.067503,-1.663,-1.148,1.529,46.997,21.423,-280.944,1
9.07536,-1.5,-1.167,1.489,38.574,33.569,-265.747,1
9.083183,-1.404,-1.171,1.458,38.391,44.189,-250.915,1
9.091352,-1.284,-1.174,1.401,48.156,54.87,-232.543,1
9.099276,-1.19,-1.204,1.358,57.556,64.086,-216.491,1
9.107293,-1.076,-1.238,1.293,61.523,72.692,-200.439,1
9.115351,-1.018,-1.291,1.167,24.902,86.303,-181.213,1
9.12369,-0.788,-1.242,1.124,6.713,91.43,-169.128,1
9.131898,-0.713,-1.201,1.127,16.052,98.754,-154.479,1
9.141143,-0.609,-1.138,1.041,35.766,101.989,-138.366,1
9.150089,-0.496,-1.125,0.952,59.387,106.689,-122.009,1
9.159005,-0.492,-1.138,0.817,50.964,110.961,-104.614,1
9.165949,-0.227,-1.103,0.759,38.574,112.365,-92.407,1
9.174601,-0.188,-1.077,0.758,36.865,115.173,-79.956,1
9.181506,-0.074,-1.02,0.704,44.677,116.149,-67.932,1
9.189226,-0.095,-0.926,0.692,63.781,116.76,-55.908,1
9.197327,-0.1,-0.84,0.589,85.021,117.492,-44.982,1
9.207163,-0.051,-0.796,0.567,100.524,115.966,-33.264,1
9.213359,-0.032,-0.771,0.499,106.445,116.333,-22.766,1
9.221363,0.014,-0.728,0.45,106.872,115.661,-13.122,1
9.230093,0.087,-0.669,0.381,108.886,115.6,-2.929,1
9.236981,0.161,-0.606,0.343,108.52,114.074,5.371,1
9.244011,0.237,-0.54,0.291,106.567,113.342,12.512,1
9.252035,0.276,-0.472,0.269,103.454,111.694,19.165,1
9.25875,0.289,-0.417,0.25,100.463,111.328,23.681,1
9.265487,0.319,-0.336,0.212,96.435,109.619,28.32,1
9.27396,0.366,-0.261,0.193,95.886,109.436,32.104,1
9.281062,0.389,-0.201,0.16,97.534,108.215,35.156,1
9.287957,0.446,-0.161,0.163,101.745,107.116,38.452,1
9.296126,0.481,-0.128,0.13,105.346,105.59,40.832,1
9.303126,0.503,-0.11,0.1,109.069,104.797,43.945,1
9.310899,0.51,-0.099,0.077,108.886,104.125,46.142,1
9.320111,0.495,-0.082,0.052,105.407,104.675,47.668,1
9.326605,0.472,-0.046,0.042,105.041,105.712,48.4,1
9.33508,0.486,-0.04,0.013,112.243,104.797,48.95,1
9.344461,0.459,-0.033,0.027,121.582,105.834,49.499,1
9.350374,0.435,-0.023,0.002,131.164,104.003,50.048,1
9.357867,0.403,-0.03,0.001,139.282,103.454,50.964,1
9.367361,0.418,-0.051,-0.012,143.432,102.478,51.574,1
9.375381,0.453,-0.084,-0.023,140.441,102.783,53.588,1
9.382251,0.473,-0.102,-0.039,124.511,102.478,57.312,1
9.390966,0.528,-0.108,-0.032,108.215,104.125,59.631,1
9.397999,0.604,-0.12,-0.044,90.454,104.858,61.95,1
9.406603,0.638,-0.118,-0.036,73.364,106.506,64.147,1
9.413637,0.696,-0.11,-0.045,57.8,107.36,66.467,1
9.421164,0.734,-0.108,-0.042,41.198,109.497,68.603,1
9.429733,0.662,-0.096,-0.052,28.991,110.412,70.434,1
9.436949,0.69,-0.09,-0.037,16.723,111.999,72.692,1
9.445321,0.654,-0.07,-0.043,3.112,113.098,75.439,1
9.453968,0.761,-0.061,-0.053,-3.723,115.661,77.209,1
9.46082,0.799,-0.061,-0.059,-8.789,115.661,78.247,1
9.47004,0.786,-0.052,-0.06,-11.352,117.797,79.589,1
9.477659,0.762,-0.051,-0.065,-12.512,117.431,81.787,1
9.487589,0.747,-0.046,-0.066,-7.202,118.713,85.327,1
9.494944,0.719,-0.043,-0.056,0.915,118.347,87.89,1
9.502892,0.706,-0.041,-0.058,12.268,118.896,91.247,1
9.510771,0.692,-0.037,-0.045,26.245,118.896,94.482,1
9.518326,0.7,-0.037,-0.058,44.677,118.652,97.045,1
9.527395,0.747,-0.042,-0.052,60.668,118.591,100.158,1
9.535644,0.812,-0.055,-0.069,73.852,117.919,103.576,1
9.542133,0.794,-0.066,-0.071,83.19,118.041,107.91,1
9.549586,0.73,-0.074,-0.093,88.5,118.103,112.426,1
9.558547,0.682,-0.077,-0.093,89.599,117.858,117.065,1
9.565966,0.644,-0.079,-0.116,87.097,117.919,123.046,1
9.574716,0.569,-0.065,-0.114,82.885,117.553,128.173,1
9.581688,0.634,-0.069,-0.131,78.186,117.919,133.85,1
9.588823,0.593,-0.069,-0.145,70.373,117.797,138.977,1
9.596228,0.578,-0.059,-0.152,63.415,117.797,144.165,1
9.604617,0.585,-0.047,-0.167,59.814,117.797,148.132,1
9.613393,0.569,-0.033,-0.178,59.02,117.492,152.465,1
9.620245,0.531,-0.017,-0.193,62.988,116.516,157.165,1
9.629132,0.474,0.0,-0.218,70.068,114.501,161.682,1
9.638404,0.422,0.011,-0.246,81.176,111.389,165.405,1
9.644142,0.406,0.023,-0.277,97.656,105.895,169.555,1
9.652856,0.414,0.043,-0.31,115.783,99.792,173.217,1
9.659456,0.477,0.07,-0.355,140.319,91.918,179.26,1
9.66812,0.523,0.109,-0.381,159.729,85.632,184.57,1
9.673776,0.546,0.161,-0.413,184.265,77.392,190.734,1
9.682725,0.523,0.249,-0.442,209.655,68.115,195.922,1
9.689548,0.431,0.375,-0.471,234.191,57.556,199.584,1
9.697762,0.32,0.506,-0.494,254.943,47.058,202.087,1
9.705868,0.214,0.621,-0.519,264.648,36.376,203.186,1
9.712826,0.142,0.729,-0.519,259.277,27.038,203.796,1
9.719833,0.094,0.844,-0.519,242.004,19.714,203.124,1
9.727725,0.03,0.966,-0.516,216.613,13.916,201.538,1
9.736057,-0.05,1.086,-0.499,185.302,10.07,199.157,1
9.743218,-0.093,1.189,-0.49,151.062,7.08,195.678,1
9.750549,-0.108,1.275,-0.477,115.905,5.798,191.589,1
9.760507,-0.138,1.357,-0.472,80.2,5.554,186.645,1
9.767516,-0.135,1.407,-0.459,40.283,5.493,179.87,1
9.77514,-0.125,1.434,-0.443,23.376,5.493,174.743,1
9.782908,-0.1,1.455,-0.432,18.676,4.882,169.799,1
9.791105,-0.102,1.479,-0.432,22.644,3.234,164.55,1
9.800016,-0.093,1.493,-0.434,32.287,0.366,159.79,1
9.808848,-0.085,1.486,-0.423,43.518,-2.685,154.968,1
9.81574,-0.091,1.458,-0.411,54.87,-7.141,149.169,1
9.824792,-0.102,1.423,-0.391,59.875,-9.948,145.751,1
9.833493,-0.11,1.378,-0.365,64.575,-13.183,142.211,1
9.841683,-0.105,1.338,-0.352,65.49,-15.441,140.075,1
9.851396,-0.096,1.302,-0.335,60.913,-17.272,138.488,1
9.857343,-0.082,1.278,-0.312,54.992,-18.554,137.39,1
9.865321,-0.06,1.248,-0.29,52.307,-20.751,136.779,1
9.872912,-0.049,1.211,-0.259,53.527,-21.24,136.291,1
9.881225,-0.043,1.181,-0.242,56.396,-22.766,136.291,1
9.889047,-0.062,1.158,-0.21,60.363,-23.071,136.901,1
9.897122,-0.071,1.153,-0.198,61.401,-23.681,136.962,1
9.906237,-0.077,1.146,-0.169,62.622,-23.742,137.084,1
9.913522,-0.084,1.129,-0.157,63.964,-23.986,136.657,1
9.921,-0.097,1.117,-0.14,62.622,-22.888,136.108,1
9.928787,-0.117,1.112,-0.138,55.603,-22.338,135.559,1
9.936519,-0.154,1.107,-0.122,44.311,-20.874,134.704,1
9.945103,-0.189,1.104,-0.114,26.733,-18.798,133.605,1
9.95389,-0.226,1.106,-0.096,13.977,-16.967,132.385,1
9.961104,-0.235,1.114,-0.085,7.202,-15.747,131.347,1
9.969971,-0.223,1.118,-0.072,8.361,-14.465,130.737,1
9.978846,-0.22,1.125,-0.066,12.268,-13.61,129.516,1
9.987061,-0.219,1.119,-0.066,12.939,-12.573,128.662,1
9.994987,-0.22,1.125,-0.063,11.108,-11.535,127.746,1
