timestamp_s,ax,ay,az,gx,gy,gz,label
0.004145,0.803,0.336,0.538,-2.929,-3.173,3.967,1
0.011595,0.803,0.343,0.539,-3.784,-3.417,3.601,1
0.020885,0.805,0.347,0.536,-4.333,-3.295,3.417,1
0.027114,0.803,0.348,0.54,-4.821,-3.601,3.234,1
0.035511,0.8,0.351,0.542,-3.967,-3.906,3.356,1
0.043889,0.797,0.345,0.543,-3.112,-3.906,2.807,1
0.050258,0.793,0.35,0.548,-2.38,-4.089,2.685,1
0.05875,0.794,0.348,0.555,-1.647,-4.455,2.441,1
0.065589,0.794,0.343,0.56,-1.586,-4.516,2.075,1
0.074566,0.797,0.341,0.561,-1.037,-4.638,2.258,1
0.081392,0.793,0.332,0.572,-1.098,-4.577,1.77,1
0.089563,0.794,0.328,0.575,-1.098,-4.699,1.77,1
0.096388,0.793,0.322,0.582,-1.464,-4.577,1.77,1
0.104369,0.798,0.321,0.585,-1.831,-4.211,1.647,1
0.113907,0.794,0.317,0.588,-1.892,-4.028,1.525,1
0.121092,0.767,0.317,0.606,-1.892,-4.333,1.403,1
0.127574,0.726,0.305,0.642,-1.159,-3.295,1.892,1
0.13576,0.695,0.278,0.687,-2.075,-1.647,2.075,1
0.143257,0.649,0.25,0.734,-6.713,1.098,2.624,1
0.151439,0.654,0.217,0.755,-13.366,4.516,3.234,1
0.160637,0.707,0.191,0.712,-19.531,6.347,4.394,1
0.168125,0.761,0.197,0.664,-18.31,5.798,5.493,1
0.176749,0.807,0.231,0.63,-9.46,4.211,6.713,1
0.18322,0.85,0.277,0.594,0.427,2.441,6.713,1
0.191902,0.867,0.299,0.58,5.676,1.159,6.774,1
0.199061,0.869,0.316,0.574,4.272,0.915,6.652,1
0.206858,0.858,0.329,0.573,-0.488,1.159,6.53,1
0.215561,0.843,0.339,0.581,-5.249,1.953,6.225,1
0.222459,0.825,0.349,0.598,-7.568,2.502,6.408,1
0.230921,0.794,0.36,0.604,-7.995,2.929,6.225,1
0.237997,0.768,0.375,0.606,-6.286,3.051,5.798,1
0.245269,0.744,0.384,0.602,-2.746,3.234,5.065,1
0.254155,0.731,0.392,0.593,0.793,3.295,4.15,1
0.26064,0.722,0.383,0.578,1.953,3.234,3.967,1
0.267957,0.741,0.378,0.568,-0.183,3.906,3.479,1
0.276973,0.755,0.367,0.559,-3.845,4.272,3.601,1
0.283964,0.785,0.36,0.551,-6.591,4.577,3.906,1
0.292167,0.803,0.365,0.542,-7.08,4.211,4.15,1
0.301167,0.821,0.374,0.534,-5.737,3.845,3.845,1
0.307561,0.838,0.374,0.529,-4.699,3.784,3.845,1
0.316852,0.851,0.376,0.525,-4.211,3.662,3.417,1
0.324326,0.852,0.378,0.523,-3.845,3.54,3.295,1
0.332181,0.84,0.38,0.516,-3.662,3.295,2.929,1
0.341037,0.828,0.38,0.513,-4.15,2.99,2.502,1
0.347956,0.815,0.384,0.506,-3.967,2.624,2.136,1
0.356662,0.798,0.385,0.499,-3.234,2.38,1.342,1
0.363483,0.79,0.381,0.486,-2.38,1.464,1.281,1
0.371043,0.782,0.377,0.483,-1.892,1.159,0.732,1
0.378791,0.778,0.368,0.48,-1.525,0.671,0.366,1
0.386116,0.782,0.359,0.476,-2.014,0.0,0.122,1
0.395671,0.783,0.352,0.475,-3.112,-0.061,0.244,1
0.403539,0.784,0.347,0.482,-4.455,-0.549,0.244,1
0.410431,0.785,0.342,0.484,-6.042,-0.488,0.122,1
0.418017,0.785,0.336,0.487,-7.019,-1.037,0.488,1
0.427129,0.784,0.329,0.493,-6.652,-1.159,0.61,1
0.435538,0.784,0.324,0.494,-5.737,-1.586,0.854,1
0.44323,0.784,0.313,0.495,-4.821,-2.014,1.098,1
0.450496,0.788,0.305,0.496,-4.211,-2.38,1.159,1
0.460002,0.794,0.302,0.499,-4.15,-2.807,1.525,1
0.466942,0.787,0.296,0.5,-3.662,-3.356,2.075,1
0.475502,0.792,0.291,0.501,-3.234,-3.417,2.075,1
0.482799,0.797,0.29,0.505,-2.99,-4.15,2.624,1
0.491226,0.793,0.291,0.514,-3.356,-4.455,3.112,1
0.499897,0.786,0.298,0.52,-4.15,-4.577,3.234,1
0.507059,0.781,0.301,0.531,-4.577,-4.76,3.784,1
0.514443,0.778,0.309,0.541,-4.028,-4.76,4.211,1
0.522476,0.774,0.308,0.549,-3.54,-4.943,4.333,1
0.53181,0.773,0.307,0.552,-2.807,-4.943,4.699,1
0.538648,0.775,0.315,0.557,-2.502,-4.699,4.76,1
0.546764,0.77,0.315,0.555,-2.502,-4.455,5.004,1
0.55548,0.77,0.318,0.558,-3.234,-4.516,5.371,1
0.563883,0.77,0.327,0.561,-4.15,-4.333,5.554,1
0.571571,0.77,0.332,0.559,-5.065,-4.333,5.798,1
0.578851,0.77,0.347,0.56,-5.798,-4.089,6.103,1
0.587084,0.777,0.354,0.567,-5.981,-4.089,6.286,1
0.594286,0.779,0.361,0.562,-5.981,-3.54,6.286,1
0.602662,0.783,0.369,0.567,-5.554,-3.662,6.103,1
0.609437,0.779,0.37,0.56,-5.432,-3.662,6.042,1
0.617723,0.781,0.373,0.559,-5.126,-3.784,5.92,1
0.624808,0.784,0.376,0.561,-4.821,-3.601,6.042,1
0.633411,0.781,0.381,0.556,-5.126,-3.479,5.798,1
0.640421,0.778,0.388,0.56,-5.126,-3.845,5.676,1
0.648879,0.778,0.393,0.558,-5.126,-3.723,5.432,1
0.655526,0.777,0.392,0.563,-5.004,-3.479,5.249,1
0.663511,0.774,0.393,0.563,-4.089,-3.601,4.943,1
0.672233,0.773,0.391,0.562,-3.356,-3.723,4.882,1
0.680275,0.773,0.392,0.565,-3.356,-3.784,4.516,1
0.68756,0.772,0.388,0.57,-3.173,-3.845,4.943,1
0.695591,0.78,0.388,0.565,-3.417,-3.784,4.455,1
0.703328,0.776,0.388,0.565,-3.845,-3.662,4.333,1
0.710879,0.777,0.393,0.563,-3.906,-3.54,4.028,1
0.720922,0.774,0.397,0.565,-3.906,-3.295,4.089,1
0.727502,0.779,0.397,0.564,-3.417,-3.54,3.906,1
0.736232,0.774,0.401,0.564,-2.807,-3.54,3.784,1
0.743438,0.774,0.396,0.566,-2.319,-3.417,3.479,1
0.751413,0.77,0.402,0.561,-1.953,-3.417,3.234,1
0.759687,0.769,0.396,0.562,-1.525,-3.601,3.234,1
0.768508,0.764,0.4,0.562,-1.77,-3.112,2.99,1
0.775293,0.767,0.392,0.564,-1.464,-3.234,2.868,1
0.783448,0.764,0.391,0.563,-1.342,-3.295,2.807,1
0.791591,0.765,0.389,0.564,-1.098,-3.112,2.624,1
0.798327,0.765,0.39,0.562,-1.708,-2.929,2.685,1
0.805686,0.762,0.382,0.56,-1.77,-2.746,2.746,1
0.814049,0.761,0.387,0.56,-1.953,-2.929,2.807,1
0.822564,0.762,0.383,0.559,-2.38,-2.746,2.807,1
0.829501,0.759,0.384,0.559,-2.319,-2.807,2.868,1
0.837637,0.761,0.383,0.56,-2.441,-2.746,2.685,1
0.844724,0.762,0.382,0.562,-2.136,-2.807,2.807,1
0.852485,0.76,0.378,0.551,-1.953,-2.868,2.868,1
0.861704,0.766,0.38,0.555,-1.525,-2.929,2.99,1
0.868713,0.764,0.375,0.553,-1.708,-2.868,2.99,1
0.876724,0.764,0.376,0.557,-2.197,-3.173,2.99,1
0.884639,0.763,0.38,0.558,-2.99,-2.929,3.173,1
0.893517,0.763,0.383,0.56,-3.417,-2.929,3.417,1
0.901623,0.763,0.384,0.56,-2.99,-2.868,3.295,1
0.90862,0.759,0.386,0.556,-2.441,-2.746,3.173,1
0.915918,0.755,0.382,0.554,-2.075,-3.112,3.173,1
0.925048,0.758,0.384,0.557,-2.075,-3.173,3.173,1
0.933504,0.758,0.387,0.556,-2.502,-3.173,3.234,1
0.941482,0.758,0.393,0.559,-2.136,-3.295,3.356,1
0.949097,0.76,0.39,0.556,-1.831,-3.356,3.173,1
0.956573,0.758,0.391,0.557,-1.831,-3.479,3.112,1
0.964638,0.756,0.393,0.555,-1.525,-3.54,2.746,1
0.973046,0.755,0.392,0.554,-1.525,-3.662,3.051,1
0.979629,0.755,0.397,0.555,-1.892,-3.784,2.99,1
0.9885,0.759,0.393,0.556,-2.197,-3.479,2.807,1
0.995314,0.754,0.399,0.563,-2.197,-3.601,2.929,1
1.003649,0.753,0.402,0.567,-2.258,-3.54,2.868,1
1.011255,0.753,0.4,0.565,-2.319,-3.723,2.807,1
1.01958,0.755,0.402,0.569,-1.708,-3.845,2.685,1
1.027327,0.75,0.401,0.568,-1.098,-3.784,2.868,1
1.033909,0.748,0.397,0.568,-0.488,-3.723,2.624,1
1.04195,0.753,0.391,0.569,-0.488,-3.417,2.502,1
1.050103,0.751,0.392,0.569,-0.732,-3.601,2.685,1
1.058774,0.749,0.395,0.573,-1.22,-3.723,2.624,1
1.066164,0.753,0.393,0.571,-1.464,-3.662,2.746,1
1.075078,0.751,0.397,0.573,-1.22,-3.601,2.807,1
1.082151,0.752,0.395,0.572,-0.793,-3.601,2.685,1
1.090473,0.752,0.391,0.573,-0.976,-3.417,2.746,1
1.099472,0.751,0.39,0.568,-1.831,-3.356,2.868,1
1.106247,0.752,0.394,0.564,-2.441,-3.051,2.929,1
1.115644,0.742,0.395,0.561,-3.051,-3.173,2.746,1
1.122313,0.74,0.398,0.561,-3.479,-3.295,2.868,1
1.131045,0.734,0.405,0.568,-3.967,-3.356,2.99,1
1.137736,0.731,0.416,0.565,-3.784,-3.356,2.502,1
1.145452,0.729,0.416,0.571,-3.356,-3.417,2.319,1
1.153977,0.733,0.419,0.579,-3.112,-3.54,2.502,1
1.160691,0.74,0.424,0.589,-3.112,-3.173,2.319,1
1.168636,0.749,0.422,0.6,-2.502,-3.54,2.197,1
1.177434,0.757,0.427,0.606,-1.77,-3.173,2.014,1
1.185271,0.763,0.427,0.609,-0.976,-2.99,1.953,1
1.193019,0.766,0.429,0.611,-0.488,-2.502,1.647,1
1.200288,0.764,0.431,0.61,0.427,-2.441,1.953,1
1.207958,0.758,0.426,0.604,1.037,-2.075,1.708,1
1.215653,0.752,0.421,0.601,1.281,-2.014,1.525,1
1.22328,0.748,0.42,0.596,1.037,-1.647,1.342,1
1.231258,0.747,0.416,0.597,0.61,-1.342,1.159,1
1.240716,0.747,0.412,0.595,0.244,-1.464,1.159,1
1.248097,0.748,0.408,0.598,0.0,-1.342,1.037,1
1.254797,0.745,0.411,0.603,-0.183,-1.037,1.159,1
1.263748,0.744,0.413,0.603,-0.854,-0.793,0.915,1
1.270329,0.743,0.415,0.601,-0.793,-0.549,0.549,1
1.278209,0.741,0.413,0.603,-0.549,-0.366,0.671,1
1.286701,0.74,0.408,0.595,0.061,-0.122,0.61,1
1.295187,0.742,0.409,0.589,0.793,-0.061,0.61,1
1.302931,0.743,0.404,0.579,0.915,0.061,0.427,1
1.311092,0.742,0.399,0.576,0.854,0.061,0.61,1
1.318234,0.743,0.4,0.569,0.244,0.061,0.732,1
1.32603,0.74,0.404,0.567,0.061,0.122,0.671,1
1.332946,0.737,0.398,0.559,-0.122,-0.061,0.793,1
1.342298,0.741,0.396,0.556,-0.122,-0.122,0.488,1
1.349163,0.74,0.397,0.553,0.183,-0.244,0.793,1
1.356905,0.743,0.395,0.55,0.0,-0.244,1.037,1
1.365449,0.741,0.398,0.547,0.122,-0.183,0.976,1
1.373061,0.745,0.4,0.545,0.244,-0.549,0.976,1
1.380023,0.743,0.401,0.539,0.854,-0.854,1.037,1
1.388639,0.746,0.404,0.541,0.61,-0.915,1.098,1
1.395795,0.742,0.403,0.541,1.098,-1.22,1.159,1
1.404225,0.739,0.404,0.544,1.098,-1.342,1.22,1
1.41215,0.738,0.402,0.538,1.464,-1.77,1.098,1
1.418705,0.738,0.404,0.546,1.464,-1.953,1.281,1
1.426279,0.74,0.397,0.543,1.586,-1.953,1.098,1
1.43526,0.738,0.391,0.544,1.403,-2.136,1.098,1
1.442838,0.737,0.394,0.55,1.22,-2.441,1.525,1
1.449892,0.736,0.389,0.552,0.671,-2.685,1.525,1
1.457354,0.734,0.39,0.552,0.122,-2.563,1.525,1
1.465606,0.736,0.389,0.56,-0.488,-2.685,1.464,1
1.473307,0.735,0.393,0.563,-0.549,-2.746,1.647,1
1.481149,0.733,0.39,0.567,-0.183,-2.929,1.647,1
1.490479,0.731,0.389,0.568,0.183,-2.868,1.831,1
1.497069,0.733,0.387,0.571,0.366,-3.234,1.892,1
1.504777,0.733,0.383,0.574,0.61,-3.173,2.014,1
1.511963,0.737,0.383,0.572,0.122,-2.99,1.953,1
1.520367,0.737,0.385,0.578,-0.61,-2.99,2.258,1
1.528505,0.738,0.391,0.582,-1.403,-2.807,2.502,1
1.535296,0.734,0.398,0.582,-2.197,-2.99,2.685,1
1.543388,0.735,0.406,0.585,-2.624,-2.868,2.441,1
1.551698,0.735,0.411,0.585,-2.258,-2.807,2.563,1
1.559869,0.733,0.413,0.587,-2.014,-2.563,2.502,1
1.568835,0.733,0.417,0.594,-1.525,-2.624,2.746,1
1.575671,0.729,0.419,0.593,-1.586,-2.38,2.502,1
1.584182,0.736,0.419,0.6,-2.258,-2.197,2.441,1
1.591285,0.737,0.42,0.599,-2.868,-1.953,2.075,1
1.599619,0.743,0.424,0.602,-3.051,-1.708,2.38,1
1.606075,0.74,0.419,0.597,-2.868,-1.77,2.136,1
1.614034,0.741,0.416,0.591,-2.746,-1.586,2.197,1
1.622606,0.737,0.418,0.591,-2.258,-1.77,2.014,1
1.629518,0.733,0.415,0.586,-1.953,-1.708,1.953,1
1.6387,0.731,0.412,0.583,-1.647,-1.647,2.075,1
1.64576,0.725,0.41,0.583,-1.708,-1.586,1.831,1
1.653925,0.724,0.409,0.583,-1.586,-1.586,1.953,1
1.661378,0.728,0.41,0.592,-1.586,-1.586,1.953,1
1.668277,0.728,0.408,0.592,-1.708,-1.464,2.014,1
1.67762,0.729,0.412,0.594,-2.014,-1.098,2.075,1
1.685692,0.732,0.406,0.593,-2.685,-0.915,2.014,1
1.692882,0.732,0.409,0.587,-2.258,-0.915,2.197,1
1.699936,0.731,0.406,0.588,-2.197,-0.915,2.136,1
1.70783,0.73,0.416,0.578,-2.136,-0.732,2.319,1
1.715943,0.735,0.412,0.577,-1.953,-0.732,2.258,1
1.724269,0.734,0.417,0.573,-1.892,-0.671,2.136,1
1.73094,0.739,0.416,0.571,-1.342,-0.732,2.075,1
1.738234,0.732,0.418,0.564,-0.915,-0.732,2.197,1
1.745859,0.735,0.42,0.562,-0.671,-1.037,2.014,1
1.754416,0.737,0.42,0.558,-0.244,-1.098,2.136,1
1.762252,0.732,0.423,0.56,-0.122,-1.464,2.258,1
1.769749,0.733,0.422,0.558,-0.183,-1.647,2.014,1
1.777493,0.73,0.419,0.56,-0.122,-1.586,2.075,1
1.785339,0.731,0.422,0.562,0.427,-1.647,2.014,1
1.793536,0.728,0.418,0.558,0.732,-2.014,2.014,1
1.802236,0.726,0.412,0.556,1.22,-1.953,2.075,1
1.808725,0.728,0.41,0.555,1.159,-2.136,1.892,1
1.816784,0.726,0.411,0.555,0.671,-2.319,2.258,1
1.824544,0.726,0.411,0.555,0.122,-2.441,2.258,1
1.832095,0.726,0.414,0.567,-0.732,-2.502,2.502,1
1.840664,0.73,0.411,0.568,-1.281,-2.624,2.502,1
1.84859,0.735,0.412,0.576,-1.281,-2.563,2.502,1
1.8575,0.732,0.411,0.578,-1.281,-2.502,2.502,1
1.863859,0.731,0.41,0.579,-0.854,-2.624,2.38,1
1.87186,0.729,0.409,0.577,-0.61,-2.563,2.319,1
1.879919,0.727,0.41,0.571,-0.61,-2.685,2.441,1
1.888603,0.725,0.411,0.574,-0.976,-2.746,2.746,1
1.896881,0.718,0.415,0.571,-1.708,-2.624,2.746,1
1.904033,0.719,0.419,0.572,-2.319,-2.624,2.807,1
1.912368,0.719,0.421,0.577,-2.319,-2.441,2.807,1
1.920751,0.717,0.424,0.579,-1.831,-2.502,2.746,1
1.928081,0.721,0.43,0.578,-1.159,-2.685,2.685,1
1.934793,0.719,0.429,0.575,-0.732,-2.624,2.502,1
1.943044,0.72,0.418,0.57,-0.549,-2.807,2.624,1
1.951518,0.721,0.42,0.567,-0.671,-2.868,2.929,1
1.959442,0.715,0.419,0.563,-1.159,-2.807,2.746,1
1.966856,0.716,0.419,0.567,-1.647,-2.99,2.99,1
1.975047,0.718,0.416,0.567,-2.136,-3.173,2.868,1
1.983631,0.718,0.419,0.573,-2.014,-3.173,2.868,1
1.991503,0.719,0.417,0.573,-1.708,-3.295,2.99,1
2.000738,0.718,0.413,0.572,-1.281,-3.173,2.99,1
2.007241,0.719,0.409,0.571,-1.098,-3.479,3.173,1
2.015902,0.719,0.405,0.57,-0.793,-3.601,3.295,1
2.023422,0.714,0.409,0.569,-1.403,-3.601,3.601,1
2.031385,0.719,0.409,0.569,-2.136,-3.601,3.601,1
2.03997,0.714,0.409,0.572,-2.441,-3.662,3.723,1
2.048617,0.713,0.41,0.573,-2.685,-3.723,3.906,1
2.055467,0.712,0.408,0.571,-2.197,-3.723,4.089,1
2.063966,0.714,0.408,0.571,-1.831,-3.784,4.211,1
2.071807,0.712,0.409,0.567,-1.708,-3.967,4.333,1
2.080866,0.706,0.404,0.566,-1.464,-3.845,4.394,1
2.08862,0.705,0.397,0.557,-1.77,-4.15,4.577,1
2.095447,0.705,0.402,0.559,-1.892,-4.333,4.699,1
2.104359,0.705,0.404,0.56,-2.929,-4.577,4.943,1
2.111487,0.704,0.403,0.569,-3.112,-4.882,5.187,1
2.120302,0.701,0.41,0.567,-2.38,-4.882,5.493,1
2.127201,0.703,0.41,0.567,-0.976,-5.126,5.493,1
2.134889,0.699,0.412,0.564,0.61,-5.432,5.615,1
2.143983,0.694,0.405,0.559,1.647,-5.432,5.737,1
2.150631,0.687,0.405,0.551,1.77,-6.103,6.103,1
2.158867,0.675,0.406,0.558,1.647,-6.53,6.469,1
2.165802,0.677,0.408,0.568,2.136,-6.774,6.835,1
2.174178,0.691,0.41,0.58,1.831,-7.019,6.958,1
2.181828,0.704,0.424,0.59,0.488,-7.019,7.202,1
2.190215,0.704,0.431,0.605,-1.647,-6.652,7.202,1
2.197749,0.716,0.437,0.613,-2.136,-6.164,7.324,1
2.206546,0.713,0.437,0.612,-2.563,-5.554,7.446,1
2.213447,0.697,0.437,0.608,-3.112,-5.493,7.141,1
2.221838,0.673,0.432,0.6,-3.845,-5.187,7.263,1
2.229097,0.694,0.4,0.594,-4.272,-5.493,7.202,1
2.237967,0.704,0.368,0.6,-4.455,-5.187,7.263,1
2.244729,0.686,0.343,0.607,-4.089,-5.249,7.873,1
2.252221,0.668,0.309,0.617,-4.699,-5.187,8.422,1
2.261358,0.647,0.291,0.63,-6.652,-5.493,9.216,1
2.268692,0.651,0.261,0.661,-11.413,-5.126,10.009,1
2.277243,0.648,0.225,0.719,-16.235,-4.455,11.352,1
2.284209,0.629,0.182,0.78,-18.676,-3.784,12.695,1
2.292251,0.598,0.128,0.864,-21.179,-2.624,14.465,1
2.301144,0.596,0.072,0.938,-24.353,-0.976,16.784,1
2.308489,0.603,0.008,1.037,-29.235,0.671,19.165,1
2.316065,0.582,-0.038,1.157,-32.287,3.601,22.155,1
2.324704,0.564,-0.083,1.291,-32.592,7.568,26.0,1
2.332435,0.513,-0.122,1.446,-25.878,11.596,29.846,1
2.341578,0.493,-0.178,1.556,-14.221,16.113,34.484,1
2.349267,0.428,-0.236,1.679,-5.493,21.606,38.757,1
2.356671,0.377,-0.307,1.863,0.122,27.343,43.518,1
2.364509,0.325,-0.371,2.039,3.723,35.766,49.865,1
2.373094,0.291,-0.416,2.22,7.446,44.311,55.664,1
2.380495,0.243,-0.455,2.392,13.549,53.955,62.072,1
2.388638,0.186,-0.49,2.554,19.531,64.697,69.458,1
2.395256,0.133,-0.463,2.731,19.287,78.857,78.613,1
2.403689,0.082,-0.395,2.909,18.493,89.965,85.205,1
2.410743,0.021,-0.313,3.069,21.545,104.919,92.773,1
2.418827,-0.059,-0.224,3.185,31.555,122.741,101.379,1
2.428075,-0.143,-0.127,3.275,41.137,138.061,107.604,1
2.43595,-0.282,-0.021,3.337,48.034,156.982,115.112,1
2.442583,-0.406,0.096,3.368,47.607,173.095,120.666,1
2.451883,-0.547,0.306,3.408,44.25,189.697,125.488,1
2.457756,-0.65,0.561,3.454,43.823,206.97,129.15,1
2.465667,-0.759,0.822,3.45,49.865,225.402,131.286,1
2.473214,-0.849,1.109,3.367,62.927,242.675,132.446,1
2.481139,-0.934,1.393,3.202,80.261,258.422,132.873,1
2.48901,-1.026,1.667,2.979,98.632,272.766,131.835,1
2.496448,-1.137,1.935,2.718,114.379,285.339,129.943,1
2.504,-1.265,2.194,2.432,123.779,296.447,126.464,1
2.511745,-1.395,2.385,2.141,125.61,307.617,121.459,1
2.519887,-1.501,2.513,1.826,115.844,317.504,115.051,1
2.52671,-1.614,2.662,1.564,100.708,326.538,107.36,1
2.53482,-1.704,2.783,1.288,91.43,335.51,97.778,1
2.541686,-1.732,2.863,0.963,90.27,342.468,86.73,1
2.549998,-1.749,2.909,0.648,98.632,346.069,75.439,1
2.55912,-1.786,2.913,0.295,112.304,347.29,62.499,1
2.567059,-1.735,2.88,0.043,122.253,347.106,51.94,1
2.574009,-1.667,2.807,-0.295,126.892,346.069,41.87,1
2.582755,-1.614,2.719,-0.559,123.779,341.552,30.7,1
2.589656,-1.511,2.624,-0.762,121.154,336.425,21.362,1
2.597889,-1.437,2.497,-0.964,116.516,329.65,12.512,1
2.606941,-1.303,2.359,-1.176,108.642,322.082,4.089,1
2.613914,-1.23,2.224,-1.347,86.547,314.147,-5.859,1
2.621357,-1.113,2.098,-1.549,63.537,305.542,-13.793,1
2.631041,-1.027,1.983,-1.756,54.443,293.396,-21.728,1
2.638724,-0.943,1.875,-1.867,62.133,276.245,-29.296,1
2.646488,-0.817,1.737,-1.943,71.838,261.23,-34.484,1
2.655291,-0.67,1.562,-2.006,77.331,245.056,-39.062,1
2.662313,-0.583,1.415,-2.014,77.026,232.238,-41.687,1
2.670627,-0.48,1.272,-2.026,75.744,221.435,-42.907,1
2.678143,-0.376,1.18,-2.061,72.753,209.96,-43.762,1
2.685348,-0.342,1.085,-2.071,72.082,196.777,-44.25,1
2.694118,-0.262,1.0,-2.072,68.725,185.729,-43.518,1
2.702667,-0.176,0.919,-2.071,65.246,174.255,-42.48,1
2.711218,-0.082,0.839,-2.053,66.772,161.071,-40.771,1
2.718235,0.0,0.76,-2.03,73.425,149.414,-38.635,1
2.72577,0.054,0.677,-2.001,78.796,138.183,-36.071,1
2.733354,0.123,0.597,-1.967,75.866,126.708,-32.409,1
2.741181,0.172,0.545,-1.923,68.908,117.065,-29.479,1
2.749631,0.23,0.499,-1.859,62.805,107.604,-26.794,1
2.757954,0.289,0.444,-1.775,58.105,98.876,-23.986,1
2.765802,0.33,0.407,-1.708,52.368,89.355,-21.24,1
2.774124,0.363,0.38,-1.646,46.508,81.42,-18.493,1
2.782039,0.404,0.354,-1.579,38.024,74.462,-15.624,1
2.790197,0.456,0.348,-1.517,29.418,66.345,-12.634,1
2.798093,0.495,0.355,-1.457,25.756,59.387,-10.192,1
2.805326,0.519,0.369,-1.388,24.536,52.795,-7.812,1
2.813174,0.564,0.386,-1.304,25.085,46.691,-5.615,1
2.82096,0.581,0.401,-1.247,29.052,40.283,-3.662,1
2.830108,0.605,0.413,-1.203,31.433,34.912,-1.892,1
2.836437,0.629,0.416,-1.162,30.578,30.334,-0.61,1
2.844002,0.663,0.419,-1.113,26.123,25.939,0.732,1
2.85354,0.692,0.431,-1.067,20.019,21.911,2.319,1
2.860704,0.717,0.44,-1.012,14.343,17.456,3.356,1
2.868065,0.737,0.449,-0.965,10.925,13.671,4.272,1
2.875539,0.745,0.461,-0.912,9.643,9.948,5.065,1
2.883761,0.757,0.462,-0.861,9.155,6.042,6.164,1
2.892102,0.758,0.466,-0.799,8.544,3.051,6.774,1
2.898908,0.762,0.477,-0.741,7.202,0.793,7.751,1
2.90665,0.752,0.484,-0.694,3.234,-1.831,9.033,1
2.915057,0.736,0.504,-0.657,0.244,-3.601,10.009,1
2.922698,0.719,0.532,-0.631,-0.488,-5.31,10.864,1
2.931088,0.708,0.548,-0.604,0.366,-7.141,11.657,1
2.938114,0.686,0.574,-0.572,1.159,-8.972,12.329,1
2.946045,0.677,0.595,-0.54,1.77,-10.925,13.183,1
2.954957,0.676,0.613,-0.508,1.708,-12.145,13.427,1
2.96187,0.676,0.625,-0.479,1.892,-13.671,13.671,1
2.969921,0.678,0.642,-0.437,2.99,-14.953,13.854,1
2.978862,0.678,0.643,-0.406,4.516,-16.174,13.793,1
2.985421,0.681,0.639,-0.356,5.92,-16.845,13.793,1
2.993101,0.678,0.645,-0.324,5.737,-17.211,13.732,1
3.000839,0.676,0.647,-0.302,3.662,-17.089,13.427,1
3.010286,0.672,0.658,-0.293,0.976,-16.906,13.854,1
3.017423,0.676,0.665,-0.278,-2.075,-16.54,13.671,1
3.026689,0.679,0.671,-0.268,-4.211,-16.174,13.61,1
3.033159,0.68,0.682,-0.262,-4.943,-15.869,13.732,1
3.042007,0.682,0.689,-0.25,-4.516,-15.869,13.549,1
3.049621,0.697,0.698,-0.237,-2.807,-15.686,13.549,1
3.057571,0.7,0.699,-0.212,-0.488,-15.686,13.0,1
3.06426,0.705,0.694,-0.202,2.38,-15.014,12.939,1
3.07235,0.707,0.698,-0.196,4.028,-14.77,12.817,1
3.080814,0.711,0.701,-0.186,3.723,-14.221,12.817,1
3.087586,0.713,0.702,-0.173,1.892,-13.427,12.573,1
3.09643,0.718,0.712,-0.16,0.366,-12.756,12.634,1
3.105722,0.719,0.724,-0.155,-1.77,-11.962,12.145,1
3.112867,0.711,0.739,-0.14,-3.479,-10.986,11.901,1
3.120982,0.71,0.745,-0.127,-3.967,-10.009,11.474,1
3.12984,0.711,0.75,-0.123,-3.845,-9.033,10.986,1
3.137506,0.709,0.752,-0.121,-2.807,-8.3,10.498,1
3.144812,0.718,0.751,-0.117,-2.014,-7.019,9.826,1
3.152374,0.718,0.757,-0.121,-1.647,-6.103,9.033,1
3.161884,0.714,0.761,-0.116,-0.915,-5.065,8.483,1
3.168297,0.716,0.757,-0.114,0.061,-4.089,7.69,1
3.175763,0.713,0.758,-0.11,0.061,-2.929,7.019,1
3.183563,0.714,0.754,-0.119,-0.183,-2.075,6.652,1
3.19158,0.712,0.753,-0.121,-1.037,-1.281,6.286,1
3.199471,0.702,0.752,-0.126,-2.624,-0.244,5.859,1
3.208065,0.693,0.757,-0.132,-4.455,0.549,5.126,1
3.21669,0.687,0.762,-0.135,-5.065,1.22,4.76,1
3.223933,0.681,0.761,-0.144,-5.31,1.831,4.455,1
3.232507,0.685,0.764,-0.153,-5.92,2.502,4.272,1
3.239331,0.673,0.766,-0.162,-6.652,2.99,3.723,1
3.248231,0.682,0.768,-0.17,-5.859,3.417,3.234,1
3.256632,0.681,0.772,-0.183,-3.234,3.845,2.563,1
3.264699,0.695,0.767,-0.202,-0.305,3.601,2.197,1
3.270639,0.704,0.757,-0.223,1.892,3.784,1.525,1
3.278436,0.715,0.751,-0.239,2.38,3.54,1.098,1
3.287278,0.725,0.745,-0.257,1.647,3.723,0.61,1
3.294419,0.727,0.739,-0.274,-0.488,3.54,0.244,1
3.302859,0.743,0.744,-0.284,-2.563,3.051,-0.061,1
3.310405,0.748,0.744,-0.288,-2.685,3.051,-0.305,1
3.319208,0.751,0.742,-0.296,-1.525,2.563,-0.61,1
3.327418,0.756,0.741,-0.31,0.244,1.953,-0.854,1
3.333831,0.756,0.743,-0.32,2.502,1.098,-1.403,1
3.342613,0.763,0.737,-0.32,3.723,0.305,-1.77,1
3.35108,0.762,0.727,-0.327,2.929,0.0,-2.319,1
3.357326,0.751,0.729,-0.324,1.77,-0.915,-2.441,1
3.365007,0.742,0.725,-0.33,1.525,-1.403,-2.99,1
3.374188,0.734,0.726,-0.321,1.525,-2.136,-3.234,1
3.381927,0.72,0.715,-0.314,1.403,-2.441,-3.723,1
3.389749,0.713,0.708,-0.308,0.976,-2.502,-4.211,1
3.397414,0.703,0.698,-0.296,-0.183,-2.685,-4.333,1
3.406273,0.703,0.691,-0.288,-1.403,-2.929,-4.76,1
3.413449,0.705,0.68,-0.271,-1.525,-2.624,-4.76,1
3.422968,0.703,0.671,-0.262,-0.854,-3.295,-4.76,1
3.431743,0.705,0.664,-0.253,-0.793,-3.112,-4.76,1
3.43864,0.707,0.659,-0.238,-1.525,-2.99,-4.699,1
3.447618,0.708,0.652,-0.225,-1.892,-2.746,-4.455,1
3.454818,0.705,0.65,-0.221,-2.136,-2.258,-4.516,1
3.46373,0.702,0.649,-0.215,-2.38,-2.258,-4.15,1
3.470797,0.701,0.646,-0.21,-2.868,-1.953,-3.845,1
3.47917,0.702,0.646,-0.214,-3.234,-1.831,-3.601,1
3.488421,0.706,0.65,-0.213,-2.746,-1.525,-3.662,1
3.495114,0.711,0.644,-0.212,-1.831,-1.464,-3.112,1
3.503501,0.716,0.641,-0.209,-1.525,-1.159,-3.234,1
3.511915,0.708,0.634,-0.209,-1.708,-1.037,-2.99,1
3.518831,0.705,0.638,-0.202,-1.342,-0.793,-2.929,1
3.527208,0.703,0.64,-0.2,-0.488,-0.61,-2.624,1
3.535167,0.706,0.63,-0.188,-0.122,-0.427,-2.136,1
3.543684,0.705,0.631,-0.189,-0.793,0.244,-1.953,1
3.551409,0.706,0.628,-0.186,-1.037,0.61,-1.647,1
3.559554,0.701,0.631,-0.188,-1.953,1.281,-1.22,1
3.566412,0.699,0.636,-0.189,-2.624,1.708,-1.037,1
3.574932,0.694,0.643,-0.192,-3.112,2.258,-0.671,1
3.583174,0.688,0.65,-0.203,-2.807,2.624,-0.366,1
3.592323,0.69,0.655,-0.205,-2.624,2.868,-0.366,1
3.599755,0.686,0.663,-0.207,-2.868,3.173,-0.427,1
3.608437,0.693,0.666,-0.208,-1.831,2.99,-0.244,1
3.61597,0.689,0.673,-0.206,-1.403,3.295,-0.244,1
3.625368,0.695,0.678,-0.197,-0.427,3.54,-0.183,1
3.632318,0.697,0.687,-0.2,-0.366,3.967,-0.305,1
3.640277,0.703,0.693,-0.203,0.976,4.333,-0.305,1
3.649929,0.708,0.699,-0.209,1.403,4.699,-0.366,1
3.656473,0.711,0.708,-0.216,1.403,4.943,-0.427,1
3.665171,0.716,0.71,-0.221,1.77,5.371,-0.61,1
3.671903,0.718,0.714,-0.227,2.563,5.371,-0.976,1
3.678714,0.727,0.706,-0.227,3.54,5.554,-1.281,1
3.687032,0.729,0.702,-0.238,3.54,5.615,-1.525,1
3.695959,0.727,0.695,-0.249,3.417,5.676,-1.953,1
3.702547,0.721,0.688,-0.255,3.234,5.615,-1.892,1
3.711398,0.728,0.676,-0.26,2.563,5.615,-2.136,1
3.718443,0.718,0.669,-0.267,0.671,5.615,-2.075,1
3.725571,0.721,0.667,-0.266,-1.586,5.92,-2.014,1
3.733805,0.717,0.666,-0.269,-2.136,5.737,-1.892,1
3.742677,0.713,0.661,-0.27,-1.77,5.432,-1.77,1
3.749291,0.713,0.662,-0.268,-1.159,5.554,-1.708,1
3.758144,0.707,0.656,-0.27,-0.976,5.31,-1.647,1
3.764769,0.709,0.654,-0.27,-0.549,5.31,-1.647,1
3.773268,0.705,0.647,-0.264,-0.488,5.31,-1.525,1
3.779879,0.702,0.643,-0.261,-0.122,5.249,-1.464,1
3.788267,0.699,0.641,-0.266,0.671,5.31,-0.976,1
3.795321,0.704,0.636,-0.264,0.854,5.187,-1.098,1
3.804146,0.699,0.633,-0.271,0.488,5.31,-0.854,1
3.811081,0.698,0.632,-0.275,-0.061,5.187,-0.915,1
3.817978,0.695,0.632,-0.282,0.0,5.065,-0.305,1
3.82612,0.696,0.63,-0.285,-0.061,5.126,-0.183,1
3.834625,0.699,0.63,-0.289,-0.366,5.004,0.061,1
3.843034,0.701,0.63,-0.29,-0.671,4.821,0.244,1
3.849585,0.704,0.635,-0.298,-1.037,4.699,0.549,1
3.857075,0.708,0.64,-0.301,-1.525,4.638,0.549,1
3.864884,0.704,0.647,-0.303,-1.525,4.333,0.854,1
3.874215,0.706,0.646,-0.304,-0.427,3.967,0.976,1
3.880194,0.707,0.65,-0.306,0.366,3.723,1.098,1
3.887953,0.707,0.65,-0.312,0.732,3.295,1.22,1
3.895359,0.707,0.649,-0.313,0.793,2.868,1.22,1
3.904115,0.71,0.65,-0.31,1.037,2.685,1.281,1
3.912593,0.707,0.649,-0.314,1.037,2.197,1.586,1
3.918915,0.708,0.647,-0.312,0.427,1.831,1.77,1
3.928186,0.702,0.647,-0.317,0.305,1.647,1.953,1
3.934872,0.704,0.654,-0.321,-0.427,1.22,1.953,1
3.943042,0.703,0.657,-0.324,-0.915,1.098,2.014,1
3.950802,0.702,0.666,-0.324,-0.671,0.671,2.258,1
3.95851,0.699,0.667,-0.315,-0.488,0.305,2.136,1
3.967252,0.7,0.676,-0.312,-0.244,-0.122,1.892,1
3.973374,0.702,0.679,-0.308,0.061,-0.061,1.77,1
3.981402,0.699,0.675,-0.305,0.488,-0.244,1.953,1
3.990289,0.698,0.682,-0.3,0.305,-0.427,1.77,1
3.997584,0.694,0.683,-0.296,1.098,-0.61,1.77,1
4.006903,0.693,0.689,-0.291,1.525,-0.854,1.647,1
4.012808,0.694,0.692,-0.29,2.136,-0.976,1.403,1
4.021925,0.701,0.694,-0.289,2.624,-1.037,1.342,1
4.029994,0.712,0.696,-0.285,2.807,-1.281,1.464,1
4.036906,0.71,0.703,-0.283,2.868,-1.037,1.098,1
4.045586,0.709,0.705,-0.277,2.685,-1.22,0.854,1
4.053137,0.71,0.708,-0.267,2.38,-1.037,0.671,1
4.062615,0.708,0.703,-0.268,2.075,-0.915,0.427,1
4.069691,0.707,0.698,-0.268,1.77,-1.159,0.488,1
4.076684,0.706,0.7,-0.266,0.488,-0.854,0.427,1
4.0849,0.683,0.698,-0.263,-2.502,-0.61,0.244,1
4.092901,0.693,0.714,-0.254,-0.976,-0.854,0.122,1
4.100011,0.707,0.713,-0.248,0.61,-0.976,-0.305,1
4.109082,0.705,0.709,-0.236,0.488,-0.793,-0.549,1
4.116585,0.705,0.705,-0.227,-1.037,-0.366,-0.61,1
4.125285,0.703,0.705,-0.216,-2.258,-0.122,-0.854,1
4.133182,0.7,0.704,-0.207,-2.319,0.305,-0.671,1
4.14019,0.704,0.691,-0.198,-2.807,1.098,-1.22,1
4.14901,0.708,0.68,-0.202,-5.065,1.831,-1.22,1
4.156494,0.698,0.681,-0.199,-6.042,2.624,-1.281,1
4.164777,0.691,0.679,-0.197,-6.774,2.99,-1.159,1
4.172998,0.688,0.688,-0.201,-5.554,3.234,-1.464,1
4.181717,0.704,0.687,-0.201,-2.807,3.417,-1.525,1
4.188556,0.706,0.681,-0.203,-1.77,4.089,-1.525,1
4.19699,0.709,0.681,-0.196,-1.586,4.272,-1.77,1
4.203767,0.709,0.679,-0.188,-0.915,4.882,-2.075,1
4.210673,0.716,0.675,-0.195,0.183,5.126,-2.014,1
4.219754,0.715,0.676,-0.189,0.549,5.493,-2.014,1
4.226495,0.708,0.682,-0.187,1.831,5.737,-2.136,1
4.235105,0.712,0.678,-0.187,2.99,6.469,-2.075,1
4.242911,0.708,0.676,-0.189,3.417,7.263,-2.014,1
4.250999,0.708,0.674,-0.192,3.54,7.751,-2.38,1
4.258659,0.707,0.666,-0.199,3.356,8.3,-2.441,1
4.265953,0.715,0.674,-0.202,3.479,8.789,-2.441,1
4.275215,0.705,0.672,-0.202,3.417,9.033,-2.502,1
4.282999,0.706,0.672,-0.21,2.868,9.521,-2.38,1
4.290173,0.711,0.671,-0.215,1.953,9.948,-2.319,1
4.298965,0.719,0.672,-0.213,1.525,10.314,-2.38,1
4.306277,0.717,0.67,-0.208,2.014,10.559,-2.685,1
4.315137,0.715,0.675,-0.206,3.173,10.925,-2.746,1
4.322396,0.716,0.671,-0.205,4.516,11.169,-2.868,1
4.331189,0.706,0.666,-0.202,5.249,11.718,-2.746,1
4.339171,0.699,0.664,-0.209,5.31,12.268,-3.051,1
4.346212,0.689,0.661,-0.215,5.004,12.573,-2.868,1
4.354063,0.683,0.655,-0.224,5.676,13.061,-2.563,1
4.362309,0.686,0.655,-0.229,5.92,13.244,-2.502,1
4.370865,0.685,0.659,-0.236,5.859,13.732,-2.319,1
4.37922,0.697,0.662,-0.239,5.981,13.61,-1.831,1
4.386761,0.698,0.669,-0.237,7.69,13.732,-1.831,1
4.394448,0.701,0.681,-0.23,10.375,14.282,-1.953,1
4.401727,0.702,0.69,-0.237,12.145,14.587,-1.953,1
4.410882,0.696,0.7,-0.265,12.268,15.197,-2.014,1
4.417515,0.695,0.702,-0.299,8.239,15.319,-2.319,1
4.4247,0.7,0.708,-0.308,5.432,15.38,-2.929,1
4.43234,0.709,0.714,-0.319,4.272,15.319,-3.051,1
4.439983,0.71,0.71,-0.324,3.845,15.136,-3.601,1
4.447396,0.708,0.708,-0.326,3.051,14.831,-3.662,1
4.456571,0.706,0.707,-0.333,2.99,14.465,-4.089,1
4.462851,0.705,0.709,-0.33,3.906,14.343,-4.638,1
4.4712,0.702,0.705,-0.326,4.821,13.732,-4.577,1
4.479138,0.694,0.711,-0.328,7.019,13.977,-4.943,1
4.488098,0.686,0.711,-0.341,8.544,13.488,-5.065,1
4.494949,0.695,0.702,-0.356,8.911,13.0,-5.371,1
4.504572,0.689,0.701,-0.356,9.277,12.939,-5.676,1
4.51154,0.688,0.69,-0.365,8.605,12.39,-5.737,1
4.519297,0.689,0.681,-0.372,7.263,11.962,-5.981,1
4.528533,0.692,0.665,-0.375,4.577,11.779,-5.92,1
4.534951,0.695,0.651,-0.378,2.502,11.352,-6.042,1
4.542571,0.698,0.65,-0.382,0.305,10.803,-5.554,1
4.550297,0.692,0.649,-0.389,-1.159,10.375,-5.554,1
4.559057,0.692,0.644,-0.394,-0.976,10.009,-5.31,1
4.566334,0.672,0.649,-0.387,0.183,9.582,-5.187,1
4.574538,0.661,0.645,-0.406,1.647,8.911,-5.065,1
4.582344,0.669,0.636,-0.414,2.258,8.178,-4.821,1
4.59083,0.677,0.626,-0.42,2.014,7.446,-4.638,1
4.597563,0.679,0.62,-0.417,1.647,6.958,-4.211,1
4.607538,0.684,0.618,-0.413,0.732,6.164,-4.15,1
4.61409,0.674,0.614,-0.415,-0.244,5.554,-3.601,1
4.623108,0.67,0.606,-0.411,-1.281,4.882,-3.479,1
4.630793,0.668,0.604,-0.403,-2.258,4.638,-2.868,1
4.639184,0.666,0.6,-0.401,-2.685,4.394,-2.441,1
4.647656,0.665,0.597,-0.402,-2.502,3.417,-2.136,1
4.654374,0.662,0.599,-0.402,-2.075,2.624,-1.525,1
4.664014,0.656,0.601,-0.399,-0.915,2.136,-1.098,1
4.671257,0.653,0.598,-0.397,0.305,1.708,-0.61,1
4.679034,0.669,0.594,-0.394,1.831,1.22,-0.183,1
4.68581,0.669,0.588,-0.387,2.746,0.427,0.671,1
4.693492,0.67,0.589,-0.385,3.051,0.366,1.037,1
4.70259,0.667,0.584,-0.378,3.234,-0.122,1.525,1
4.709565,0.671,0.573,-0.378,2.197,-0.366,2.197,1
4.717908,0.671,0.574,-0.375,1.22,-0.793,2.99,1
4.727186,0.671,0.567,-0.371,1.159,-1.647,3.54,1
4.735065,0.675,0.574,-0.365,-0.183,-1.464,4.089,1
4.742246,0.667,0.578,-0.362,-1.953,-1.953,4.882,1
4.749996,0.676,0.592,-0.343,-1.831,-2.136,5.371,1
4.759325,0.668,0.597,-0.338,-1.586,-2.014,5.981,1
4.765782,0.669,0.606,-0.338,-1.525,-2.075,6.286,1
4.774174,0.678,0.611,-0.339,-1.892,-2.075,6.774,1
4.781507,0.682,0.619,-0.339,-2.502,-2.319,7.385,1
4.790927,0.684,0.628,-0.34,-3.479,-2.563,7.751,1
4.798771,0.682,0.639,-0.339,-4.211,-2.38,7.751,1
4.805678,0.694,0.647,-0.333,-4.272,-2.807,8.056,1
4.813873,0.693,0.654,-0.325,-4.211,-3.051,8.056,1
4.822818,0.687,0.662,-0.309,-3.662,-3.173,8.117,1
4.831299,0.684,0.672,-0.298,-3.417,-3.173,7.934,1
4.837652,0.683,0.691,-0.282,-2.99,-3.356,7.934,1
4.845751,0.682,0.701,-0.269,-2.868,-2.99,7.812,1
4.854214,0.684,0.708,-0.253,-2.624,-2.319,7.751,1
4.862878,0.686,0.718,-0.245,-2.258,-1.586,7.385,1
4.870258,0.705,0.723,-0.245,-2.563,-1.159,7.263,1
4.878121,0.713,0.728,-0.236,-4.638,-0.854,7.263,1
4.886699,0.764,0.713,-0.205,-10.925,-0.671,6.774,1
4.894787,0.734,0.737,-0.171,-13.793,2.014,6.713,1
4.903312,0.69,0.758,-0.149,-14.892,2.807,6.347,1
4.909616,0.677,0.769,-0.138,-12.695,4.394,5.798,1
4.917994,0.662,0.785,-0.139,-10.253,5.676,5.004,1
4.925299,0.632,0.783,-0.17,-9.216,6.896,4.516,1
4.933209,0.64,0.775,-0.248,-10.803,8.422,3.906,1
4.940868,0.614,0.769,-0.288,-13.854,8.911,3.295,1
4.950073,0.624,0.752,-0.326,-11.474,8.483,2.441,1
4.956716,0.655,0.744,-0.348,-4.577,7.69,1.342,1
4.963783,0.683,0.722,-0.375,1.586,6.591,0.488,1
4.973101,0.723,0.694,-0.4,2.929,6.225,0.0,1
4.980831,0.721,0.657,-0.442,-0.915,5.065,-0.549,1
4.988222,0.728,0.635,-0.45,-1.037,4.272,-1.098,1
4.996503,0.729,0.605,-0.469,1.403,3.295,-0.793,1
5.005657,0.721,0.579,-0.489,1.464,2.502,-0.488,1
5.012725,0.708,0.538,-0.523,-3.784,1.953,0.61,1
5.019183,0.696,0.507,-0.559,-8.544,1.403,1.525,1
5.027215,0.697,0.472,-0.607,-11.047,0.305,2.502,1
5.036524,0.687,0.44,-0.63,-11.535,-1.403,3.723,1
5.044289,0.645,0.407,-0.664,-13.0,-2.929,5.249,1
5.052123,0.608,0.402,-0.699,-15.38,-4.882,7.08,1
5.060102,0.563,0.398,-0.739,-15.93,-6.774,8.972,1
5.068083,0.52,0.387,-0.796,-16.357,-8.728,11.047,1
5.076128,0.492,0.369,-0.858,-18.432,-11.535,13.671,1
5.085253,0.465,0.351,-0.917,-20.69,-14.526,16.296,1
5.091942,0.435,0.338,-0.994,-21.606,-16.967,18.798,1
5.100622,0.39,0.304,-1.115,-22.46,-19.958,21.179,1
5.108034,0.364,0.276,-1.262,-27.343,-23.681,24.841,1
5.116627,0.342,0.248,-1.426,-36.56,-28.137,28.259,1
5.125338,0.31,0.209,-1.613,-49.865,-34.24,32.897,1
5.133037,0.279,0.204,-1.78,-63.354,-40.283,37.414,1
5.141138,0.215,0.231,-1.988,-82.214,-46.02,42.602,1
5.148583,0.172,0.271,-2.18,-103.576,-53.405,48.278,1
5.157037,0.13,0.337,-2.357,-119.689,-63.903,54.748,1
5.165771,0.074,0.408,-2.523,-123.901,-75.195,59.265,1
5.172943,0.037,0.479,-2.706,-121.154,-90.148,64.392,1
5.180577,-0.003,0.524,-2.875,-119.079,-104.248,68.359,1
5.18956,-0.081,0.558,-3.043,-119.384,-119.873,71.777,1
5.198452,-0.117,0.605,-3.159,-122.009,-138.427,75.5,1
5.205926,-0.242,0.666,-3.272,-123.718,-155.7,78.43,1
5.213758,-0.35,0.696,-3.337,-122.314,-176.94,82.214,1
5.222119,-0.459,0.762,-3.366,-124.511,-194.763,84.411,1
5.230521,-0.622,0.838,-3.365,-139.526,-215.698,88.012,1
5.23878,-0.789,0.944,-3.284,-151.977,-235.839,92.163,1
5.246518,-0.914,1.08,-3.206,-153.442,-252.319,95.458,1
5.256072,-1.086,1.211,-3.118,-152.832,-268.92,98.083,1
5.263289,-1.287,1.381,-2.976,-151.367,-287.78,100.341,1
5.272304,-1.422,1.492,-2.841,-149.353,-302.673,101.379,1
5.280157,-1.576,1.622,-2.682,-152.221,-318.359,102.722,1
5.288854,-1.736,1.789,-2.507,-165.466,-332.702,104.492,1
5.297403,-1.887,1.987,-2.286,-178.161,-343.566,105.529,1
5.305848,-2.01,2.193,-2.08,-188.903,-353.942,106.75,1
5.314549,-2.167,2.475,-1.826,-190.246,-364.013,106.323,1
5.321799,-2.248,2.694,-1.576,-181.457,-373.107,103.088,1
5.330784,-2.355,2.864,-1.231,-154.235,-383.361,96.862,1
5.339775,-2.466,2.942,-0.817,-120.666,-391.357,86.975,1
5.347037,-2.539,2.919,-0.398,-100.158,-394.958,77.087,1
5.356006,-2.53,2.883,-0.02,-91.857,-395.935,65.063,1
5.363258,-2.517,2.845,0.444,-93.566,-392.456,53.771,1
5.372563,-2.521,2.839,0.826,-94.543,-387.084,44.372,1
5.379778,-2.47,2.821,1.221,-94.238,-379.394,35.095,1
5.389163,-2.421,2.82,1.538,-86.73,-368.835,23.925,1
5.398112,-2.353,2.72,1.819,-77.148,-357.177,14.526,1
5.404434,-2.242,2.602,2.022,-66.894,-342.285,4.089,1
5.412156,-2.127,2.499,2.267,-53.222,-329.223,-5.126,1
5.421308,-1.925,2.393,2.535,-26.733,-312.744,-16.113,1
5.430429,-1.707,2.144,2.747,-2.38,-295.715,-25.329,1
5.437372,-1.504,1.924,2.855,0.183,-274.902,-34.667,1
5.444636,-1.304,1.727,2.979,-6.225,-255.493,-40.466,1
5.453247,-0.997,1.529,3.036,-9.643,-235.778,-44.86,1
5.460788,-0.759,1.362,3.027,-6.591,-213.684,-48.339,1
5.468184,-0.521,1.174,2.958,-6.408,-195.129,-49.743,1
5.476858,-0.278,1.018,2.793,-14.892,-177.429,-50.231,1
5.484447,-0.058,0.877,2.609,-28.381,-160.827,-49.316,1
5.493104,0.097,0.812,2.483,-26.245,-148.864,-47.912,1
5.500653,0.21,0.757,2.346,-16.418,-139.16,-46.63,1
5.508498,0.334,0.693,2.22,-7.446,-128.234,-44.738,1
5.517191,0.423,0.64,2.103,-7.446,-119.079,-43.151,1
5.525749,0.487,0.607,1.991,-11.23,-110.534,-41.32,1
5.532507,0.534,0.596,1.901,-13.305,-103.637,-39.855,1
5.540839,0.548,0.609,1.873,-4.211,-96.374,-38.452,1
5.547854,0.543,0.597,1.862,11.352,-90.515,-38.391,1
5.554991,0.517,0.562,1.851,26.55,-84.289,-38.208,1
5.562951,0.508,0.463,1.826,31.555,-77.148,-38.33,1
5.57144,0.514,0.381,1.807,26.611,-70.068,-37.719,1
5.578726,0.516,0.322,1.803,14.465,-59.204,-36.56,1
5.586754,0.515,0.306,1.78,3.723,-50.048,-34.301,1
5.593147,0.531,0.299,1.734,-3.295,-41.198,-32.47,1
5.601693,0.53,0.293,1.679,-6.591,-32.958,-29.663,1
5.609911,0.524,0.304,1.591,-10.375,-24.719,-27.099,1
5.617915,0.523,0.33,1.463,-15.075,-17.639,-24.536,1
5.626414,0.528,0.374,1.366,-16.418,-11.413,-22.521,1
5.632921,0.523,0.422,1.264,-10.864,-5.249,-20.08,1
5.640781,0.52,0.447,1.156,-4.821,-1.098,-18.676,1
5.648628,0.53,0.458,1.062,-1.098,2.441,-17.456,1
5.65681,0.542,0.436,0.957,-2.197,6.53,-16.235,1
5.665089,0.557,0.419,0.887,-5.798,8.544,-15.136,1
5.671954,0.579,0.423,0.838,-9.887,11.901,-13.549,1
5.681376,0.598,0.429,0.784,-10.253,13.671,-12.512,1
5.687692,0.625,0.426,0.72,-8.178,14.831,-11.413,1
5.695303,0.648,0.427,0.659,-5.676,16.174,-10.009,1
5.703031,0.662,0.449,0.584,-7.446,17.272,-8.544,1
5.712126,0.674,0.478,0.509,-14.343,18.31,-7.141,1
5.720272,0.675,0.521,0.458,-18.859,18.92,-6.225,1
5.727937,0.691,0.579,0.404,-18.798,19.226,-5.676,1
5.735455,0.678,0.646,0.36,-15.014,18.31,-5.554,1
5.743016,0.68,0.699,0.332,-9.887,17.578,-5.432,1
5.750922,0.676,0.725,0.297,-5.615,16.967,-6.164,1
5.760518,0.669,0.724,0.276,-2.38,15.686,-7.202,1
5.768315,0.671,0.718,0.266,-2.441,14.587,-7.507,1
5.775532,0.685,0.724,0.28,-4.028,13.732,-7.995,1
5.784041,0.696,0.729,0.288,-3.356,12.878,-8.666,1
5.790508,0.694,0.732,0.285,-0.976,12.329,-9.155,1
5.799468,0.691,0.739,0.284,0.305,11.291,-9.399,1
5.805812,0.669,0.739,0.28,-0.549,10.803,-9.826,1
5.814895,0.67,0.738,0.296,-1.892,10.192,-10.253,1
5.821933,0.676,0.744,0.312,-2.38,10.07,-10.742,1
5.830417,0.667,0.747,0.307,-2.624,9.887,-10.742,1
5.837076,0.665,0.751,0.298,-3.234,9.704,-11.413,1
5.846557,0.66,0.751,0.303,-3.356,9.338,-11.718,1
5.853682,0.661,0.737,0.31,-2.38,9.277,-12.145,1
5.861572,0.67,0.727,0.305,-1.892,8.728,-12.512,1
5.87069,0.676,0.711,0.296,-2.746,8.666,-12.451,1
5.878261,0.675,0.701,0.282,-5.126,8.666,-12.939,1
5.886537,0.672,0.688,0.263,-6.896,8.422,-12.878,1
5.894261,0.677,0.666,0.25,-7.385,7.507,-13.0,1
5.902742,0.678,0.653,0.246,-6.225,6.835,-13.183,1
5.910025,0.681,0.619,0.235,-5.493,5.676,-12.939,1
5.917398,0.679,0.6,0.229,-6.591,4.943,-12.817,1
5.924969,0.676,0.584,0.225,-8.422,4.516,-12.634,1
5.933277,0.677,0.566,0.227,-8.972,3.723,-12.023,1
5.941837,0.681,0.557,0.224,-8.85,2.868,-11.047,1
5.949763,0.682,0.546,0.231,-8.422,2.319,-10.375,1
5.958141,0.692,0.541,0.239,-7.507,1.586,-9.46,1
5.965093,0.692,0.524,0.25,-6.469,1.159,-8.666,1
5.97281,0.685,0.519,0.261,-5.432,0.305,-7.629,1
5.980597,0.685,0.527,0.262,-6.591,0.244,-6.469,1
5.988337,0.693,0.535,0.267,-9.277,0.0,-5.554,1
5.996007,0.686,0.544,0.274,-10.559,-0.61,-4.943,1
6.0043,0.683,0.55,0.274,-10.742,-0.366,-4.089,1
6.011159,0.678,0.551,0.269,-10.559,-1.037,-3.417,1
6.018931,0.677,0.56,0.264,-10.559,-1.281,-2.746,1
6.027757,0.686,0.573,0.262,-11.047,-1.586,-2.197,1
6.03564,0.689,0.586,0.264,-10.986,-2.197,-1.77,1
6.043453,0.693,0.603,0.271,-9.582,-2.563,-1.403,1
6.051105,0.694,0.615,0.277,-7.08,-3.479,-1.159,1
6.059724,0.701,0.613,0.283,-5.615,-3.601,-1.037,1
6.067313,0.711,0.617,0.286,-6.713,-4.089,-1.159,1
6.074181,0.719,0.631,0.293,-8.483,-4.211,-0.854,1
6.083524,0.728,0.647,0.3,-9.704,-4.394,-0.793,1
6.091259,0.727,0.659,0.309,-9.826,-4.699,-0.793,1
6.100815,0.732,0.678,0.316,-10.314,-4.882,-1.098,1
6.106482,0.732,0.69,0.324,-11.047,-4.943,-1.281,1
6.114773,0.732,0.701,0.332,-10.803,-5.187,-1.953,1
6.12329,0.737,0.711,0.337,-9.033,-5.493,-2.563,1
6.130543,0.729,0.714,0.34,-7.08,-5.554,-2.99,1
6.139624,0.731,0.714,0.344,-5.981,-5.676,-3.54,1
6.146885,0.725,0.713,0.348,-5.004,-5.859,-4.028,1
6.154859,0.721,0.707,0.36,-3.906,-6.103,-4.638,1
6.163431,0.723,0.709,0.371,-3.112,-6.042,-5.249,1
6.170531,0.729,0.699,0.38,-3.417,-5.798,-5.493,1
6.178612,0.724,0.692,0.382,-4.028,-5.554,-6.103,1
6.188249,0.719,0.684,0.387,-4.638,-5.371,-6.103,1
6.196109,0.715,0.68,0.396,-5.493,-5.065,-6.469,1
6.205471,0.71,0.67,0.406,-6.042,-4.577,-6.774,1
6.21251,0.708,0.663,0.407,-5.798,-4.089,-6.713,1
6.22156,0.702,0.655,0.414,-5.432,-3.967,-7.08,1
6.231052,0.695,0.644,0.421,-4.516,-3.601,-7.141,1
6.236345,0.7,0.629,0.428,-4.333,-2.99,-7.141,1
6.245105,0.706,0.621,0.429,-5.187,-2.38,-6.835,1
6.253532,0.71,0.621,0.436,-5.798,-1.647,-6.713,1
6.260135,0.712,0.618,0.434,-6.164,-0.976,-6.469,1
6.267939,0.709,0.615,0.426,-6.408,-0.61,-6.408,1
6.275653,0.71,0.615,0.416,-6.408,-0.366,-6.164,1
6.283842,0.712,0.612,0.408,-6.042,0.244,-6.042,1
6.293032,0.708,0.614,0.392,-6.835,0.793,-5.859,1
6.300105,0.707,0.615,0.385,-7.08,0.854,-5.798,1
6.307339,0.708,0.611,0.382,-6.713,1.098,-5.737,1
6.31595,0.71,0.604,0.373,-6.225,0.976,-5.493,1
6.325143,0.71,0.597,0.372,-6.042,1.22,-5.615,1
6.330964,0.708,0.6,0.368,-5.249,1.281,-5.31,1
6.340743,0.706,0.595,0.357,-5.371,1.525,-5.004,1
6.347093,0.707,0.598,0.351,-7.141,1.892,-4.333,1
6.35497,0.703,0.604,0.342,-9.216,1.892,-4.333,1
6.362259,0.708,0.615,0.337,-10.437,1.831,-4.089,1
6.370704,0.709,0.624,0.338,-9.399,1.647,-4.15,1
6.378934,0.707,0.63,0.333,-7.812,1.708,-4.028,1
6.386544,0.702,0.622,0.328,-6.469,1.281,-4.211,1
6.393267,0.708,0.616,0.319,-6.164,1.098,-4.028,1
6.402306,0.708,0.614,0.313,-6.713,1.159,-4.089,1
6.409531,0.701,0.612,0.311,-7.568,0.793,-3.784,1
6.418219,0.706,0.613,0.301,-8.056,0.671,-3.54,1
6.42611,0.706,0.615,0.3,-7.934,0.671,-3.356,1
6.434829,0.706,0.614,0.302,-7.751,0.122,-3.173,1
6.442258,0.712,0.615,0.303,-7.202,0.183,-2.868,1
6.451355,0.722,0.613,0.305,-6.713,0.0,-2.502,1
6.458979,0.715,0.612,0.305,-5.615,-0.183,-2.441,1
6.466617,0.715,0.609,0.305,-5.004,-0.488,-2.075,1
6.474697,0.708,0.607,0.311,-3.906,-0.671,-1.525,1
6.483895,0.712,0.608,0.321,-3.417,-0.732,-1.708,1
6.491045,0.713,0.604,0.325,-3.784,-0.549,-1.159,1
6.498804,0.713,0.604,0.324,-4.638,-0.305,-1.037,1
6.507732,0.716,0.619,0.309,-5.92,-0.061,-0.732,1
6.516369,0.711,0.632,0.299,-7.873,0.061,-0.915,1
6.524708,0.711,0.641,0.291,-8.666,-0.122,-0.793,1
6.532797,0.713,0.651,0.287,-7.324,-0.488,-1.037,1
6.539713,0.719,0.649,0.286,-5.981,-0.793,-1.098,1
6.548179,0.72,0.647,0.282,-4.882,-1.098,-1.098,1
6.556657,0.72,0.649,0.281,-4.882,-1.586,-1.342,1
6.564925,0.724,0.646,0.28,-5.065,-1.586,-1.403,1
6.573251,0.732,0.649,0.284,-5.249,-1.953,-1.281,1
6.580229,0.729,0.648,0.29,-4.821,-2.075,-1.464,1
6.589304,0.727,0.648,0.287,-4.211,-2.258,-1.525,1
6.596179,0.726,0.65,0.281,-4.15,-2.38,-1.342,1
6.60578,0.725,0.658,0.286,-4.577,-2.502,-1.525,1
6.61241,0.722,0.661,0.285,-4.394,-2.685,-1.708,1
6.620348,0.726,0.657,0.284,-3.784,-3.051,-2.014,1
6.628585,0.725,0.655,0.285,-3.295,-3.295,-1.892,1
6.637382,0.719,0.653,0.283,-2.319,-3.723,-1.892,1
6.644223,0.723,0.653,0.29,-1.647,-3.967,-1.953,1
6.65183,0.725,0.652,0.297,-1.22,-4.089,-1.892,1
6.660869,0.726,0.654,0.297,-1.281,-4.089,-2.136,1
6.669194,0.726,0.663,0.3,-2.136,-4.028,-2.075,1
6.677118,0.721,0.675,0.294,-2.502,-3.967,-2.136,1
6.684913,0.72,0.688,0.289,-1.77,-4.211,-2.014,1
6.692163,0.725,0.683,0.291,0.549,-4.638,-2.807,1
6.700817,0.724,0.679,0.287,1.647,-4.699,-2.99,1
6.707399,0.725,0.667,0.288,1.647,-5.371,-3.234,1
6.71487,0.73,0.654,0.286,1.708,-5.554,-3.845,1
6.723823,0.735,0.651,0.293,1.892,-5.859,-3.784,1
6.730807,0.74,0.638,0.296,2.136,-5.798,-3.906,1
6.73956,0.737,0.634,0.299,1.586,-5.676,-3.967,1
6.746425,0.737,0.634,0.297,0.732,-5.859,-3.845,1
6.755161,0.73,0.631,0.296,0.183,-6.164,-4.394,1
6.763881,0.726,0.633,0.298,-0.061,-6.164,-4.211,1
6.771212,0.725,0.623,0.3,0.549,-6.469,-4.028,1
6.780425,0.72,0.616,0.304,1.708,-6.53,-3.967,1
6.787255,0.714,0.612,0.301,2.624,-6.958,-3.723,1
6.796162,0.708,0.603,0.3,2.807,-7.019,-3.723,1
6.803105,0.708,0.6,0.311,2.807,-7.202,-3.234,1
6.811483,0.708,0.601,0.319,3.112,-7.324,-2.99,1
6.820675,0.712,0.59,0.334,3.295,-7.507,-2.868,1
6.827477,0.705,0.59,0.342,2.929,-7.263,-2.38,1
6.834867,0.71,0.586,0.344,2.685,-7.08,-2.075,1
6.842878,0.709,0.587,0.345,2.868,-6.958,-1.403,1
6.850935,0.704,0.581,0.342,2.807,-6.835,-1.342,1
6.858808,0.704,0.581,0.344,2.014,-6.652,-0.732,1
6.867293,0.705,0.58,0.345,1.098,-6.469,-0.366,1
6.875173,0.705,0.579,0.349,0.549,-6.225,-0.244,1
6.88345,0.708,0.577,0.351,0.305,-5.981,0.305,1
6.890021,0.713,0.583,0.348,-0.305,-5.798,0.427,1
6.898378,0.712,0.592,0.338,-1.098,-5.798,1.098,1
6.90644,0.709,0.605,0.339,-1.586,-5.737,1.037,1
6.913451,0.718,0.614,0.342,-0.305,-5.92,1.342,1
6.922031,0.716,0.617,0.342,2.136,-6.164,1.342,1
6.929216,0.717,0.619,0.344,4.028,-6.225,1.281,1
6.93824,0.717,0.619,0.348,5.432,-6.103,1.403,1
6.945688,0.718,0.612,0.35,5.92,-6.408,1.647,1
6.952442,0.718,0.606,0.355,5.737,-6.286,1.831,1
6.961309,0.726,0.608,0.357,5.554,-6.042,2.075,1
6.969132,0.726,0.602,0.362,4.943,-5.859,2.075,1
6.977299,0.727,0.611,0.366,3.601,-5.798,2.136,1
6.984108,0.72,0.61,0.365,1.953,-5.554,2.502,1
6.991639,0.723,0.61,0.366,0.061,-5.065,2.563,1
6.999212,0.715,0.616,0.37,-1.159,-5.065,2.38,1
7.007097,0.716,0.62,0.371,-1.464,-4.821,2.624,1
7.014838,0.716,0.625,0.371,-0.976,-4.577,2.502,1
7.023105,0.709,0.635,0.37,0.488,-4.394,2.502,1
7.030363,0.706,0.64,0.363,2.258,-4.333,2.319,1
7.038143,0.706,0.647,0.364,3.051,-4.638,2.38,1
7.045435,0.709,0.642,0.365,3.234,-4.394,2.258,1
7.05292,0.716,0.638,0.364,2.624,-4.272,2.197,1
7.060324,0.719,0.638,0.365,2.685,-4.15,2.197,1
7.069068,0.724,0.637,0.368,1.892,-4.028,2.136,1
7.075414,0.73,0.639,0.369,1.22,-3.784,2.075,1
7.084566,0.737,0.633,0.364,-0.366,-3.601,2.197,1
7.091433,0.738,0.638,0.365,-1.831,-3.356,2.136,1
7.100226,0.733,0.642,0.368,-2.197,-3.234,2.319,1
7.107549,0.73,0.651,0.361,-2.014,-2.99,1.953,1
7.116481,0.727,0.655,0.357,-1.342,-2.929,1.708,1
7.124856,0.722,0.662,0.354,0.122,-2.99,1.708,1
7.13238,0.717,0.661,0.35,1.77,-3.234,1.464,1
7.140308,0.708,0.658,0.343,2.319,-3.417,0.976,1
7.147142,0.704,0.662,0.332,2.563,-3.662,0.854,1
7.154493,0.697,0.66,0.324,1.647,-3.784,0.671,1
7.162913,0.698,0.657,0.32,1.403,-4.089,0.366,1
7.170355,0.694,0.66,0.321,2.014,-4.699,0.0,1
7.179901,0.697,0.654,0.323,2.502,-5.371,-0.061,1
7.186971,0.699,0.648,0.329,3.051,-5.554,-0.305,1
7.194666,0.703,0.646,0.337,2.807,-5.615,-0.366,1
7.203498,0.701,0.644,0.344,2.441,-5.798,-0.488,1
7.212295,0.702,0.64,0.344,1.831,-5.92,-0.427,1
7.218199,0.704,0.64,0.34,2.014,-5.859,-0.305,1
7.226887,0.702,0.636,0.333,2.136,-6.042,-0.305,1
7.234212,0.706,0.636,0.329,1.77,-6.042,-0.305,1
7.243449,0.704,0.639,0.333,1.098,-6.103,-0.427,1
7.25063,0.702,0.628,0.332,0.854,-6.103,-0.305,1
7.25923,0.706,0.62,0.337,1.159,-6.408,-0.305,1
7.266311,0.699,0.613,0.347,1.342,-6.774,0.0,1
7.274306,0.703,0.603,0.344,1.037,-6.774,-0.122,1
7.282394,0.701,0.597,0.349,0.549,-6.53,0.122,1
7.289375,0.701,0.599,0.347,0.244,-6.591,0.366,1
7.297018,0.701,0.597,0.338,0.122,-6.713,0.488,1
7.304597,0.692,0.595,0.333,0.122,-6.835,0.854,1
7.313441,0.695,0.596,0.326,0.671,-7.324,0.976,1
7.320284,0.702,0.596,0.33,2.014,-7.995,1.159,1
7.32938,0.695,0.588,0.329,4.15,-8.239,1.159,1
7.336508,0.697,0.574,0.322,7.202,-8.666,1.586,1
7.344057,0.711,0.561,0.321,10.253,-9.399,1.831,1
7.352747,0.706,0.549,0.31,13.244,-10.07,2.258,1
7.359971,0.707,0.533,0.301,14.648,-10.375,3.051,1
7.367418,0.704,0.529,0.296,14.343,-10.864,3.906,1
7.374918,0.703,0.539,0.3,15.38,-11.535,4.882,1
7.383997,0.703,0.545,0.304,19.958,-12.39,5.798,1
7.391783,0.723,0.547,0.312,28.625,-13.427,6.652,1
7.398844,0.744,0.536,0.314,40.71,-14.953,8.056,1
7.406452,0.77,0.527,0.312,49.255,-15.869,9.033,1
7.41402,0.789,0.515,0.311,54.321,-16.113,10.253,1
7.421843,0.801,0.5,0.315,55.664,-16.052,11.169,1
7.431024,0.793,0.502,0.317,53.1,-15.808,12.084,1
7.438685,0.765,0.521,0.313,47.119,-15.38,13.0,1
7.445824,0.743,0.543,0.307,42.236,-15.319,13.366,1
7.453206,0.703,0.558,0.295,39.001,-15.014,13.732,1
7.462136,0.704,0.57,0.286,36.499,-15.624,13.854,1
7.470395,0.678,0.589,0.285,33.996,-16.113,13.671,1
7.476993,0.646,0.616,0.28,32.653,-17.15,13.305,1
7.484425,0.618,0.637,0.293,32.897,-18.676,12.878,1
7.493408,0.59,0.654,0.302,33.02,-20.019,11.718,1
7.501463,0.58,0.678,0.343,31.738,-21.728,10.498,1
7.508258,0.587,0.709,0.401,30.395,-22.583,9.399,1
7.517095,0.611,0.733,0.472,31.433,-23.315,7.934,1
7.525322,0.587,0.748,0.537,38.574,-23.559,6.408,1
7.532756,0.552,0.744,0.583,44.006,-23.864,4.821,1
7.540063,0.522,0.708,0.628,46.63,-23.376,3.173,1
7.549019,0.509,0.674,0.673,46.02,-22.521,2.075,1
7.556617,0.513,0.639,0.717,43.457,-21.24,1.342,1
7.564532,0.512,0.597,0.76,39.733,-19.531,1.159,1
7.57128,0.524,0.545,0.798,35.705,-17.822,1.037,1
7.580004,0.524,0.481,0.834,32.592,-16.296,1.281,1
7.587591,0.527,0.406,0.872,28.198,-14.404,2.441,1
7.595335,0.527,0.345,0.92,22.155,-12.878,4.089,1
7.602353,0.523,0.297,0.982,15.502,-10.62,6.042,1
7.611426,0.506,0.24,1.048,9.826,-8.056,8.178,1
7.618836,0.49,0.182,1.124,6.469,-6.286,10.803,1
7.626,0.468,0.125,1.23,6.103,-3.845,13.488,1
7.633357,0.429,0.053,1.366,8.3,-0.793,16.601,1
7.643073,0.384,-0.006,1.501,9.094,2.746,20.751,1
7.649921,0.36,-0.06,1.667,10.498,7.202,24.597,1
7.659205,0.32,-0.124,1.847,11.779,14.16,29.724,1
7.666147,0.254,-0.165,2.008,14.282,20.141,34.362,1
7.673929,0.194,-0.207,2.183,18.615,26.794,39.123,1
7.682455,0.111,-0.245,2.435,24.475,34.423,44.067,1
7.690252,0.035,-0.276,2.69,28.381,43.762,49.255,1
7.698259,-0.049,-0.301,2.98,34.057,57.25,55.847,1
7.705964,-0.131,-0.325,3.316,44.25,70.678,62.133,1
7.713942,-0.25,-0.345,3.581,63.232,87.829,70.556,1
7.722396,-0.364,-0.384,3.812,77.27,104.614,78.674,1
7.731478,-0.458,-0.445,4.03,82.458,124.145,87.707,1
7.73836,-0.545,-0.436,4.151,76.904,150.268,99.975,1
7.745387,-0.601,-0.393,4.236,62.072,172.668,111.267,1
7.754466,-0.696,-0.248,4.291,46.997,198.059,122.131,1
7.763432,-0.854,0.019,4.291,34.057,222.412,132.263,1
7.770429,-0.987,0.324,4.254,37.78,250.61,141.723,1
7.777164,-1.158,0.6,4.117,53.1,273.62,148.132,1
7.786326,-1.376,0.876,3.927,60.913,295.349,153.625,1
7.79333,-1.667,1.233,3.637,55.725,321.716,157.104,1
7.801307,-1.907,1.559,3.367,44.555,342.895,157.653,1
7.809047,-2.161,1.915,3.085,38.208,363.403,155.09,1
7.816222,-2.405,2.291,2.75,38.085,382.019,149.292,1
7.824506,-2.673,2.649,2.381,42.968,397.46,140.991,1
7.833541,-2.909,3.001,1.926,49.743,410.705,130.554,1
7.840863,-3.052,3.26,1.504,54.504,423.217,115.844,1
7.84784,-3.159,3.497,1.074,49.499,431.457,101.196,1
7.856962,-3.22,3.7,0.684,42.541,436.828,83.923,1
7.863551,-3.238,3.829,0.309,49.194,439.514,65.124,1
7.870813,-3.229,3.868,-0.166,66.406,438.72,46.081,1
7.879756,-3.221,3.855,-0.537,80.566,435.241,28.442,1
7.886515,-3.213,3.802,-0.879,94.299,429.87,11.413,1
7.894395,-3.118,3.687,-1.182,115.112,419.128,-6.896,1
7.903928,-3.0,3.51,-1.412,133.483,408.996,-19.836,1
7.910346,-2.842,3.232,-1.651,140.014,397.705,-32.47,1
7.918363,-2.701,2.991,-1.836,131.958,387.39,-41.259,1
7.927483,-2.546,2.748,-1.997,121.215,376.525,-48.522,1
7.935749,-2.337,2.427,-2.179,110.534,361.938,-54.809,1
7.942757,-2.17,2.241,-2.318,98.022,350.036,-59.936,1
7.950399,-2.011,2.042,-2.463,83.862,335.632,-64.941,1
7.958237,-1.808,1.874,-2.558,73.181,321.411,-68.725,1
7.966898,-1.6,1.733,-2.663,67.138,306.701,-72.814,1
7.975158,-1.445,1.645,-2.771,68.786,288.879,-77.453,1
7.983621,-1.295,1.54,-2.875,74.829,271.301,-80.749,1
7.99054,-1.107,1.377,-2.923,76.843,251.586,-83.312,1
8.00071,-0.956,1.223,-2.967,74.035,235.534,-84.045,1
8.006991,-0.799,1.074,-2.988,68.237,215.393,-84.228,1
8.016497,-0.666,0.956,-2.95,65.185,199.829,-83.374,1
8.025245,-0.48,0.849,-2.923,68.664,183.898,-81.542,1
8.03193,-0.392,0.753,-2.895,73.181,165.1,-79.101,1
8.041283,-0.279,0.664,-2.825,74.768,147.827,-76.171,1
8.049799,-0.165,0.588,-2.77,74.401,133.361,-73.303,1
8.056988,-0.078,0.525,-2.657,74.707,116.821,-70.19,1
8.065939,0.007,0.455,-2.549,75.439,104.309,-67.077,1
8.074155,0.057,0.395,-2.464,73.669,89.355,-63.781,1
8.081749,0.133,0.338,-2.362,70.495,77.697,-60.058,1
8.089546,0.209,0.285,-2.233,62.377,64.819,-55.786,1
8.09792,0.272,0.267,-2.098,55.114,54.077,-51.574,1
8.105943,0.354,0.25,-1.939,48.706,43.457,-46.691,1
8.112828,0.419,0.253,-1.835,44.128,34.118,-42.541,1
8.122321,0.454,0.256,-1.717,41.503,26.0,-39.001,1
8.128313,0.499,0.251,-1.639,38.696,18.859,-35.4,1
8.136078,0.53,0.266,-1.568,32.653,11.962,-31.982,1
8.144747,0.558,0.291,-1.491,25.634,5.615,-28.625,1
8.152029,0.577,0.327,-1.389,19.042,-0.793,-24.963,1
8.161174,0.587,0.365,-1.299,17.028,-6.652,-22.155,1
8.168809,0.586,0.386,-1.209,17.028,-11.962,-19.531,1
8.177349,0.583,0.406,-1.098,17.7,-17.333,-17.15,1
8.18462,0.598,0.417,-1.007,17.211,-21.179,-15.136,1
8.194039,0.606,0.432,-0.907,16.174,-24.475,-13.671,1
8.200658,0.618,0.458,-0.796,14.465,-27.526,-12.023,1
8.20846,0.619,0.477,-0.716,14.099,-29.907,-10.803,1
8.216132,0.611,0.495,-0.653,14.282,-31.677,-10.009,1
8.223703,0.6,0.5,-0.606,13.793,-33.081,-8.972,1
8.233589,0.604,0.511,-0.559,12.878,-34.545,-8.178,1
8.239503,0.616,0.52,-0.521,10.62,-35.949,-6.591,1
8.247673,0.618,0.534,-0.481,6.225,-36.437,-5.554,1
8.256996,0.626,0.549,-0.418,0.854,-36.743,-4.516,1
8.265182,0.631,0.57,-0.375,-4.516,-36.499,-2.807,1
8.27318,0.633,0.59,-0.337,-5.676,-36.376,-1.892,1
8.280581,0.639,0.599,-0.307,-5.493,-36.499,-0.915,1
8.288721,0.638,0.609,-0.278,-5.737,-36.254,0.183,1
8.29497,0.634,0.619,-0.251,-7.629,-35.4,0.671,1
8.303707,0.632,0.637,-0.237,-9.643,-34.484,1.281,1
8.311002,0.634,0.65,-0.217,-10.375,-33.691,1.403,1
8.318798,0.639,0.663,-0.208,-8.666,-33.142,1.464,1
8.328094,0.63,0.666,-0.192,-5.859,-32.775,1.831,1
8.336761,0.633,0.666,-0.189,-2.441,-32.043,1.77,1
8.343926,0.635,0.654,-0.189,-0.732,-31.738,1.708,1
8.352532,0.644,0.647,-0.177,0.488,-30.639,1.831,1
8.35948,0.649,0.631,-0.158,-1.159,-29.724,2.014,1
8.368265,0.656,0.617,-0.132,-4.516,-27.709,2.502,1
8.376491,0.661,0.616,-0.112,-7.873,-26.062,3.417,1
8.383681,0.662,0.611,-0.094,-10.375,-24.536,4.028,1
8.391776,0.669,0.615,-0.083,-11.474,-22.094,4.699,1
8.401009,0.664,0.622,-0.083,-12.756,-20.812,5.554,1
8.407091,0.654,0.641,-0.074,-14.282,-18.615,5.798,1
8.416088,0.655,0.662,-0.066,-15.502,-16.601,6.347,1
8.423544,0.658,0.675,-0.076,-15.93,-14.465,6.103,1
8.431057,0.665,0.679,-0.09,-14.831,-12.878,6.103,1
8.439957,0.668,0.689,-0.119,-13.366,-11.962,6.225,1
8.447205,0.657,0.692,-0.148,-11.291,-10.253,5.737,1
8.454606,0.649,0.699,-0.185,-11.169,-9.887,5.676,1
8.463783,0.653,0.703,-0.209,-12.023,-9.277,5.371,1
8.471532,0.66,0.707,-0.245,-12.939,-9.216,5.187,1
8.480566,0.655,0.711,-0.274,-13.122,-9.46,4.333,1
8.487752,0.664,0.714,-0.299,-12.39,-9.521,3.417,1
8.496262,0.688,0.702,-0.326,-12.084,-10.07,2.868,1
8.504726,0.718,0.686,-0.359,-11.962,-10.803,2.136,1
8.511205,0.742,0.675,-0.382,-12.817,-11.596,1.525,1
8.519278,0.749,0.679,-0.405,-15.991,-12.939,1.342,1
8.527056,0.747,0.686,-0.415,-21.179,-13.854,1.281,1
8.534269,0.752,0.707,-0.426,-26.0,-14.526,1.281,1
8.543264,0.763,0.727,-0.428,-28.869,-15.747,1.281,1
8.550276,0.764,0.755,-0.425,-27.77,-17.028,1.037,1
8.559372,0.772,0.775,-0.431,-22.46,-18.981,0.488,1
8.566599,0.789,0.772,-0.437,-16.723,-20.751,0.183,1
8.575989,0.817,0.771,-0.442,-11.291,-23.376,-0.488,1
8.58407,0.815,0.765,-0.433,-8.422,-25.756,-1.159,1
8.592885,0.803,0.758,-0.413,-7.141,-27.343,-2.197,1
8.599646,0.79,0.748,-0.391,-8.056,-28.991,-2.746,1
8.607402,0.783,0.737,-0.352,-10.07,-29.968,-3.601,1
8.616469,0.776,0.727,-0.32,-12.451,-30.395,-4.028,1
8.623298,0.762,0.717,-0.283,-15.686,-30.639,-4.821,1
8.631131,0.756,0.706,-0.246,-19.348,-30.273,-5.493,1
8.641114,0.748,0.699,-0.213,-22.521,-29.968,-5.981,1
8.649007,0.746,0.683,-0.187,-24.353,-29.663,-6.286,1
8.65631,0.745,0.681,-0.18,-23.62,-29.296,-6.53,1
8.665446,0.73,0.684,-0.172,-20.507,-29.541,-6.652,1
8.673386,0.721,0.687,-0.155,-16.235,-29.602,-6.958,1
8.681026,0.715,0.685,-0.145,-11.657,-29.541,-6.896,1
8.687228,0.717,0.676,-0.129,-8.605,-29.052,-7.202,1
8.695782,0.73,0.659,-0.125,-5.737,-29.052,-7.263,1
8.70458,0.734,0.643,-0.112,-3.479,-28.625,-7.141,1
8.710949,0.732,0.63,-0.104,-1.708,-28.015,-7.141,1
8.719291,0.729,0.615,-0.091,-1.953,-27.221,-7.019,1
8.72816,0.729,0.606,-0.083,-3.967,-26.184,-7.019,1
8.73594,0.734,0.596,-0.069,-6.591,-25.146,-6.774,1
8.742597,0.731,0.591,-0.057,-8.239,-24.23,-6.469,1
8.75049,0.727,0.574,-0.048,-8.3,-23.559,-6.225,1
8.75796,0.728,0.572,-0.043,-7.873,-22.277,-5.859,1
8.76575,0.731,0.562,-0.037,-7.202,-21.728,-5.432,1
8.774638,0.739,0.563,-0.039,-5.737,-20.874,-4.699,1
8.783525,0.747,0.555,-0.036,-4.028,-20.202,-4.15,1
8.791192,0.738,0.545,-0.033,-1.342,-19.348,-3.112,1
8.79875,0.738,0.536,-0.039,0.549,-18.127,-2.197,1
8.806622,0.737,0.538,-0.041,0.976,-17.15,-1.281,1
8.814085,0.736,0.538,-0.043,0.427,-16.052,-0.671,1
8.821727,0.743,0.537,-0.042,0.0,-15.075,0.183,1
8.829458,0.738,0.533,-0.041,-0.854,-13.793,0.915,1
8.837301,0.734,0.534,-0.047,-2.624,-12.329,1.708,1
8.845367,0.727,0.535,-0.049,-5.371,-11.352,2.38,1
8.853049,0.733,0.535,-0.051,-8.666,-9.582,3.112,1
8.860829,0.733,0.551,-0.063,-10.62,-8.422,3.662,1
8.868549,0.745,0.568,-0.088,-11.596,-7.385,4.455,1
8.876331,0.743,0.591,-0.109,-11.596,-7.507,4.516,1
8.884226,0.734,0.598,-0.12,-10.925,-7.019,4.821,1
8.893353,0.729,0.607,-0.134,-10.559,-6.958,5.004,1
8.900839,0.728,0.605,-0.138,-10.864,-6.591,5.31,1
8.90957,0.733,0.598,-0.154,-12.817,-6.103,5.737,1
8.917064,0.705,0.592,-0.156,-17.272,-5.676,5.737,1
8.924348,0.72,0.581,-0.163,-20.751,-5.004,6.103,1
8.932016,0.733,0.577,-0.16,-23.742,-4.211,6.53,1
8.939895,0.726,0.582,-0.168,-27.221,-3.479,7.019,1
8.947806,0.727,0.583,-0.182,-28.747,-3.479,7.629,1
8.956331,0.741,0.6,-0.185,-27.404,-3.112,8.3,1
8.965587,0.735,0.602,-0.203,-20.751,-4.516,9.094,1
8.97201,0.728,0.621,-0.194,-16.784,-3.845,9.582,1
8.980917,0.768,0.645,-0.234,-13.0,-4.455,9.765,1
8.988889,0.735,0.653,-0.237,-10.375,-5.31,10.131,1
8.995692,0.697,0.641,-0.248,-14.892,-5.798,10.314,1
9.004858,0.546,0.534,-0.191,-34.729,-4.272,12.512,1
9.012542,0.742,0.576,-0.209,-48.4,0.854,13.244,1
9.020587,0.7,0.631,-0.246,-54.809,-0.549,12.878,1
9.028065,0.593,0.665,-0.251,-49.621,-0.854,11.962,1
9.036544,0.697,0.675,-0.246,-30.761,-3.967,11.779,1
9.044385,0.678,0.678,-0.257,-12.817,-5.737,11.84,1
9.052041,0.6,0.659,-0.29,-1.708,-9.399,12.695,1
9.058806,0.676,0.662,-0.267,5.92,-10.986,13.244,1
9.066388,0.763,0.669,-0.246,13.183,-12.878,13.305,1
9.075316,0.711,0.688,-0.22,21.118,-13.183,13.0,1
9.082699,0.666,0.702,-0.229,24.475,-13.244,12.817,1
9.09123,0.688,0.701,-0.229,22.705,-12.695,12.817,1
9.098258,0.745,0.708,-0.236,18.493,-12.512,12.878,1
9.106235,0.801,0.729,-0.237,14.099,-11.657,12.329,1
9.113471,0.806,0.74,-0.26,8.3,-10.681,11.23,1
9.120965,0.817,0.764,-0.272,2.563,-10.314,10.62,1
9.128744,0.821,0.772,-0.286,-3.417,-9.948,9.155,1
9.137807,0.834,0.777,-0.295,-11.23,-10.07,8.239,1
9.144581,0.849,0.789,-0.29,-19.409,-9.704,7.385,1
9.152669,0.842,0.812,-0.292,-25.39,-9.887,5.92,1
9.161127,0.826,0.828,-0.292,-26.55,-10.07,4.882,1
9.16877,0.832,0.833,-0.293,-24.291,-10.375,3.784,1
9.176981,0.819,0.838,-0.296,-18.737,-11.535,2.38,1
9.184272,0.812,0.842,-0.306,-13.671,-12.39,1.342,1
9.191627,0.814,0.847,-0.312,-8.972,-13.549,0.244,1
9.200884,0.836,0.846,-0.322,-4.821,-14.587,-0.366,1
9.208208,0.874,0.854,-0.336,-0.976,-15.38,-0.854,1
9.217168,0.863,0.867,-0.35,1.77,-16.357,-1.525,1
9.224683,0.793,0.895,-0.369,0.488,-17.639,-2.563,1
9.232254,0.736,0.907,-0.37,-5.371,-18.188,-4.15,1
9.240319,0.713,0.897,-0.379,-10.742,-19.165,-6.103,1
9.248388,0.708,0.888,-0.364,-12.634,-20.751,-7.385,1
9.255839,0.698,0.883,-0.351,-8.789,-22.277,-7.934,1
9.264808,0.698,0.878,-0.337,0.915,-24.475,-7.751,1
9.271093,0.731,0.88,-0.358,10.62,-26.977,-8.178,1
9.279244,0.668,0.909,-0.355,13.671,-30.334,-9.643,1
9.287955,0.664,0.865,-0.342,10.803,-29.907,-11.535,1
9.29523,0.691,0.862,-0.337,-4.211,-30.761,-13.916,1
9.303183,0.737,0.846,-0.314,-15.441,-28.93,-16.845,1
9.312682,0.785,0.817,-0.328,-22.827,-28.93,-19.287,1
9.320766,0.799,0.789,-0.327,-23.132,-29.296,-20.935,1
9.328333,0.794,0.755,-0.348,-19.775,-30.639,-21.728,1
9.336905,0.772,0.748,-0.351,-15.197,-31.616,-21.85,1
9.344318,0.744,0.737,-0.35,-10.864,-33.996,-21.118,1
9.35317,0.699,0.727,-0.349,-7.568,-34.301,-21.423,1
9.36096,0.695,0.702,-0.356,2.99,-36.193,-22.216,1
9.369996,0.704,0.652,-0.358,17.211,-39.428,-23.071,1
9.376295,0.698,0.608,-0.36,24.658,-41.198,-22.766,1
9.384141,0.812,0.564,-0.342,18.92,-44.616,-22.033,1
9.39299,0.764,0.559,-0.209,0.549,-43.518,-21.24,1
9.400223,0.725,0.543,-0.244,-17.211,-41.625,-20.141,1
9.408295,0.739,0.543,-0.213,-30.822,-42.114,-19.47,1
9.417572,0.719,0.521,-0.183,-39.428,-41.32,-18.981,1
9.425207,0.669,0.528,-0.165,-43.09,-41.625,-17.944,1
9.433911,0.67,0.537,-0.167,-41.503,-41.564,-17.211,1
9.442308,0.811,0.516,-0.088,-28.137,-46.02,-17.761,1
9.450262,0.724,0.498,-0.017,3.234,-44.25,-16.845,1
9.457432,0.725,0.473,-0.054,16.906,-47.546,-16.662,1
9.464944,0.717,0.459,-0.007,20.324,-45.654,-15.686,1
9.473904,0.702,0.449,-0.03,12.634,-45.166,-14.587,1
9.482839,0.69,0.457,0.001,0.122,-42.175,-13.183,1
9.491274,0.705,0.472,-0.003,-10.803,-40.649,-12.268,1
9.4984,0.716,0.493,0.002,-18.249,-38.818,-11.23,1
9.506958,0.729,0.512,0.003,-19.104,-38.146,-10.314,1
9.514245,0.739,0.521,0.008,-16.235,-37.475,-10.07,1
9.522132,0.754,0.521,0.006,-12.817,-37.231,-9.521,1
9.531046,0.765,0.516,0.009,-9.216,-37.292,-9.765,1
9.537676,0.779,0.507,0.014,-5.737,-36.804,-9.704,1
9.546278,0.784,0.486,0.015,-2.807,-36.499,-9.399,1
9.552761,0.803,0.466,0.018,-1.708,-36.315,-8.85,1
9.561105,0.823,0.458,0.031,-0.122,-35.949,-7.995,1
9.568924,0.822,0.459,0.041,2.502,-35.644,-6.958,1
9.577452,0.809,0.46,0.05,5.065,-35.522,-5.92,1
9.583801,0.812,0.458,0.052,6.103,-35.095,-4.943,1
9.591675,0.8,0.454,0.061,4.638,-34.667,-4.089,1
9.600335,0.791,0.451,0.072,3.417,-33.752,-3.295,1
9.608556,0.773,0.45,0.077,1.831,-32.958,-2.258,1
9.615398,0.773,0.444,0.084,0.549,-31.982,-1.831,1
9.624671,0.766,0.432,0.083,-0.427,-31.005,-0.671,1
9.63309,0.775,0.43,0.083,-1.098,-29.968,0.183,1
9.640642,0.786,0.429,0.09,-0.671,-29.418,1.098,1
9.648529,0.809,0.428,0.083,0.061,-28.991,2.258,1
9.656662,0.812,0.434,0.086,0.549,-28.32,3.234,1
9.664037,0.811,0.428,0.088,1.037,-28.015,4.394,1
9.671208,0.804,0.437,0.092,0.793,-27.648,5.493,1
9.680006,0.795,0.44,0.1,-0.183,-26.794,6.408,1
9.687239,0.796,0.447,0.11,-1.159,-26.184,7.202,1
9.696474,0.789,0.454,0.116,-1.831,-25.451,8.483,1
9.703808,0.777,0.461,0.118,-1.586,-24.78,9.399,1
9.711081,0.771,0.469,0.119,-1.708,-23.681,10.498,1
9.719844,0.771,0.475,0.121,-1.403,-23.315,11.23,1
9.729124,0.78,0.484,0.115,-0.366,-22.46,12.512,1
9.737013,0.781,0.491,0.114,0.671,-21.911,13.061,1
9.74419,0.779,0.5,0.108,1.342,-21.484,14.038,1
9.751653,0.777,0.508,0.107,2.014,-21.057,14.892,1
9.760542,0.779,0.516,0.108,2.502,-20.69,15.563,1
9.76688,0.775,0.528,0.107,3.112,-20.141,16.052,1
9.774672,0.775,0.537,0.106,3.723,-19.714,16.479,1
9.783544,0.778,0.538,0.104,4.211,-18.981,16.967,1
9.79031,0.78,0.547,0.099,4.028,-18.554,16.967,1
9.799454,0.785,0.547,0.1,3.967,-18.493,17.517,1
9.807025,0.792,0.558,0.106,4.333,-18.127,17.761,1
9.814555,0.792,0.572,0.114,5.187,-17.639,18.066,1
9.822391,0.788,0.577,0.115,6.835,-17.333,18.493,1
9.828794,0.785,0.597,0.119,8.85,-16.967,18.676,1
9.838156,0.77,0.609,0.123,10.375,-16.479,18.798,1
9.845796,0.763,0.616,0.12,10.375,-15.502,18.493,1
9.853126,0.765,0.621,0.124,9.521,-14.648,18.676,1
9.861507,0.763,0.625,0.114,7.934,-14.038,18.737,1
9.868871,0.76,0.634,0.109,6.347,-13.305,18.92,1
9.876121,0.764,0.637,0.102,3.906,-12.451,18.859,1
9.884888,0.782,0.64,0.1,1.708,-11.657,18.859,1
9.892394,0.791,0.649,0.093,0.061,-11.169,18.31,1
9.900344,0.8,0.661,0.089,0.183,-11.108,18.615,1
9.908201,0.798,0.665,0.084,1.281,-10.986,18.31,1
9.916581,0.801,0.666,0.085,2.502,-10.864,18.005,1
9.923914,0.799,0.67,0.085,3.54,-11.169,17.883,1
9.932595,0.802,0.679,0.083,4.699,-11.23,17.7,1
9.940685,0.789,0.686,0.088,5.371,-11.169,17.456,1
9.948991,0.782,0.683,0.089,5.92,-11.169,17.089,1
9.957074,0.778,0.686,0.093,5.432,-10.864,17.089,1
9.964637,0.777,0.687,0.092,3.845,-10.498,16.54,1
9.971875,0.779,0.692,0.096,2.441,-9.948,16.418,1
9.979617,0.775,0.696,0.095,1.403,-9.826,16.296,1
9.987214,0.774,0.698,0.088,0.549,-9.643,15.991,1
9.995283,0.772,0.703,0.093,0.305,-9.399,15.808,1
