timestamp_s,ax,ay,az,gx,gy,gz,label
0.00567,0.742,0.367,-0.715,-28.991,-15.014,-1.77,1
0.013997,0.755,0.372,-0.708,-27.16,-15.991,-2.136,1
0.022416,0.742,0.369,-0.7,-21.423,-17.272,-2.319,1
0.030496,0.735,0.36,-0.697,-17.517,-18.249,-2.746,1
0.038625,0.719,0.357,-0.691,-14.465,-19.104,-2.685,1
0.047021,0.712,0.355,-0.692,-13.0,-19.958,-2.746,1
0.055455,0.695,0.347,-0.686,-11.535,-20.324,-3.051,1
0.062358,0.7,0.347,-0.693,-10.803,-21.118,-3.417,1
0.070521,0.698,0.352,-0.689,-9.948,-21.545,-3.601,1
0.078511,0.711,0.354,-0.687,-8.85,-22.338,-3.601,1
0.087178,0.713,0.356,-0.679,-6.896,-23.071,-4.15,1
0.094478,0.721,0.354,-0.67,-4.821,-24.169,-4.333,1
0.101898,0.733,0.345,-0.655,-2.624,-25.085,-4.394,1
0.109915,0.749,0.334,-0.642,0.061,-25.695,-4.455,1
0.118546,0.75,0.319,-0.628,2.685,-26.428,-4.577,1
0.127293,0.751,0.312,-0.618,5.676,-26.916,-4.638,1
0.134608,0.759,0.309,-0.613,7.995,-27.404,-4.455,1
0.144561,0.753,0.312,-0.604,11.23,-27.709,-4.333,1
0.151918,0.75,0.315,-0.594,14.587,-28.015,-3.845,1
0.160551,0.735,0.313,-0.592,14.221,-27.77,-3.845,1
0.168818,0.726,0.31,-0.586,10.009,-27.465,-3.906,1
0.176319,0.715,0.317,-0.583,3.417,-26.306,-3.967,1
0.183853,0.7,0.319,-0.574,-3.967,-25.695,-4.516,1
0.192019,0.713,0.307,-0.565,-11.779,-24.658,-4.699,1
0.200067,0.708,0.31,-0.562,-17.578,-23.62,-5.065,1
0.209472,0.712,0.305,-0.554,-20.202,-23.376,-4.882,1
0.216632,0.738,0.279,-0.542,-25.207,-22.399,-4.577,1
0.224421,0.759,0.254,-0.549,-35.278,-21.301,-4.272,1
0.232882,0.765,0.261,-0.558,-42.175,-20.446,-3.295,1
0.241967,0.775,0.27,-0.563,-47.18,-20.202,-2.563,1
0.248817,0.789,0.27,-0.571,-49.621,-20.019,-2.319,1
0.257492,0.776,0.27,-0.572,-48.217,-20.202,-1.953,1
0.266409,0.772,0.28,-0.572,-41.564,-20.507,-1.22,1
0.276309,0.766,0.284,-0.57,-28.137,-21.484,-0.854,1
0.283826,0.749,0.282,-0.578,-11.901,-21.85,-0.854,1
0.291397,0.77,0.255,-0.569,-1.22,-22.521,-0.549,1
0.299901,0.754,0.246,-0.589,4.943,-22.399,-0.305,1
0.30778,0.746,0.247,-0.589,8.178,-22.033,-0.183,1
0.315519,0.738,0.236,-0.598,6.225,-21.667,0.427,1
0.32414,0.73,0.229,-0.595,1.831,-20.751,0.732,1
0.331377,0.732,0.211,-0.603,-5.249,-20.141,1.159,1
0.339898,0.748,0.206,-0.606,-14.404,-19.042,1.77,1
0.348713,0.753,0.2,-0.613,-19.714,-18.798,2.258,1
0.357231,0.751,0.191,-0.617,-22.277,-18.005,2.929,1
0.364546,0.764,0.178,-0.621,-20.751,-18.432,3.601,1
0.372003,0.796,0.163,-0.623,-14.892,-18.859,4.394,1
0.380583,0.817,0.153,-0.631,-4.943,-20.019,5.737,1
0.388505,0.828,0.138,-0.654,2.319,-21.057,7.019,1
0.396033,0.834,0.13,-0.66,4.028,-21.606,8.056,1
0.404352,0.85,0.104,-0.697,5.676,-22.644,9.155,1
0.412021,0.857,0.128,-0.676,8.3,-21.911,10.253,1
0.420727,0.864,0.121,-0.689,9.704,-22.949,11.474,1
0.428853,0.866,0.121,-0.687,11.291,-23.376,12.939,1
0.435911,0.865,0.103,-0.717,6.53,-25.268,14.404,1
0.444978,0.867,0.1,-0.733,2.624,-26.245,15.563,1
0.454044,0.848,0.11,-0.772,-1.708,-27.16,17.15,1
0.461107,0.844,0.121,-0.802,-2.624,-28.93,18.615,1
0.470228,0.854,0.146,-0.803,2.014,-31.982,19.531,1
0.477232,0.848,0.121,-0.845,9.033,-35.705,20.263,1
0.486689,0.838,0.096,-0.834,14.404,-39.733,21.911,1
0.495792,0.837,0.023,-0.934,27.77,-45.532,24.78,1
0.503328,0.833,0.03,-0.881,42.907,-49.804,28.32,1
0.510541,0.824,0.054,-0.892,61.218,-57.373,30.944,1
0.519215,0.824,0.051,-0.857,79.772,-61.889,32.958,1
0.526526,0.81,0.043,-0.851,93.994,-68.359,34.973,1
0.535596,0.786,0.028,-0.827,103.515,-72.204,37.231,1
0.544715,0.771,0.017,-0.796,105.346,-77.758,39.245,1
0.552318,0.759,0.011,-0.771,105.041,-80.81,41.442,1
0.55989,0.757,0.011,-0.737,100.524,-84.289,43.64,1
0.569372,0.754,0.008,-0.719,93.078,-86.303,45.288,1
0.576856,0.719,0.018,-0.687,78.552,-88.5,47.607,1
0.585562,0.687,0.042,-0.668,65.795,-89.904,49.316,1
0.592535,0.716,0.081,-0.647,55.48,-91.918,50.842,1
0.600955,0.751,0.12,-0.62,45.776,-92.956,52.734,1
0.60792,0.745,0.157,-0.595,29.174,-94.787,54.443,1
0.616268,0.75,0.201,-0.56,11.23,-95.214,56.152,1
0.624147,0.791,0.259,-0.503,-9.826,-95.703,57.373,1
0.631354,0.814,0.358,-0.449,-32.47,-95.642,58.227,1
0.63989,0.803,0.536,-0.389,-51.452,-96.496,57.983,1
0.648225,0.823,0.72,-0.335,-59.082,-97.778,56.823,1
0.656958,0.875,0.954,-0.267,-48.828,-101.013,53.405,1
0.66429,0.849,1.165,-0.217,-19.775,-104.309,48.278,1
0.672495,0.845,1.364,-0.16,11.901,-109.374,41.259,1
0.68161,0.786,1.548,-0.131,48.217,-110.778,31.249,1
0.688536,0.786,1.671,-0.082,61.889,-112.67,21.118,1
0.697056,0.859,1.786,0.005,62.255,-111.389,10.314,1
0.702915,0.887,1.943,0.135,58.715,-111.328,-1.281,1
0.712378,0.825,2.081,0.27,57.678,-107.788,-13.122,1
0.719265,0.709,2.154,0.389,54.504,-105.834,-26.733,1
0.729372,0.641,2.167,0.558,49.682,-98.999,-42.846,1
0.73721,0.715,2.121,0.702,37.597,-91.491,-60.424,1
0.743948,0.713,2.027,0.878,33.508,-83.496,-72.998,1
0.752728,0.756,1.905,0.985,37.841,-75.317,-86.608,1
0.759956,0.75,1.728,1.156,44.921,-64.208,-101.562,1
0.768643,0.775,1.533,1.263,37.902,-52.307,-112.915,1
0.775811,0.728,1.259,1.356,18.554,-38.574,-122.375,1
0.785192,0.818,0.916,1.459,-13.366,-23.498,-130.432,1
0.792764,0.82,0.701,1.565,-33.447,-5.981,-136.169,1
0.801702,0.782,0.544,1.616,-36.743,6.408,-139.221,1
0.808746,0.751,0.379,1.687,-29.968,19.104,-141.296,1
0.816834,0.679,0.192,1.701,-21.85,33.874,-142.517,1
0.825355,0.636,0.008,1.728,-22.338,48.767,-142.15,1
0.832909,0.594,-0.126,1.704,-26.367,64.025,-139.953,1
0.840955,0.524,-0.275,1.711,-33.447,78.796,-137.084,1
0.848951,0.432,-0.4,1.669,-38.574,96.74,-132.69,1
0.858128,0.384,-0.519,1.649,-41.931,111.022,-127.136,1
0.865655,0.306,-0.565,1.588,-44.921,129.455,-119.934,1
0.875628,0.179,-0.612,1.514,-49.621,145.751,-112.487,1
0.882164,0.067,-0.652,1.425,-54.443,160.705,-105.834,1
0.891252,-0.021,-0.686,1.339,-60.485,174.682,-99.731,1
0.900059,-0.092,-0.701,1.253,-68.603,191.833,-91.979,1
0.907313,-0.241,-0.719,1.16,-77.087,208.496,-84.35,1
0.916506,-0.436,-0.732,1.046,-84.899,225.708,-76.538,1
0.925385,-0.602,-0.733,0.956,-88.989,239.257,-70.373,1
0.934287,-0.786,-0.727,0.838,-82.336,254.638,-62.988,1
0.942536,-0.979,-0.703,0.698,-61.828,267.883,-55.175,1
0.951331,-1.141,-0.707,0.558,-40.161,279.113,-47.912,1
0.960207,-1.359,-0.717,0.353,-19.226,291.625,-37.78,1
0.967558,-1.516,-0.712,0.168,8.056,304.748,-25.268,1
0.977473,-1.641,-0.718,0.026,28.869,314.392,-14.343,1
0.985804,-1.784,-0.728,-0.181,51.635,324.523,-0.793,1
0.993189,-1.962,-0.771,-0.359,65.917,334.106,14.953,1
1.001146,-2.128,-0.808,-0.5,68.115,341.125,30.151,1
1.008563,-2.306,-0.845,-0.589,64.208,347.656,49.438,1
1.016321,-2.503,-0.859,-0.718,61.95,352.722,67.26,1
1.026244,-2.746,-0.895,-0.82,58.532,357.849,87.524,1
1.032419,-3.078,-0.914,-0.952,51.452,362.182,108.886,1
1.041241,-3.291,-0.937,-1.029,42.419,366.455,131.347,1
1.048196,-3.369,-1.003,-1.166,25.024,371.52,157.653,1
1.056799,-3.394,-1.119,-1.328,-0.61,375.732,180.969,1
1.06518,-3.475,-1.25,-1.487,-35.095,379.821,204.65,1
1.071759,-3.691,-1.355,-1.67,-74.523,383.483,232.055,1
1.080194,-3.924,-1.401,-1.812,-87.768,383.483,255.371,1
1.088547,-4.169,-1.495,-1.991,-82.397,380.371,279.785,1
1.096304,-4.477,-1.624,-2.108,-44.677,371.887,307.495,1
1.103281,-4.654,-1.819,-2.411,28.32,356.201,340.759,1
1.111876,-4.871,-2.049,-2.76,108.459,332.641,380.371,1
1.118098,-5.303,-2.243,-3.069,172.851,302.185,424.621,1
1.12571,-5.682,-2.385,-3.257,209.594,267.761,470.947,1
1.134166,-6.225,-2.315,-3.381,216.186,230.529,517.272,1
1.142288,-6.567,-2.253,-3.601,260.986,180.725,567.993,1
1.149424,-6.913,-2.239,-3.75,301.086,133.728,604.064,1
1.156397,-7.619,-2.202,-3.964,353.637,71.594,645.629,1
1.164652,-8.32,-2.15,-4.036,396.728,-2.746,683.898,1
1.171675,-9.138,-1.984,-4.041,461.608,-96.557,722.351,1
1.179747,-10.084,-1.834,-3.891,496.887,-185.974,746.52,1
1.187482,-11.033,-1.538,-3.568,509.765,-271.118,763.793,1
1.19575,-11.638,-1.166,-3.262,541.32,-360.656,769.775,1
1.204092,-12.601,-0.764,-2.794,578.491,-465.698,763.732,1
1.211942,-13.36,-0.382,-2.433,583.923,-551.574,745.117,1
1.21894,-14.099,-0.054,-1.973,578.979,-629.943,719.055,1
1.22773,-14.628,0.22,-1.667,557.251,-702.514,687.255,1
1.234649,-15.328,0.581,-1.218,531.677,-768.615,653.198,1
1.242944,-15.918,0.885,-0.954,521.301,-832.092,616.882,1
1.250779,-15.997,1.206,-0.544,526.794,-893.92,576.477,1
1.258492,-15.999,1.597,-0.102,535.522,-951.293,532.531,1
1.265245,-15.999,1.852,0.306,555.542,-1012.329,476.928,1
1.272859,-15.999,2.224,0.715,607.238,-1057.128,421.02,1
1.281222,-15.999,2.475,1.121,688.903,-1099.121,353.82,1
1.289045,-15.999,2.825,1.502,803.466,-1133.544,270.446,1
1.297271,-15.999,3.164,1.884,973.754,-1168.701,160.766,1
1.304277,-15.999,3.293,2.188,1170.593,-1177.429,17.211,1
1.312263,-15.999,2.919,2.148,1225.341,-1153.32,-145.202,1
1.319997,-15.999,2.178,2.384,1081.298,-1075.561,-315.612,1
1.328215,-15.999,1.758,2.497,884.338,-988.525,-426.391,1
1.335524,-15.999,1.531,2.661,730.285,-895.751,-503.845,1
1.344089,-14.776,1.215,2.612,636.047,-812.561,-560.852,1
1.351879,-13.187,0.771,2.651,543.518,-710.449,-606.75,1
1.360472,-11.855,0.44,2.513,466.735,-632.507,-633.3,1
1.370914,-10.851,0.114,2.486,380.615,-553.955,-650.268,1
1.377771,-10.072,-0.17,2.625,300.17,-484.863,-652.832,1
1.386418,-9.498,-0.425,2.833,256.835,-428.161,-645.629,1
1.395047,-8.867,-0.657,3.034,261.718,-383.911,-634.643,1
1.402029,-8.195,-0.835,3.069,315.246,-335.082,-620.605,1
1.410646,-7.561,-1.073,3.004,369.75,-290.527,-609.313,1
1.417992,-7.009,-1.421,2.81,386.047,-243.408,-598.632,1
1.424521,-6.463,-1.857,2.717,343.444,-193.298,-585.083,1
1.431933,-5.881,-2.229,2.667,265.563,-142.517,-565.673,1
1.441385,-5.38,-2.429,2.613,208.74,-107.91,-545.837,1
1.448908,-5.114,-2.516,2.582,177.917,-68.725,-515.38,1
1.456923,-4.9,-2.556,2.508,192.687,-42.724,-489.318,1
1.463691,-4.457,-2.688,2.409,223.266,-19.653,-462.707,1
1.473087,-4.001,-2.895,2.232,238.952,8.605,-430.114,1
1.481401,-3.49,-3.012,2.104,250.305,31.005,-400.756,1
1.488435,-2.924,-3.285,1.854,234.008,56.03,-365.783,1
1.497166,-2.584,-3.28,1.841,201.599,74.829,-333.984,1
1.50473,-2.395,-3.204,1.774,199.645,91.857,-296.752,1
1.513653,-2.354,-3.145,1.763,203.735,102.233,-269.348,1
1.521268,-2.293,-3.081,1.682,191.955,117.675,-231.75,1
1.529468,-2.166,-2.989,1.632,174.011,129.089,-200.378,1
1.53688,-2.05,-2.844,1.557,150.695,141.601,-165.283,1
1.545067,-1.964,-2.677,1.485,137.878,149.719,-137.817,1
1.552583,-1.77,-2.517,1.408,133.789,156.982,-111.694,1
1.559681,-1.681,-2.36,1.312,127.99,163.146,-87.219,1
1.567798,-1.552,-2.175,1.212,123.84,168.457,-65.063,1
1.574894,-1.441,-2.021,1.132,121.398,173.645,-41.198,1
1.584078,-1.368,-1.886,1.042,114.99,177.673,-22.644,1
1.590614,-1.278,-1.748,0.951,106.384,181.701,-5.981,1
1.599801,-1.194,-1.626,0.867,96.557,184.753,9.155,1
1.606291,-1.143,-1.5,0.783,85.388,187.194,22.521,1
1.615075,-1.078,-1.372,0.696,75.134,188.781,34.301,1
1.62316,-1.037,-1.229,0.609,65.307,189.27,45.654,1
1.630668,-0.955,-1.098,0.516,55.725,188.903,55.297,1
1.638845,-0.905,-0.993,0.458,46.874,188.354,62.133,1
1.64752,-0.817,-0.895,0.395,38.94,187.011,67.565,1
1.654436,-0.741,-0.797,0.345,34.362,184.814,72.265,1
1.663104,-0.655,-0.69,0.313,38.269,180.358,76.904,1
1.670306,-0.581,-0.598,0.293,47.485,175.476,80.383,1
1.67725,-0.524,-0.538,0.28,55.48,171.386,82.519,1
1.686997,-0.458,-0.516,0.266,60.974,165.466,85.693,1
1.69363,-0.406,-0.494,0.251,61.157,160.827,88.073,1
1.703192,-0.327,-0.49,0.23,57.617,155.151,90.698,1
1.709735,-0.224,-0.478,0.223,55.603,150.817,92.834,1
1.717169,-0.116,-0.459,0.212,56.64,145.996,94.909,1
1.725408,-0.031,-0.442,0.212,59.448,141.174,96.862,1
1.73261,0.037,-0.429,0.209,62.499,136.474,98.388,1
1.741031,0.114,-0.403,0.214,66.955,131.347,99.853,1
1.74854,0.186,-0.373,0.236,74.401,126.098,101.989,1
1.756835,0.189,-0.3,0.261,85.998,121.215,103.759,1
1.763869,0.115,-0.208,0.286,105.895,114.379,105.651,1
1.771531,0.172,-0.214,0.321,117.919,108.825,106.262,1
1.779147,0.2,-0.244,0.322,116.394,105.712,107.238,1
1.785646,0.27,-0.278,0.337,99.731,104.003,107.727,1
1.793757,0.374,-0.29,0.346,82.031,104.003,108.276,1
1.800214,0.42,-0.252,0.356,65.002,103.576,108.459,1
1.807235,0.421,-0.187,0.374,58.471,103.576,108.337,1
1.815521,0.397,-0.116,0.378,58.959,102.111,107.36,1
1.822559,0.399,-0.047,0.384,69.213,100.341,106.384,1
1.829202,0.419,0.0,0.371,81.604,96.557,105.651,1
1.837336,0.441,0.028,0.355,90.942,94.055,104.98,1
1.843891,0.48,0.037,0.319,89.294,91.796,104.064,1
1.852726,0.475,0.053,0.306,79.04,90.332,102.905,1
1.860914,0.514,0.081,0.261,61.645,89.904,101.44,1
1.867426,0.538,0.133,0.263,46.325,88.562,99.304,1
1.876037,0.556,0.191,0.229,44.372,86.425,97.106,1
1.883101,0.571,0.235,0.198,49.987,83.618,94.421,1
1.89209,0.586,0.254,0.147,59.448,80.871,91.979,1
1.899187,0.611,0.261,0.093,71.899,77.087,89.416,1
1.907052,0.661,0.265,0.052,82.214,74.035,87.219,1
1.913859,0.681,0.268,0.022,92.041,71.228,85.021,1
1.921167,0.695,0.256,-0.007,101.501,67.81,83.129,1
1.928972,0.716,0.249,-0.026,109.436,65.429,80.688,1
1.936685,0.77,0.228,-0.046,113.464,63.049,78.735,1
1.944929,0.822,0.223,-0.037,116.516,60.18,76.721,1
1.953058,0.91,0.199,-0.064,115.844,58.959,75.195,1
1.961523,0.95,0.189,-0.058,109.436,57.617,72.998,1
1.968928,1.039,0.195,-0.064,105.957,56.03,71.594,1
1.976901,1.139,0.187,-0.068,103.393,53.894,69.58,1
1.984438,1.211,0.192,-0.064,105.59,52.246,67.565,1
1.991692,1.258,0.21,-0.05,112.487,49.011,66.162,1
1.998522,1.311,0.211,-0.061,121.643,47.546,63.659,1
2.007105,1.276,0.201,-0.063,125.122,45.227,61.279,1
2.014598,1.273,0.201,-0.053,127.685,44.189,59.082,1
2.023661,1.275,0.193,-0.058,127.685,42.602,56.64,1
2.031201,1.285,0.19,-0.05,125.732,41.87,53.955,1
2.038632,1.305,0.209,-0.03,124.45,40.588,52.062,1
2.045908,1.266,0.237,-0.008,126.525,40.039,49.743,1
2.054658,1.229,0.252,0.002,128.723,39.001,47.302,1
2.06275,1.192,0.221,0.001,123.168,39.062,45.471,1
2.07094,1.191,0.248,0.015,114.379,39.489,42.358,1
2.078917,1.147,0.277,0.031,113.037,39.123,39.489,1
2.087406,1.155,0.262,0.041,119.201,38.818,36.56,1
2.094624,1.176,0.231,0.03,121.704,39.062,34.912,1
2.101962,1.163,0.214,0.017,119.934,40.039,33.386,1
2.110734,1.145,0.217,0.007,118.347,40.71,32.592,1
2.116765,1.129,0.22,0.003,118.957,41.198,31.738,1
2.125108,1.134,0.229,-0.001,121.643,42.053,31.127,1
2.134151,1.123,0.241,-0.009,124.755,43.212,30.273,1
2.141114,1.086,0.262,-0.012,126.525,44.067,29.602,1
2.148903,1.055,0.277,-0.011,126.892,44.921,28.93,1
2.157065,1.02,0.287,-0.011,125.549,46.081,27.893,1
2.16406,0.99,0.298,-0.013,123.413,47.058,27.038,1
2.171769,0.98,0.304,-0.018,119.873,47.973,25.512,1
2.180172,0.984,0.301,-0.021,114.99,48.889,24.658,1
2.186824,0.984,0.299,-0.022,109.802,49.682,23.62,1
2.194301,0.97,0.297,-0.031,106.262,49.987,22.949,1
2.202572,0.963,0.298,-0.031,103.82,50.415,22.277,1
2.21193,0.97,0.304,-0.032,103.515,50.72,21.911,1
2.218573,0.971,0.307,-0.049,105.407,50.72,21.362,1
2.227291,0.962,0.312,-0.054,107.36,50.964,20.935,1
2.234139,0.951,0.324,-0.072,108.947,51.147,20.202,1
2.241979,0.928,0.319,-0.078,107.604,51.574,19.836,1
2.249111,0.937,0.276,-0.088,97.839,51.818,20.874,1
2.256465,0.955,0.334,-0.09,95.275,52.429,19.714,1
2.265535,0.892,0.374,-0.098,100.463,51.391,17.578,1
2.272231,0.868,0.367,-0.084,108.032,51.147,16.296,1
2.282341,0.897,0.395,-0.092,115.783,50.231,15.502,1
2.290712,0.928,0.386,-0.086,124.023,48.767,14.282,1
2.298083,0.937,0.378,-0.097,127.563,47.851,14.038,1
2.305925,0.907,0.396,-0.081,131.286,47.18,13.549,1
2.312986,0.913,0.383,-0.097,136.23,45.471,13.122,1
2.320014,0.905,0.348,-0.082,136.779,46.081,13.305,1
2.327949,0.89,0.381,-0.084,130.859,45.471,13.244,1
2.335589,0.872,0.401,-0.087,137.695,45.288,12.023,1
2.343577,0.823,0.392,-0.092,144.836,44.616,11.657,1
2.352063,0.834,0.393,-0.122,148.498,44.799,11.108,1
2.36076,0.83,0.389,-0.149,144.714,44.25,10.314,1
2.368418,0.819,0.383,-0.187,133.728,44.799,9.338,1
2.375729,0.833,0.373,-0.223,120.056,45.288,8.605,1
2.38274,0.849,0.359,-0.256,104.675,45.715,7.934,1
2.391543,0.856,0.362,-0.287,90.881,45.593,7.202,1
2.398883,0.856,0.361,-0.314,82.031,45.471,6.713,1
2.407908,0.871,0.352,-0.336,78.186,44.25,5.859,1
2.414428,0.879,0.345,-0.345,81.909,43.029,5.065,1
2.423795,0.929,0.322,-0.348,93.505,41.87,4.638,1
2.430657,0.968,0.301,-0.377,102.478,40.039,4.333,1
2.439019,1.008,0.28,-0.381,109.252,40.344,4.577,1
2.447737,1.012,0.285,-0.39,112.426,39.611,4.638,1
2.454823,1.021,0.285,-0.4,113.83,40.405,5.004,1
2.461362,1.03,0.304,-0.401,114.135,39.978,5.615,1
2.470604,1.052,0.329,-0.407,117.126,39.978,5.798,1
2.477669,1.076,0.335,-0.438,119.018,39.855,5.92,1
2.485783,1.083,0.344,-0.451,116.21,40.588,5.92,1
2.493782,1.079,0.354,-0.47,110.107,40.771,5.554,1
2.502889,1.08,0.358,-0.466,103.881,41.198,5.065,1
2.5122,1.039,0.375,-0.469,98.022,41.442,4.516,1
2.51955,1.022,0.375,-0.473,94.787,41.748,4.028,1
2.527243,1.025,0.377,-0.489,88.989,42.48,3.54,1
2.536282,1.031,0.386,-0.508,82.153,42.968,3.112,1
2.543614,1.023,0.402,-0.525,74.829,43.579,2.319,1
2.551997,1.056,0.435,-0.535,70.373,43.395,1.281,1
2.558933,0.989,0.474,-0.549,71.411,42.663,-0.183,1
2.568208,0.976,0.505,-0.538,74.401,42.297,-1.342,1
2.576611,0.95,0.534,-0.541,75.256,41.442,-2.99,1
2.584621,0.919,0.569,-0.532,75.561,40.832,-5.004,1
2.591616,0.896,0.609,-0.516,78.063,39.001,-7.08,1
2.598908,0.868,0.614,-0.484,83.862,37.292,-9.094,1
2.607978,0.861,0.601,-0.465,89.599,35.278,-10.986,1
2.616798,0.843,0.558,-0.446,95.947,32.714,-12.939,1
2.6241,0.843,0.524,-0.431,100.097,30.7,-14.282,1
2.63111,0.838,0.494,-0.417,101.257,28.991,-15.38,1
2.638807,0.844,0.48,-0.407,97.778,28.076,-16.479,1
2.646765,0.825,0.462,-0.41,88.317,27.648,-17.517,1
2.654301,0.818,0.459,-0.41,74.584,27.709,-18.798,1
2.661999,0.811,0.457,-0.401,57.678,28.198,-20.568,1
2.670276,0.803,0.442,-0.391,47.973,28.808,-21.789,1
2.678353,0.807,0.438,-0.37,40.771,28.381,-23.681,1
2.685822,0.813,0.416,-0.352,42.48,28.076,-25.085,1
2.693448,0.816,0.394,-0.342,48.95,27.221,-25.512,1
2.701665,0.818,0.37,-0.35,53.833,27.954,-26.367,1
2.710108,0.784,0.347,-0.351,50.781,28.503,-27.038,1
2.717766,0.76,0.317,-0.356,42.297,30.273,-27.648,1
2.726849,0.769,0.296,-0.353,29.602,31.555,-28.381,1
2.735969,0.793,0.281,-0.352,20.507,32.592,-28.808,1
2.743269,0.804,0.26,-0.351,15.808,33.752,-29.846,1
2.750993,0.814,0.236,-0.35,14.282,33.935,-29.724,1
2.760751,0.812,0.21,-0.353,15.258,34.301,-29.663,1
2.768481,0.822,0.197,-0.357,20.629,34.545,-29.296,1
2.775917,0.851,0.187,-0.383,28.137,34.851,-28.564,1
2.784879,0.867,0.181,-0.412,36.987,35.156,-27.832,1
2.792536,0.878,0.164,-0.453,40.527,35.339,-27.16,1
2.799632,0.886,0.153,-0.48,39.916,36.132,-26.306,1
2.808524,0.894,0.148,-0.517,34.973,36.743,-25.329,1
2.81555,0.9,0.151,-0.527,29.418,36.987,-24.291,1
2.823065,0.906,0.153,-0.537,23.803,37.17,-23.986,1
2.831306,0.907,0.153,-0.539,20.446,36.926,-23.315,1
2.838351,0.916,0.158,-0.542,20.08,35.766,-22.827,1
2.846662,0.928,0.158,-0.54,22.155,34.362,-21.972,1
2.853273,0.932,0.149,-0.538,24.719,32.897,-21.118,1
2.860251,0.94,0.145,-0.543,26.611,31.555,-20.202,1
2.867493,0.941,0.135,-0.546,26.306,30.7,-19.592,1
2.875768,0.941,0.138,-0.547,23.376,30.029,-18.615,1
2.885519,0.932,0.143,-0.554,18.737,29.479,-17.578,1
2.894715,0.917,0.157,-0.555,13.549,29.113,-16.662,1
2.901897,0.898,0.171,-0.555,9.887,28.991,-15.93,1
2.910243,0.884,0.184,-0.556,8.789,28.503,-15.502,1
2.919053,0.875,0.194,-0.561,9.521,27.709,-15.197,1
2.928283,0.861,0.203,-0.56,11.779,26.306,-15.075,1
2.935315,0.849,0.201,-0.554,15.869,24.475,-15.319,1
2.944206,0.847,0.202,-0.544,19.714,23.193,-15.441,1
2.951427,0.837,0.199,-0.541,22.399,21.545,-15.319,1
2.960954,0.832,0.193,-0.537,22.888,20.324,-15.197,1
2.96802,0.838,0.19,-0.535,21.728,19.775,-15.075,1
2.976631,0.842,0.195,-0.532,20.507,19.042,-14.831,1
2.985785,0.837,0.197,-0.525,18.676,18.249,-14.77,1
2.995723,0.832,0.199,-0.525,16.418,18.005,-14.77,1
3.003657,0.833,0.208,-0.528,15.624,17.028,-15.136,1
3.010314,0.839,0.208,-0.528,16.479,15.869,-15.38,1
3.019293,0.839,0.211,-0.528,18.188,14.892,-15.747,1
3.027173,0.847,0.212,-0.537,20.019,13.427,-15.808,1
3.036208,0.863,0.209,-0.535,22.46,11.84,-16.296,1
3.043674,0.874,0.201,-0.536,24.963,10.314,-16.54,1
3.052644,0.885,0.199,-0.53,28.076,8.911,-16.662,1
3.060243,0.892,0.188,-0.525,31.494,7.263,-16.54,1
3.068484,0.89,0.18,-0.517,33.447,6.286,-16.418,1
3.077151,0.895,0.163,-0.505,34.423,5.249,-15.93,1
3.084792,0.904,0.152,-0.491,34.973,4.638,-15.502,1
3.092349,0.906,0.15,-0.48,34.301,4.272,-14.831,1
3.101101,0.912,0.148,-0.479,31.921,3.906,-14.526,1
3.1075,0.915,0.153,-0.479,29.174,3.845,-13.732,1
3.117177,0.917,0.159,-0.479,26.0,3.784,-13.977,1
3.12561,0.919,0.165,-0.477,22.705,3.234,-13.916,1
3.134234,0.914,0.167,-0.47,21.179,2.746,-13.916,1
3.14136,0.91,0.161,-0.461,21.24,1.892,-14.16,1
3.148573,0.909,0.154,-0.446,22.583,1.647,-14.343,1
3.158058,0.907,0.153,-0.439,25.878,0.549,-14.099,1
3.165824,0.91,0.14,-0.416,31.494,-0.183,-13.977,1
3.175918,0.913,0.135,-0.395,36.804,-0.366,-13.732,1
3.182957,0.919,0.121,-0.373,42.663,-0.732,-13.122,1
3.191251,0.927,0.107,-0.359,44.982,-0.915,-12.695,1
3.199931,0.933,0.107,-0.347,43.701,-0.793,-12.268,1
3.207075,0.928,0.104,-0.338,40.71,-0.488,-11.962,1
3.21509,0.922,0.109,-0.33,38.024,-0.793,-11.535,1
3.222818,0.921,0.111,-0.316,38.024,-0.915,-11.108,1
3.231117,0.931,0.107,-0.303,37.475,-0.732,-10.498,1
3.239215,0.941,0.094,-0.28,34.667,-0.183,-9.582,1
3.247236,0.967,0.086,-0.251,28.381,0.793,-8.544,1
3.256587,1.001,0.091,-0.208,18.493,2.441,-7.629,1
3.263834,1.03,0.108,-0.181,12.023,3.845,-7.019,1
3.272725,1.05,0.146,-0.155,11.169,5.371,-6.652,1
3.28041,1.065,0.19,-0.143,16.723,6.286,-7.08,1
3.28753,1.085,0.228,-0.138,27.832,6.469,-8.056,1
3.296223,1.114,0.271,-0.14,42.724,6.408,-10.192,1
3.304278,1.143,0.303,-0.159,61.34,5.615,-12.878,1
3.311825,1.157,0.322,-0.175,74.157,5.371,-15.319,1
3.319418,1.163,0.343,-0.199,81.787,5.676,-17.578,1
3.32932,1.165,0.362,-0.215,84.045,6.835,-19.958,1
3.337125,1.148,0.358,-0.248,75.805,9.094,-20.996,1
3.346044,1.208,0.356,-0.274,52.795,11.901,-20.507,1
3.354547,1.328,0.451,-0.282,39.062,15.38,-23.193,1
3.362319,1.246,0.538,-0.304,45.654,15.869,-25.573,1
3.369513,1.178,0.583,-0.323,56.823,16.479,-28.32,1
3.378625,1.153,0.608,-0.338,62.133,15.624,-30.639,1
3.386578,1.125,0.63,-0.357,58.532,16.662,-33.447,1
3.396136,1.051,0.685,-0.391,52.368,18.554,-36.621,1
3.402837,0.943,0.723,-0.425,48.156,19.714,-40.222,1
3.410314,0.884,0.736,-0.451,44.86,20.507,-44.006,1
3.418748,0.876,0.756,-0.476,43.579,21.179,-48.4,1
3.426278,0.864,0.759,-0.5,45.288,20.812,-52.185,1
3.43371,0.846,0.751,-0.531,45.593,20.446,-55.847,1
3.442285,0.839,0.738,-0.575,39.672,20.385,-59.143,1
3.449797,0.828,0.733,-0.614,26.367,20.629,-62.683,1
3.458759,0.814,0.732,-0.635,14.343,20.324,-65.856,1
3.467864,0.82,0.727,-0.633,8.544,18.981,-69.885,1
3.475023,0.833,0.722,-0.625,12.268,17.272,-73.059,1
3.482173,0.839,0.692,-0.609,20.568,14.77,-76.354,1
3.48995,0.849,0.661,-0.588,30.578,12.939,-79.101,1
3.497916,0.852,0.611,-0.567,34.851,12.145,-82.031,1
3.50577,0.847,0.567,-0.525,26.367,13.183,-85.083,1
3.513423,0.833,0.538,-0.484,9.094,14.16,-88.012,1
3.521969,0.85,0.522,-0.415,-9.704,16.723,-91.308,1
3.529901,0.916,0.513,-0.343,-25.695,19.409,-95.153,1
3.5373,0.945,0.424,-0.274,-45.898,23.437,-99.304,1
3.544792,1.016,0.311,-0.231,-77.88,26.977,-101.074,1
3.554339,1.103,0.354,-0.15,-86.242,31.799,-106.689,1
3.561756,1.051,0.377,-0.07,-57.861,32.897,-113.708,1
3.569165,1.052,0.334,-0.034,-19.287,36.254,-119.689,1
3.57673,1.005,0.257,-0.023,-2.502,39.306,-126.098,1
3.585993,0.951,0.163,-0.013,-14.16,45.654,-130.798,1
3.594197,0.908,0.119,0.019,-42.663,53.222,-135.437,1
3.60246,0.797,0.11,0.041,-59.57,59.997,-140.136,1
3.611525,0.708,0.101,0.065,-54.626,64.086,-144.592,1
3.619218,0.603,0.043,0.082,-34.362,67.443,-148.986,1
3.626432,0.515,-0.025,0.098,-16.845,71.655,-151.367,1
3.635401,0.384,-0.114,0.087,-7.385,76.477,-152.648,1
3.643044,0.254,-0.192,0.075,-5.554,83.984,-153.076,1
3.651512,0.149,-0.243,0.053,-9.033,90.515,-152.587,1
3.661997,0.031,-0.281,0.01,-13.793,95.886,-151.123,1
3.670388,-0.08,-0.33,-0.034,-18.066,102.172,-148.925,1
3.679292,-0.167,-0.355,-0.05,-13.977,105.712,-146.301,1
3.685559,-0.262,-0.387,-0.065,1.464,110.046,-142.517,1
3.694667,-0.329,-0.446,-0.103,19.531,112.854,-138.488,1
3.702323,-0.396,-0.492,-0.12,43.273,116.76,-132.08,1
3.712861,-0.492,-0.553,-0.122,60.546,119.812,-125.427,1
3.721115,-0.588,-0.618,-0.162,87.219,123.84,-115.661,1
3.728647,-0.666,-0.705,-0.149,97.351,129.333,-106.445,1
3.736388,-0.743,-0.758,-0.167,96.74,135.62,-94.604,1
3.746698,-0.829,-0.801,-0.176,91.735,142.7,-83.801,1
3.753843,-0.934,-0.814,-0.202,83.19,150.573,-71.228,1
3.762467,-1.003,-0.817,-0.23,79.711,158.63,-58.532,1
3.769626,-1.083,-0.808,-0.263,80.078,164.611,-47.424,1
3.779083,-1.187,-0.791,-0.303,82.458,171.569,-34.912,1
3.785413,-1.321,-0.789,-0.333,75.378,174.987,-24.291,1
3.794639,-1.341,-0.716,-0.341,74.829,181.945,-14.404,1
3.802923,-1.431,-0.733,-0.461,89.538,186.767,-0.488,1
3.809839,-1.486,-0.718,-0.419,110.778,189.208,11.047,1
3.818096,-1.532,-0.654,-0.474,141.54,187.316,22.399,1
3.826292,-1.632,-0.618,-0.516,184.448,187.561,35.461,1
3.834806,-1.74,-0.586,-0.579,235.046,184.814,53.588,1
3.841101,-1.845,-0.613,-0.622,267.028,184.326,71.35,1
3.849216,-1.943,-0.706,-0.658,274.963,185.729,90.759,1
3.857945,-2.022,-0.832,-0.728,243.469,190.063,112.243,1
3.864748,-2.158,-0.992,-0.834,149.719,200.012,137.39,1
3.872973,-2.021,-0.976,-0.861,62.255,209.35,157.104,1
3.88177,-1.954,-0.944,-0.874,-0.427,217.895,174.316,1
3.889797,-2.111,-0.931,-0.914,-31.982,223.937,195.495,1
3.898135,-2.273,-0.956,-0.975,-27.343,226.135,214.904,1
3.905419,-2.389,-1.025,-1.06,-6.408,228.088,237.06,1
3.912666,-2.58,-1.139,-1.17,11.474,229.187,265.808,1
3.921416,-2.816,-1.205,-1.227,13.61,231.384,292.419,1
3.93035,-3.086,-1.224,-1.285,17.15,232.849,321.472,1
3.937753,-3.438,-1.2,-1.328,37.841,234.13,357.421,1
3.945722,-3.828,-1.167,-1.366,63.537,231.933,389.343,1
3.954861,-4.194,-1.107,-1.361,101.989,227.294,430.358,1
3.961822,-4.683,-1.036,-1.489,163.94,214.782,473.999,1
3.971122,-5.187,-0.98,-1.551,221.862,198.852,513.671,1
3.978735,-5.92,-0.866,-1.662,273.071,175.415,553.833,1
3.98627,-6.548,-0.757,-1.75,325.805,146.545,594.116,1
3.995109,-7.254,-0.676,-1.776,360.9,104.553,640.38,1
4.003347,-7.871,-0.584,-1.876,391.906,59.814,678.649,1
4.010375,-8.729,-0.463,-1.817,424.987,1.77,720.092,1
4.019023,-9.482,-0.41,-1.841,441.894,-54.443,752.929,1
4.026572,-10.175,-0.365,-1.828,457.824,-116.149,782.165,1
4.035155,-11.144,-0.332,-1.782,475.524,-182.495,806.823,1
4.042603,-12.056,-0.294,-1.751,492.858,-266.54,828.002,1
4.051712,-13.082,-0.165,-1.661,510.436,-354.309,840.332,1
4.0588,-13.708,0.002,-1.543,536.071,-434.509,842.04,1
4.067623,-14.379,0.229,-1.367,592.895,-535.217,833.129,1
4.07827,-15.089,0.423,-1.175,642.211,-626.464,810.424,1
4.08584,-15.992,0.578,-0.959,686.34,-745.605,761.474,1
4.095749,-15.999,0.734,-0.612,687.194,-839.782,705.2,1
4.102911,-15.999,0.855,-0.215,647.216,-923.034,641.601,1
4.110436,-15.999,0.819,0.17,569.213,-976.257,590.515,1
4.118923,-15.999,0.92,0.672,481.079,-1018.554,549.926,1
4.126356,-15.999,1.145,1.269,434.143,-1045.593,518.554,1
4.134828,-15.999,1.782,1.945,449.951,-1075.866,478.149,1
4.141931,-15.999,2.267,2.574,494.14,-1097.595,434.02,1
4.150856,-15.999,2.574,2.841,557.189,-1119.628,376.342,1
4.1578,-15.999,2.986,3.342,639.953,-1145.813,299.072,1
4.165505,-15.999,3.401,3.533,813.11,-1152.404,176.025,1
4.174246,-15.999,3.39,3.695,989.257,-1145.324,40.161,1
4.182182,-15.999,2.789,3.42,1121.337,-1103.332,-137.207,1
4.191585,-15.999,2.081,3.384,1095.031,-1038.147,-282.653,1
4.200119,-15.755,1.289,3.277,984.863,-934.997,-416.015,1
4.207129,-13.003,0.564,3.105,898.193,-838.317,-497.192,1
4.215614,-11.544,0.219,3.078,794.189,-728.637,-562.5,1
4.223941,-10.601,-0.034,2.845,709.411,-639.099,-601.135,1
4.232498,-10.177,-0.249,2.739,588.806,-543.334,-629.699,1
4.239863,-9.652,-0.432,2.723,467.59,-468.017,-640.197,1
4.248429,-8.961,-0.548,2.845,371.582,-399.475,-641.052,1
4.256163,-8.534,-0.681,2.885,293.518,-336.914,-635.925,1
4.26354,-8.104,-0.822,2.917,258.117,-288.33,-626.159,1
4.272918,-7.659,-1.001,2.931,245.788,-247.68,-616.027,1
4.282228,-7.291,-1.202,2.897,250.427,-200.805,-603.515,1
4.291352,-6.803,-1.444,2.756,256.652,-159.301,-590.209,1
4.300287,-6.118,-1.811,2.624,254.15,-117.004,-572.448,1
4.30732,-5.604,-2.09,2.527,228.942,-75.927,-551.33,1
4.316562,-5.336,-2.25,2.43,185.668,-37.109,-528.442,1
4.324624,-5.015,-2.223,2.41,151.306,-2.99,-506.347,1
4.332904,-4.614,-2.455,2.268,134.582,15.93,-488.464,1
4.340434,-4.054,-2.728,2.372,123.596,37.841,-464.538,1
4.348656,-3.769,-2.795,2.306,135.925,56.64,-432.556,1
4.355633,-3.499,-2.859,2.343,167.602,74.951,-402.404,1
4.363718,-3.21,-2.917,2.19,190.551,89.477,-370.178,1
4.372468,-2.907,-2.926,2.078,208.007,108.886,-329.895,1
4.379981,-2.662,-2.885,1.89,207.031,122.131,-294.738,1
4.388172,-2.442,-2.765,1.736,204.406,137.512,-254.821,1
4.397402,-2.308,-2.55,1.628,204.467,146.606,-221.679,1
4.40482,-2.149,-2.526,1.382,215.576,154.785,-191.223,1
4.4124,-1.985,-2.45,1.29,195.495,164.489,-161.254,1
4.419871,-1.899,-2.326,1.166,178.222,170.532,-129.76,1
4.428737,-1.763,-2.197,1.119,178.161,176.391,-103.088,1
4.436182,-1.614,-2.084,0.987,187.683,176.818,-73.974,1
4.443573,-1.436,-1.985,0.905,197.326,178.527,-50.17,1
4.452937,-1.254,-1.845,0.782,207.641,176.818,-27.465,1
4.460659,-1.076,-1.726,0.655,204.895,174.438,-2.258,1
4.468528,-0.907,-1.602,0.555,194.641,170.532,18.066,1
4.476328,-0.791,-1.464,0.521,190.185,165.71,39.489,1
4.485486,-0.687,-1.335,0.447,189.208,159.973,56.396,1
4.494684,-0.596,-1.206,0.414,190.246,153.686,74.401,1
4.50241,-0.464,-1.065,0.375,194.885,145.996,88.317,1
4.510913,-0.411,-0.923,0.371,200.317,138.793,104.003,1
4.517827,-0.377,-0.811,0.357,207.214,129.272,118.041,1
4.526805,-0.338,-0.708,0.365,217.651,122.802,129.272,1
4.533892,-0.351,-0.615,0.345,228.82,113.464,138.732,1
4.543101,-0.282,-0.543,0.34,239.135,105.651,146.972,1
4.551488,-0.175,-0.477,0.327,243.347,96.74,154.968,1
4.560042,-0.106,-0.428,0.348,250.976,88.989,159.973,1
4.568714,-0.015,-0.41,0.338,254.089,80.2,163.757,1
4.576286,0.015,-0.408,0.332,242.126,73.181,166.809,1
4.585156,-0.016,-0.434,0.353,210.815,69.58,167.724,1
4.594227,-0.068,-0.441,0.398,173.767,69.519,167.785,1
4.601147,-0.127,-0.412,0.424,141.174,69.458,166.931,1
4.609991,-0.118,-0.416,0.441,128.601,70.373,165.832,1
4.618407,-0.067,-0.431,0.391,123.046,69.458,164.794,1
4.626196,-0.091,-0.414,0.363,120.3,67.626,164.062,1
4.63388,-0.086,-0.381,0.344,116.943,66.162,162.231,1
4.642808,-0.043,-0.34,0.355,117.431,64.88,159.729,1
4.650438,0.025,-0.317,0.353,123.413,63.415,156.372,1
4.658782,0.083,-0.315,0.343,126.892,62.377,153.381,1
4.667594,0.215,-0.349,0.316,119.262,62.988,150.329,1
4.674507,0.285,-0.375,0.288,103.759,65.063,147.277,1
4.68356,0.423,-0.383,0.251,83.129,67.504,143.737,1
4.690445,0.482,-0.382,0.232,69.152,70.251,140.808,1
4.699349,0.52,-0.375,0.227,63.049,71.044,137.634,1
4.706613,0.49,-0.359,0.219,67.26,71.35,134.826,1
4.715409,0.448,-0.351,0.204,70.251,69.824,131.652,1
4.722558,0.477,-0.323,0.223,79.467,68.908,129.272,1
4.730261,0.522,-0.273,0.269,98.693,64.636,127.014,1
4.738403,0.57,-0.253,0.306,127.502,61.828,125.427,1
4.745066,0.583,-0.256,0.315,140.563,59.814,124.389,1
4.75294,0.607,-0.249,0.335,140.014,61.401,123.535,1
4.761459,0.676,-0.213,0.317,131.103,63.659,123.84,1
4.768667,0.617,-0.175,0.374,108.947,66.528,124.572,1
4.776465,0.503,-0.141,0.34,69.946,69.58,124.633,1
4.78546,0.41,-0.041,0.39,29.235,74.462,123.901,1
4.792346,0.416,0.048,0.382,6.469,77.575,121.643,1
4.79974,0.449,0.166,0.428,7.568,79.467,118.53,1
4.809527,0.549,0.208,0.394,28.137,78.308,115.356,1
4.817071,0.649,0.21,0.404,57.861,77.514,112.06,1
4.825547,0.716,0.182,0.357,75.073,76.293,109.252,1
4.832543,0.756,0.154,0.36,82.58,76.904,107.482,1
4.840901,0.812,0.124,0.339,82.946,78.796,106.384,1
4.848223,0.836,0.123,0.354,79.467,81.665,106.872,1
4.855257,0.836,0.145,0.331,72.57,85.144,107.666,1
4.863307,0.798,0.203,0.344,64.27,88.134,107.91,1
4.869957,0.767,0.284,0.329,60.791,90.393,107.421,1
4.877216,0.745,0.358,0.321,66.223,91.003,105.529,1
4.886282,0.743,0.449,0.309,81.42,91.674,102.722,1
4.893222,0.771,0.541,0.278,103.149,91.247,98.388,1
4.900571,0.805,0.592,0.233,116.577,91.918,95.153,1
4.908359,0.815,0.632,0.197,125.976,91.857,91.003,1
4.916004,0.801,0.646,0.166,129.821,92.59,86.547,1
4.923415,0.827,0.641,0.13,127.868,93.566,82.397,1
4.931088,0.845,0.646,0.088,123.718,94.97,79.528,1
4.94016,0.834,0.664,0.046,118.041,95.886,75.805,1
4.947556,0.82,0.694,0.001,114.074,96.191,71.716,1
4.955102,0.824,0.735,-0.04,113.281,96.252,68.847,1
4.962296,0.849,0.787,-0.067,113.586,96.191,64.88,1
4.970054,0.855,0.858,-0.093,116.333,96.008,61.218,1
4.977495,0.868,0.908,-0.114,122.68,94.299,56.579,1
4.985358,0.861,0.952,-0.137,130.798,95.153,52.368,1
4.993137,0.842,0.999,-0.163,134.826,93.811,47.241,1
5.000699,0.83,1.007,-0.189,135.925,94.726,42.297,1
5.009742,0.833,1.008,-0.225,130.371,94.848,36.315,1
5.01825,0.857,0.994,-0.27,121.826,95.886,30.639,1
5.02525,0.869,0.975,-0.325,106.079,97.167,24.291,1
5.032657,0.875,0.973,-0.375,90.82,98.51,18.737,1
5.040741,0.886,0.961,-0.403,80.2,98.754,14.038,1
5.04792,0.889,0.95,-0.439,72.448,98.571,8.85,1
5.056991,0.877,0.934,-0.466,69.763,96.984,2.197,1
5.064352,0.854,0.9,-0.492,70.495,94.97,-3.662,1
5.07177,0.846,0.874,-0.498,74.89,92.468,-8.178,1
5.082316,0.857,0.847,-0.491,86.547,89.477,-11.718,1
5.089077,0.858,0.808,-0.488,111.083,85.021,-15.258,1
5.097945,0.855,0.752,-0.502,135.375,81.848,-18.005,1
5.108341,0.857,0.692,-0.54,144.287,79.589,-19.226,1
5.11486,0.898,0.66,-0.572,138.61,78.613,-20.446,1
5.123862,0.854,0.637,-0.613,128.417,78.063,-21.728,1
5.132723,0.828,0.619,-0.626,111.816,78.491,-23.498,1
5.138798,0.817,0.604,-0.65,96.13,78.796,-25.39,1
5.148073,0.806,0.583,-0.663,81.481,79.101,-27.465,1
5.155185,0.791,0.562,-0.67,71.35,78.674,-29.235,1
5.163026,0.772,0.541,-0.678,67.077,77.636,-31.738,1
5.172103,0.77,0.498,-0.671,70.495,75.744,-33.63,1
5.17815,0.76,0.465,-0.666,80.871,73.913,-34.667,1
5.187332,0.769,0.426,-0.666,92.346,72.387,-34.912,1
5.194152,0.757,0.404,-0.673,100.524,70.861,-34.912,1
5.201764,0.731,0.395,-0.68,105.651,69.885,-34.423,1
5.20942,0.689,0.398,-0.684,107.91,69.58,-34.484,1
5.217037,0.663,0.4,-0.694,107.421,69.152,-34.729,1
5.225681,0.627,0.395,-0.713,104.431,69.946,-35.278,1
5.234002,0.595,0.383,-0.736,96.984,70.129,-36.193,1
5.242408,0.6,0.369,-0.754,84.533,72.082,-37.231,1
5.251327,0.607,0.347,-0.776,73.608,73.669,-38.024,1
5.259985,0.607,0.326,-0.783,67.199,74.768,-38.635,1
5.267232,0.609,0.291,-0.805,65.307,75.134,-39.123,1
5.275661,0.626,0.243,-0.809,66.772,75.683,-38.696,1
5.283985,0.641,0.225,-0.834,65.673,75.744,-38.33,1
5.292301,0.64,0.197,-0.837,61.34,75.988,-37.475,1
5.300967,0.649,0.195,-0.853,53.771,75.439,-36.132,1
5.308323,0.666,0.199,-0.863,45.043,74.768,-35.156,1
5.316901,0.683,0.206,-0.879,35.583,74.218,-34.24,1
5.323945,0.69,0.208,-0.897,27.648,73.12,-33.447,1
5.332263,0.693,0.221,-0.91,20.446,71.838,-32.653,1
5.339307,0.693,0.232,-0.92,15.258,70.312,-32.287,1
5.348986,0.681,0.239,-0.943,10.742,68.847,-31.433,1
5.355913,0.653,0.238,-0.973,5.737,66.833,-31.494,1
5.364474,0.632,0.233,-1.022,0.732,64.941,-31.555,1
5.372068,0.625,0.228,-1.054,-3.54,62.561,-31.738,1
5.37922,0.607,0.225,-1.072,-5.249,59.753,-32.226,1
5.387013,0.623,0.227,-1.088,-1.892,56.457,-32.714,1
5.396606,0.627,0.222,-1.095,5.615,52.49,-33.142,1
5.404729,0.62,0.211,-1.093,13.793,48.583,-33.203,1
5.412751,0.61,0.183,-1.101,17.028,45.532,-33.874,1
5.418686,0.617,0.166,-1.101,15.075,42.785,-34.057,1
5.428502,0.611,0.157,-1.103,12.023,40.466,-34.362,1
5.436008,0.619,0.149,-1.09,9.826,37.597,-34.606,1
5.443408,0.636,0.137,-1.083,8.85,34.973,-34.423,1
5.452511,0.644,0.129,-1.073,8.178,32.287,-34.24,1
5.460551,0.645,0.12,-1.068,7.629,30.212,-33.813,1
5.468533,0.645,0.117,-1.057,9.155,26.916,-33.447,1
5.476434,0.651,0.102,-1.047,11.901,24.658,-33.325,1
5.484775,0.649,0.083,-1.032,14.404,22.033,-32.531,1
5.491964,0.657,0.049,-1.022,15.441,19.409,-32.165,1
5.500837,0.673,0.033,-1.001,14.16,17.272,-31.188,1
5.510018,0.678,0.023,-0.98,13.61,14.709,-30.212,1
5.517495,0.687,0.017,-0.949,13.732,13.183,-29.113,1
5.524933,0.686,0.011,-0.931,12.878,10.986,-28.198,1
5.534319,0.692,0.004,-0.903,10.559,9.704,-27.099,1
5.54114,0.691,0.007,-0.894,6.347,8.3,-25.939,1
5.54838,0.678,0.007,-0.882,1.831,7.08,-24.719,1
5.557535,0.674,0.015,-0.877,-0.732,5.493,-24.169,1
5.565868,0.677,0.026,-0.862,0.061,4.028,-23.193,1
5.57466,0.676,0.026,-0.851,4.76,1.831,-22.583,1
5.582053,0.691,0.024,-0.838,11.047,0.061,-22.216,1
5.589936,0.698,0.019,-0.815,18.981,-2.136,-21.301,1
5.598804,0.698,0.011,-0.798,23.986,-3.417,-20.446,1
5.606054,0.682,-0.005,-0.782,24.902,-4.15,-19.775,1
5.616334,0.667,-0.013,-0.761,23.864,-4.394,-18.981,1
5.623104,0.687,-0.02,-0.735,22.033,-4.882,-17.822,1
5.631871,0.706,-0.026,-0.719,20.324,-4.516,-16.662,1
5.638733,0.715,-0.026,-0.705,18.676,-4.394,-15.502,1
5.64652,0.707,-0.015,-0.691,16.296,-4.394,-14.282,1
5.654391,0.699,-0.008,-0.68,14.038,-3.906,-13.061,1
5.662021,0.7,0.002,-0.68,10.864,-3.234,-12.145,1
5.67162,0.714,0.007,-0.68,8.728,-3.295,-11.474,1
5.678282,0.713,0.014,-0.68,6.591,-2.868,-10.864,1
5.687029,0.722,0.021,-0.684,5.371,-2.868,-10.192,1
5.694328,0.714,0.025,-0.682,4.76,-2.746,-9.765,1
5.702599,0.7,0.031,-0.681,5.554,-2.563,-9.155,1
5.711971,0.696,0.037,-0.685,11.169,-3.417,-8.605,1
5.718756,0.71,0.042,-0.673,20.629,-4.638,-7.812,1
5.728054,0.715,0.041,-0.666,30.639,-5.249,-7.202,1
5.735544,0.708,0.035,-0.664,37.719,-5.493,-6.591,1
5.744504,0.712,0.036,-0.661,38.269,-5.31,-6.103,1
5.751422,0.713,0.041,-0.654,34.545,-4.638,-5.554,1
5.759858,0.734,0.045,-0.646,29.602,-3.906,-5.065,1
5.768991,0.735,0.058,-0.649,23.071,-2.807,-4.821,1
5.778303,0.73,0.073,-0.645,18.127,-2.38,-4.455,1
5.78566,0.729,0.093,-0.647,14.587,-1.77,-4.394,1
5.793353,0.731,0.113,-0.651,12.451,-1.342,-4.638,1
5.802492,0.732,0.117,-0.671,11.352,-1.647,-4.577,1
5.811103,0.734,0.127,-0.688,11.169,-2.136,-4.821,1
5.819269,0.74,0.134,-0.705,12.939,-2.929,-4.76,1
5.827021,0.747,0.139,-0.709,15.869,-3.784,-4.882,1
5.83642,0.753,0.147,-0.714,19.836,-4.821,-5.065,1
5.843453,0.767,0.144,-0.72,23.803,-6.103,-5.187,1
5.851166,0.76,0.154,-0.717,27.526,-7.202,-5.065,1
5.859284,0.767,0.164,-0.71,31.249,-8.178,-5.004,1
5.867782,0.788,0.174,-0.711,33.813,-9.033,-5.126,1
5.875506,0.789,0.174,-0.708,34.118,-10.131,-5.371,1
5.885132,0.789,0.183,-0.704,32.287,-10.742,-5.798,1
5.892532,0.773,0.189,-0.702,29.357,-11.413,-6.164,1
5.901549,0.791,0.194,-0.69,27.343,-13.0,-6.469,1
5.909418,0.782,0.205,-0.691,28.808,-14.221,-6.835,1
5.917901,0.772,0.216,-0.688,31.677,-15.441,-7.263,1
5.927216,0.784,0.216,-0.691,34.484,-16.54,-7.934,1
5.935069,0.777,0.223,-0.69,36.499,-18.127,-8.3,1
5.942569,0.749,0.232,-0.688,37.597,-18.737,-8.911,1
5.951565,0.762,0.237,-0.687,38.94,-19.958,-9.582,1
5.960058,0.766,0.243,-0.68,41.564,-21.057,-10.437,1
5.968283,0.777,0.247,-0.675,45.166,-22.216,-10.986,1
5.975686,0.77,0.245,-0.674,49.011,-23.62,-12.084,1
5.983995,0.75,0.245,-0.668,53.588,-25.268,-12.695,1
5.992752,0.757,0.251,-0.673,56.091,-26.489,-13.305,1
6.001664,0.746,0.252,-0.676,57.434,-27.893,-13.549,1
6.010831,0.762,0.256,-0.686,57.434,-29.785,-14.038,1
6.01834,0.721,0.278,-0.705,63.903,-30.7,-14.404,1
6.026603,0.761,0.274,-0.687,68.969,-34.545,-14.709,1
6.035168,0.79,0.254,-0.71,70.556,-36.071,-14.648,1
6.042933,0.778,0.257,-0.695,69.152,-38.208,-15.197,1
6.050332,0.771,0.244,-0.701,65.551,-38.94,-15.93,1
6.059503,0.769,0.238,-0.678,62.683,-38.94,-17.089,1
6.067597,0.809,0.23,-0.679,61.157,-38.818,-18.005,1
6.075853,0.878,0.226,-0.662,59.753,-38.696,-19.165,1
6.0822,0.916,0.229,-0.665,60.607,-38.024,-20.385,1
6.090999,0.974,0.239,-0.663,60.607,-37.292,-21.362,1
6.100034,0.98,0.269,-0.671,61.828,-38.208,-22.949,1
6.106736,0.966,0.292,-0.671,64.819,-38.452,-23.864,1
6.117131,1.025,0.314,-0.664,68.908,-39.672,-25.634,1
6.124731,1.017,0.341,-0.66,75.561,-42.114,-27.282,1
6.134284,1.03,0.351,-0.652,82.763,-42.846,-28.747,1
6.141389,1.036,0.359,-0.644,84.045,-44.494,-30.395,1
6.150786,1.054,0.376,-0.637,81.787,-44.616,-31.677,1
6.159515,1.055,0.411,-0.62,76.171,-45.593,-32.897,1
6.167922,1.073,0.449,-0.617,71.96,-46.081,-34.423,1
6.176038,1.061,0.492,-0.603,70.373,-47.119,-35.827,1
6.183689,1.034,0.528,-0.604,69.274,-48.339,-37.841,1
6.191919,0.955,0.585,-0.593,71.472,-49.865,-40.527,1
6.200313,0.892,0.629,-0.594,79.528,-51.757,-44.433,1
6.207081,0.857,0.653,-0.599,87.89,-53.588,-47.912,1
6.216298,0.823,0.665,-0.601,94.421,-55.725,-52.001,1
6.223369,0.804,0.66,-0.585,98.876,-57.312,-55.969,1
6.23163,0.783,0.658,-0.552,105.773,-58.776,-60.913,1
6.23963,0.771,0.657,-0.51,117.553,-60.241,-65.002,1
6.247593,0.784,0.648,-0.465,134.46,-61.218,-69.641,1
6.256072,0.798,0.62,-0.42,155.944,-61.767,-74.951,1
6.263999,0.801,0.595,-0.383,169.982,-61.523,-79.528,1
6.271792,0.79,0.566,-0.356,178.161,-60.058,-83.74,1
6.279976,0.804,0.532,-0.329,177.368,-57.617,-88.256,1
6.287452,0.825,0.475,-0.306,165.71,-54.138,-91.186,1
6.295162,0.843,0.436,-0.28,141.296,-49.072,-93.627,1
6.30423,0.842,0.368,-0.25,106.75,-43.762,-95.336,1
6.312646,0.896,0.345,-0.207,60.791,-36.987,-97.473,1
6.3203,0.953,0.352,-0.159,32.165,-32.531,-100.708,1
6.328606,0.969,0.349,-0.102,19.897,-28.564,-103.942,1
6.335491,0.969,0.333,-0.053,23.742,-27.099,-106.567,1
6.345872,0.968,0.315,0.003,41.198,-26.184,-109.191,1
6.353313,0.982,0.27,0.056,66.284,-26.367,-110.961,1
6.362514,1.005,0.213,0.115,87.402,-25.695,-111.267,1
6.370788,1.014,0.177,0.154,107.666,-23.559,-111.022,1
6.376962,1.0,0.146,0.196,118.53,-20.568,-109.985,1
6.385529,0.976,0.134,0.233,121.948,-16.601,-108.52,1
6.392203,0.916,0.143,0.283,118.164,-10.925,-107.788,1
6.400676,0.833,0.177,0.313,110.717,-4.333,-107.727,1
6.407205,0.75,0.212,0.357,104.309,3.234,-108.947,1
6.415493,0.687,0.229,0.394,101.44,11.169,-110.961,1
6.422098,0.652,0.23,0.437,101.989,18.371,-112.67,1
6.43171,0.653,0.206,0.488,104.858,26.306,-114.318,1
6.437536,0.619,0.166,0.544,100.463,33.691,-114.868,1
6.445459,0.602,0.137,0.578,91.796,44.494,-114.807,1
6.453932,0.561,0.107,0.642,80.749,53.527,-114.807,1
6.461246,0.518,0.075,0.685,60.913,65.063,-114.44,1
6.467966,0.529,0.045,0.683,33.142,76.232,-114.318,1
6.476714,0.537,0.034,0.729,3.662,88.928,-114.257,1
6.484497,0.525,0.025,0.739,-19.897,100.463,-114.44,1
6.491987,0.501,0.021,0.772,-30.212,111.45,-115.112,1
6.499503,0.475,-0.003,0.768,-31.249,122.253,-115.844,1
6.508277,0.365,-0.032,0.77,-22.033,134.887,-115.722,1
6.515983,0.26,-0.087,0.712,-18.737,145.629,-115.783,1
6.523303,0.16,-0.184,0.651,-32.714,160.095,-115.051,1
6.532093,0.043,-0.237,0.56,-51.513,172.668,-114.562,1
6.539103,-0.074,-0.301,0.451,-75.134,183.654,-114.196,1
6.54842,-0.194,-0.35,0.362,-96.496,196.899,-113.83,1
6.554999,-0.308,-0.39,0.29,-107.849,205.566,-113.891,1
6.564174,-0.442,-0.441,0.205,-110.778,214.172,-113.464,1
6.571197,-0.583,-0.511,0.131,-111.633,221.008,-112.67,1
6.579228,-0.679,-0.565,0.08,-103.271,227.844,-111.145,1
6.587501,-0.785,-0.628,0.024,-87.158,232.055,-108.825,1
6.5964,-0.954,-0.773,-0.054,-67.504,239.318,-103.454,1
6.603891,-1.033,-0.87,-0.104,-58.044,245.239,-97.717,1
6.612768,-1.093,-0.944,-0.17,-50.659,251.281,-89.66,1
6.621556,-1.22,-0.937,-0.221,-33.325,258.239,-81.054,1
6.630821,-1.319,-0.966,-0.25,-14.953,263.549,-72.326,1
6.638638,-1.48,-1.026,-0.313,12.39,269.775,-60.485,1
6.646348,-1.657,-1.058,-0.344,36.865,275.512,-49.499,1
6.653845,-1.87,-1.086,-0.444,63.598,282.043,-35.766,1
6.663153,-2.07,-1.085,-0.515,81.97,288.085,-22.277,1
6.671373,-2.242,-1.049,-0.602,106.628,294.616,-2.38,1
6.681297,-2.419,-1.043,-0.655,118.164,298.095,14.038,1
6.688885,-2.502,-1.016,-0.824,156.494,300.415,35.522,1
6.696429,-2.685,-0.99,-0.83,182.678,301.33,54.87,1
6.704697,-2.93,-1.001,-1.055,185.485,300.048,76.049,1
6.711918,-3.091,-1.093,-1.17,157.714,304.992,102.05,1
6.721491,-3.178,-1.212,-1.296,118.896,304.931,124.938,1
6.727669,-3.304,-1.236,-1.379,99.06,306.213,147.827,1
6.736829,-3.469,-1.284,-1.477,93.688,302.429,175.415,1
6.744833,-3.676,-1.408,-1.587,86.914,300.842,205.993,1
6.754237,-3.852,-1.463,-1.667,81.542,295.776,234.008,1
6.760986,-4.083,-1.501,-1.703,101.989,290.344,270.141,1
6.770499,-4.31,-1.545,-1.753,135.07,281.005,305.847,1
6.779193,-4.585,-1.635,-1.859,190.673,268.066,353.576,1
6.786957,-4.974,-1.706,-1.953,250.061,248.962,406.677,1
6.795657,-5.448,-1.747,-2.088,304.26,223.632,464.416,1
6.803037,-5.899,-1.741,-2.151,346.069,195.983,516.906,1
6.810929,-6.326,-1.653,-2.249,392.7,160.339,570.495,1
6.819426,-6.947,-1.474,-2.245,446.044,116.394,622.192,1
6.826824,-7.797,-1.276,-2.339,492.553,57.739,671.874,1
6.835722,-8.41,-1.076,-2.333,542.175,-11.474,725.952,1
6.843238,-9.18,-0.874,-2.304,564.453,-85.571,764.587,1
6.850313,-10.057,-0.624,-2.197,573.425,-169.677,799.133,1
6.859186,-10.767,-0.396,-2.064,567.81,-247.009,818.847,1
6.868096,-11.516,-0.149,-1.92,560.485,-320.617,829.956,1
6.876378,-12.459,0.138,-1.781,544.555,-409.118,830.444,1
6.88528,-13.469,0.427,-1.623,524.353,-480.407,821.96,1
6.891727,-14.374,0.692,-1.451,491.943,-559.753,802.856,1
6.901517,-15.079,0.941,-1.228,442.321,-627.38,777.16,1
6.907366,-15.865,1.158,-0.953,389.099,-677.734,754.577,1
6.917234,-15.997,1.394,-0.705,335.937,-721.496,731.628,1
6.924231,-15.999,1.687,-0.291,304.565,-768.615,704.894,1
6.933609,-15.999,1.883,0.006,315.368,-808.105,681.884,1
6.940494,-15.999,2.059,0.419,368.53,-859.863,649.291,1
6.949493,-15.999,2.051,0.683,431.518,-905.456,615.112,1
6.95715,-15.999,1.972,0.997,483.703,-950.866,576.965,1
6.96501,-15.999,1.904,1.438,530.334,-985.168,534.79,1
6.975641,-15.999,2.106,1.936,607.91,-1024.719,475.158,1
6.982807,-15.999,2.58,2.162,761.352,-1066.894,376.77,1
6.9918,-15.999,2.658,2.197,896.362,-1090.515,271.972,1
6.999489,-15.999,2.693,2.018,991.21,-1104.919,122.924,1
7.006669,-15.999,2.643,2.089,1015.991,-1083.496,-10.62,1
7.014497,-15.999,2.233,2.003,970.703,-1056.884,-142.028,1
7.023243,-15.999,1.804,2.227,861.755,-994.14,-271.24,1
7.032565,-15.281,1.548,2.351,722.839,-921.813,-371.826,1
7.041056,-13.938,1.327,2.44,636.23,-847.595,-434.814,1
7.048779,-12.636,1.098,2.357,563.049,-782.287,-483.581,1
7.056135,-11.928,0.941,2.18,485.534,-706.176,-525.268,1
7.065144,-11.201,0.755,2.175,424.865,-637.817,-555.786,1
7.073717,-10.614,0.6,2.071,395.935,-588.012,-576.599,1
7.080744,-10.191,0.474,2.153,406.494,-542.114,-592.468,1
7.088141,-9.62,0.267,2.123,465.209,-489.562,-610.29,1
7.095744,-9.115,0.01,2.126,524.841,-438.354,-624.084,1
7.104221,-8.563,-0.346,1.988,547.973,-382.69,-634.216,1
7.112119,-8.347,-0.655,1.877,517.639,-322.936,-636.413,1
7.121559,-7.862,-0.998,1.778,430.541,-258.605,-632.263,1
7.130138,-7.443,-1.245,1.778,358.764,-203.247,-620.849,1
7.136682,-7.039,-1.439,1.718,285.583,-154.113,-601.867,1
7.145856,-6.47,-1.569,1.673,244.995,-114.013,-580.139,1
7.154785,-5.83,-1.711,1.518,234.863,-76.66,-554.809,1
7.1618,-5.38,-1.849,1.415,235.351,-49.987,-531.921,1
7.171301,-5.075,-1.967,1.303,227.416,-31.372,-508.85,1
7.178582,-4.618,-2.081,1.208,223.51,-7.812,-482.36,1
7.186339,-4.111,-2.182,1.142,231.994,7.324,-459.472,1
7.195295,-3.775,-2.26,1.068,248.84,25.756,-431.396,1
7.203069,-3.479,-2.28,0.985,261.23,40.832,-406.616,1
7.210544,-3.191,-2.3,0.886,269.226,57.373,-375.854,1
7.219945,-3.028,-2.299,0.789,260.681,68.786,-349.121,1
7.227591,-2.874,-2.244,0.706,248.352,84.472,-315.917,1
7.235689,-2.768,-2.196,0.646,236.938,91.674,-287.353,1
7.244858,-2.585,-2.153,0.57,226.44,99.975,-258.789,1
7.251418,-2.345,-2.085,0.474,208.435,104.37,-226.379,1
7.25983,-2.154,-2.04,0.402,191.772,108.52,-200.378,1
7.266853,-2.031,-1.996,0.345,176.574,109.374,-175.903,1
7.274762,-1.896,-1.975,0.292,165.649,111.267,-153.137,1
7.282998,-1.824,-1.942,0.27,144.409,110.107,-131.53,1
7.291764,-1.675,-1.884,0.249,128.173,110.595,-111.022,1
7.299185,-1.457,-1.812,0.231,122.07,106.811,-88.378,1
7.307978,-1.25,-1.749,0.185,121.826,103.454,-67.016,1
7.318521,-1.076,-1.674,0.166,122.253,98.205,-46.569,1
7.328031,-0.896,-1.595,0.126,123.962,92.285,-27.709,1
7.336629,-0.748,-1.497,0.118,125.549,86.12,-9.948,1
7.343558,-0.628,-1.391,0.086,129.638,78.308,8.605,1
7.352529,-0.568,-1.28,0.09,135.314,71.777,20.996,1
7.358797,-0.53,-1.204,0.081,136.291,65.124,32.226,1
7.368812,-0.524,-1.102,0.083,133.422,58.715,42.419,1
7.377639,-0.521,-0.992,0.085,132.141,51.086,52.49,1
7.383879,-0.519,-0.906,0.097,128.906,43.701,61.096,1
7.392885,-0.513,-0.844,0.105,124.145,37.109,67.565,1
7.400434,-0.514,-0.793,0.118,117.553,30.273,73.791,1
7.409075,-0.519,-0.776,0.124,111.45,24.536,78.125,1
7.417385,-0.479,-0.773,0.131,104.431,20.019,81.726,1
7.424354,-0.408,-0.777,0.135,96.862,15.258,85.021,1
7.431835,-0.354,-0.774,0.147,88.378,11.169,88.317,1
7.440069,-0.327,-0.761,0.157,81.665,7.507,90.82,1
7.44796,-0.314,-0.74,0.18,76.293,4.455,92.895,1
7.454743,-0.283,-0.719,0.206,74.34,0.549,95.092,1
7.46431,-0.25,-0.697,0.239,76.782,-3.54,97.106,1
7.471746,-0.22,-0.673,0.278,81.848,-8.85,99.548,1
7.48019,-0.187,-0.648,0.321,88.439,-13.488,101.257,1
7.488956,-0.161,-0.638,0.359,97.473,-18.737,103.027,1
7.496477,-0.159,-0.631,0.398,105.163,-22.705,103.942,1
7.504547,-0.156,-0.638,0.437,109.68,-25.451,104.675,1
7.512908,-0.107,-0.671,0.473,109.558,-27.343,105.712,1
7.520601,-0.061,-0.728,0.522,106.262,-28.32,106.689,1
7.527895,-0.009,-0.787,0.572,101.44,-28.564,108.642,1
7.535825,0.019,-0.83,0.607,96.679,-27.709,110.534,1
7.543395,0.038,-0.87,0.644,91.186,-26.672,113.281,1
7.552633,0.048,-0.9,0.682,86.425,-25.39,115.905,1
7.561967,0.059,-0.92,0.736,82.641,-24.353,119.75,1
7.569181,0.043,-0.934,0.796,83.557,-23.01,123.168,1
7.576696,0.019,-0.949,0.838,86.425,-21.789,126.953,1
7.584707,0.013,-0.956,0.885,89.111,-19.958,131.347,1
7.591836,0.012,-0.966,0.926,90.332,-17.7,135.192,1
7.600959,-0.008,-0.968,0.968,93.139,-14.77,138.671,1
7.608652,-0.022,-0.985,0.999,93.749,-10.681,142.822,1
7.616923,-0.028,-0.998,1.029,91.491,-6.103,146.118,1
7.626082,-0.041,-1.008,1.041,85.876,-0.671,150.024,1
7.632854,-0.035,-1.017,1.052,78.857,5.004,153.381,1
7.641804,-0.042,-1.031,1.067,67.749,10.986,157.592,1
7.650731,-0.029,-1.037,1.059,57.617,16.723,161.132,1
7.65827,0.011,-1.032,1.054,49.194,24.536,165.649,1
7.665714,0.023,-1.038,1.055,39.733,28.442,169.128,1
7.67316,0.007,-1.015,1.028,31.799,35.644,173.461,1
7.680836,0.011,-0.985,1.021,28.991,39.916,176.94,1
7.689642,0.024,-0.979,0.991,29.113,45.104,179.931,1
7.697093,0.022,-0.945,0.978,27.465,49.621,183.227,1
7.704678,0.026,-0.911,0.933,29.602,54.809,185.791,1
7.712463,0.019,-0.875,0.927,30.944,59.814,187.866,1
7.72107,0.035,-0.848,0.869,22.827,65.063,189.88,1
7.727881,0.055,-0.806,0.839,7.69,72.265,191.528,1
7.735851,0.052,-0.765,0.786,-10.07,81.237,192.321,1
7.745181,0.03,-0.717,0.749,-31.188,90.637,192.626,1
7.752503,0.0,-0.662,0.671,-60.424,102.966,191.894,1
7.761291,-0.009,-0.604,0.618,-85.693,113.647,190.429,1
7.770482,-0.016,-0.539,0.564,-106.262,124.45,188.537,1
7.77845,0.0,-0.48,0.525,-114.746,133.117,186.523,1
7.787319,0.003,-0.446,0.465,-121.398,142.578,184.326,1
7.795686,0.008,-0.397,0.421,-119.506,149.963,182.861,1
7.803217,0.015,-0.361,0.378,-115.539,154.907,180.969,1
7.813893,0.032,-0.329,0.344,-109.741,161.376,179.931,1
7.819719,0.044,-0.309,0.316,-105.285,165.588,179.321,1
7.827414,0.071,-0.291,0.272,-102.172,169.311,179.26,1
7.837121,0.078,-0.277,0.245,-101.501,172.973,179.26,1
7.844438,0.085,-0.26,0.192,-104.614,177.429,179.26,1
7.852033,0.091,-0.248,0.17,-110.351,180.786,179.138,1
7.860094,0.114,-0.234,0.138,-117.187,184.326,179.626,1
7.868532,0.113,-0.209,0.122,-123.596,187.316,180.175,1
7.876457,0.114,-0.187,0.088,-124.511,190.185,180.664,1
7.882822,0.115,-0.16,0.079,-122.558,191.223,181.03,1
7.89154,0.105,-0.138,0.061,-114.624,193.603,181.884,1
7.899507,0.095,-0.112,0.048,-106.628,194.152,182.25,1
7.907493,0.095,-0.086,0.04,-93.994,195.373,183.105,1
7.91495,0.1,-0.067,0.024,-78.247,194.946,184.57,1
7.922229,0.142,-0.06,0.008,-61.462,195.556,186.889,1
7.930133,0.152,-0.045,-0.006,-45.471,194.458,188.781,1
7.939186,0.157,-0.034,-0.014,-27.648,194.152,191.65,1
7.947994,0.198,-0.031,-0.032,-9.521,193.115,195.129,1
7.955535,0.218,-0.014,-0.046,12.756,191.589,199.584,1
7.961915,0.213,0.0,-0.067,32.348,190.002,204.467,1
7.970929,0.176,0.009,-0.077,51.452,187.988,209.655,1
7.978063,0.137,0.016,-0.09,68.786,185.18,215.637,1
7.986207,0.087,0.028,-0.094,87.158,181.518,222.778,1
7.994711,0.054,0.037,-0.107,102.294,177.551,229.309,1
8.002515,0.047,0.046,-0.116,117.37,173.583,235.839,1
8.010126,0.02,0.058,-0.132,131.469,168.029,244.079,1
8.017955,-0.023,0.065,-0.144,140.563,163.024,251.77,1
8.026691,-0.083,0.079,-0.153,146.484,157.409,259.155,1
8.034448,-0.177,0.093,-0.162,148.071,151.672,268.432,1
8.042943,-0.245,0.105,-0.185,145.08,145.935,275.756,1
8.049833,-0.373,0.124,-0.189,136.535,141.662,283.691,1
8.057923,-0.396,0.152,-0.223,120.788,136.962,289.672,1
8.065257,-0.581,0.227,-0.243,98.815,131.958,295.227,1
8.07355,-0.75,0.329,-0.281,86.914,127.258,298.278,1
8.081328,-0.855,0.467,-0.301,88.317,120.361,299.011,1
8.089323,-0.956,0.662,-0.347,106.018,111.511,296.813,1
8.097663,-1.052,0.83,-0.395,133.972,101.257,294.738,1
8.105919,-1.077,0.993,-0.43,168.579,91.491,292.541,1
8.112525,-1.166,1.085,-0.495,185.424,80.505,291.748,1
8.120449,-1.204,1.155,-0.538,167.724,72.509,289.978,1
8.127787,-1.173,1.23,-0.577,120.544,66.528,286.376,1
8.136243,-1.181,1.352,-0.58,66.406,64.636,281.555,1
8.143497,-1.172,1.494,-0.585,24.597,63.293,275.695,1
8.151999,-1.158,1.65,-0.59,-3.112,63.537,267.211,1
8.161075,-1.081,1.746,-0.604,-11.718,61.828,258.483,1
8.168335,-0.979,1.804,-0.599,-6.53,59.692,249.511,1
8.176486,-0.873,1.826,-0.589,8.728,55.236,240.661,1
8.183334,-0.789,1.825,-0.586,32.653,50.598,231.75,1
8.193012,-0.736,1.803,-0.599,42.541,46.569,224.487,1
8.20009,-0.69,1.793,-0.603,34.851,44.494,216.979,1
8.206896,-0.675,1.79,-0.607,17.822,43.029,210.449,1
8.215966,-0.656,1.797,-0.583,3.234,42.846,204.528,1
8.223803,-0.637,1.788,-0.573,-4.577,41.809,198.791,1
8.232842,-0.611,1.763,-0.546,-5.065,40.466,193.237,1
8.240884,-0.591,1.74,-0.537,-0.732,38.513,188.72,1
8.247968,-0.583,1.692,-0.511,4.882,36.499,184.509,1
8.256866,-0.594,1.656,-0.508,4.516,34.851,181.091,1
8.265544,-0.598,1.635,-0.5,-1.464,33.874,178.039,1
8.272988,-0.597,1.612,-0.486,-8.178,32.775,174.316,1
8.280231,-0.593,1.598,-0.472,-9.338,31.372,171.264,1
8.289052,-0.588,1.579,-0.449,-4.577,29.296,167.663,1
8.297728,-0.571,1.562,-0.434,2.929,26.794,164.672,1
8.304562,-0.559,1.542,-0.426,9.155,24.414,162.109,1
8.313608,-0.545,1.527,-0.412,15.136,22.277,159.667,1
8.320359,-0.543,1.504,-0.402,19.775,20.568,157.348,1
8.327277,-0.545,1.475,-0.38,21.362,19.226,154.479,1
8.335782,-0.525,1.453,-0.369,20.996,18.615,152.282,1
8.343499,-0.523,1.434,-0.353,18.798,18.859,149.108,1
8.352502,-0.541,1.436,-0.349,12.817,19.47,146.484,1
8.359653,-0.53,1.445,-0.34,5.676,20.385,143.371,1
8.369154,-0.54,1.444,-0.327,-1.281,21.728,139.343,1
8.376529,-0.513,1.435,-0.312,-1.953,22.583,135.314,1
8.383916,-0.552,1.415,-0.299,1.586,23.132,131.469,1
8.392292,-0.575,1.395,-0.288,1.281,23.742,127.929,1
8.400731,-0.568,1.36,-0.269,-0.549,25.207,124.938,1
8.407635,-0.565,1.322,-0.265,-7.324,27.038,121.459,1
8.41564,-0.569,1.297,-0.25,-16.418,29.357,119.079,1
8.425282,-0.583,1.283,-0.251,-28.259,32.409,116.577,1
8.432457,-0.605,1.267,-0.239,-41.198,35.339,114.746,1
8.440822,-0.62,1.252,-0.235,-52.246,38.574,112.548,1
8.447725,-0.641,1.249,-0.218,-58.898,41.625,110.778,1
8.455961,-0.666,1.239,-0.218,-59.57,43.701,109.436,1
8.463219,-0.702,1.226,-0.199,-55.603,45.41,108.764,1
8.471922,-0.723,1.209,-0.19,-48.767,46.813,108.215,1
8.480788,-0.739,1.195,-0.181,-43.884,48.461,108.032,1
8.487882,-0.751,1.172,-0.173,-39.55,49.621,108.154,1
8.495354,-0.768,1.155,-0.163,-34.484,51.147,108.825,1
8.503562,-0.806,1.154,-0.163,-31.494,52.551,109.436,1
8.512004,-0.845,1.152,-0.155,-30.822,54.26,110.107,1
8.52118,-0.835,1.153,-0.162,-35.461,56.396,110.351,1
8.527564,-0.83,1.163,-0.159,-43.273,58.471,109.985,1
8.536401,-0.811,1.191,-0.162,-46.386,60.18,108.459,1
8.544018,-0.807,1.196,-0.14,-40.405,60.546,106.628,1
8.551779,-0.792,1.195,-0.131,-29.602,60.119,104.37,1
8.560501,-0.806,1.186,-0.109,-9.399,58.166,101.928,1
8.567582,-0.831,1.174,-0.104,7.019,56.884,100.219,1
8.57555,-0.833,1.16,-0.105,18.737,55.969,98.327,1
8.583569,-0.833,1.129,-0.104,23.071,56.091,96.191,1
8.592847,-0.798,1.113,-0.091,25.512,56.274,94.299,1
8.600118,-0.807,1.08,-0.082,20.324,57.067,92.346,1
8.609467,-0.781,1.057,-0.09,9.887,58.349,90.209,1
8.616646,-0.761,1.053,-0.077,4.516,60.119,87.402,1
8.624424,-0.767,1.039,-0.076,0.854,60.852,85.144,1
8.632644,-0.772,1.01,-0.067,-4.699,61.95,82.946,1
8.640668,-0.751,0.976,-0.059,-7.751,61.767,80.688,1
8.648807,-0.675,0.911,-0.061,-7.385,61.828,77.758,1
8.656466,-0.668,0.872,-0.025,-11.474,62.011,76.538,1
8.665187,-0.67,0.857,-0.03,-5.126,60.791,75.134,1
8.671304,-0.713,0.835,-0.02,4.821,60.913,74.401,1
8.67935,-0.778,0.806,-0.034,12.207,59.753,73.73,1
8.687408,-0.811,0.791,-0.02,18.005,59.02,73.791,1
8.696222,-0.851,0.77,-0.023,23.742,58.044,73.974,1
8.702375,-0.815,0.706,0.0,28.198,56.457,75.134,1
8.711046,-0.875,0.708,-0.017,37.109,56.091,75.317,1
8.718514,-0.882,0.671,0.006,39.245,53.833,76.171,1
8.726479,-0.873,0.428,-0.091,25.085,52.429,83.496,1
8.734358,-0.802,0.555,-0.003,11.108,52.978,84.35,1
8.743473,-0.999,0.553,-0.07,7.446,52.001,83.557,1
8.75014,-0.962,0.525,-0.015,-0.061,50.659,84.777,1
8.758739,-0.991,0.549,-0.057,-0.732,49.56,85.632,1
8.766101,-0.855,0.557,-0.006,13.305,46.691,83.496,1
8.77259,-0.924,0.542,-0.035,27.77,45.593,82.641,1
8.781195,-1.059,0.594,0.003,36.499,43.395,80.566,1
8.789483,-1.029,0.577,-0.054,51.025,41.625,76.416,1
8.79684,-1.174,0.557,-0.017,50.537,40.405,74.401,1
8.80544,-1.234,0.513,-0.072,45.166,38.879,72.265,1
8.813599,-1.345,0.523,-0.028,38.024,38.635,70.983,1
8.820612,-1.329,0.515,-0.072,31.616,36.804,69.396,1
8.827771,-1.365,0.55,-0.025,27.832,36.56,67.504,1
8.836322,-1.24,0.545,-0.059,25.451,34.912,64.575,1
8.843807,-1.075,0.52,-0.011,21.301,34.606,61.157,1
8.851544,-0.965,0.493,-0.043,15.075,33.203,58.349,1
8.860306,-0.957,0.482,-0.01,8.728,32.653,55.908,1
8.866963,-0.96,0.486,-0.036,1.586,31.616,53.588,1
8.874944,-0.989,0.492,-0.013,-4.76,30.578,50.842,1
8.884367,-0.981,0.487,-0.034,-10.437,29.846,48.339,1
8.890772,-0.973,0.495,-0.01,-17.211,28.564,44.982,1
8.898609,-0.95,0.498,-0.026,-21.484,27.526,42.175,1
8.906599,-0.948,0.503,-0.006,-22.888,26.367,38.879,1
8.915449,-0.956,0.505,-0.013,-22.155,25.451,35.888,1
8.923233,-0.956,0.502,-0.003,-20.629,23.986,32.958,1
8.932052,-0.959,0.497,-0.011,-16.601,22.766,30.09,1
8.938856,-0.954,0.493,-0.004,-11.413,21.423,27.709,1
8.946112,-0.945,0.493,-0.016,-2.807,20.324,25.573,1
8.954041,-0.928,0.476,-0.01,5.249,18.432,23.437,1
8.961551,-0.941,0.463,-0.025,11.779,17.517,21.057,1
8.968974,-0.947,0.448,-0.029,14.526,15.93,19.348,1
8.978238,-0.963,0.433,-0.03,15.563,15.197,17.944,1
8.986261,-0.977,0.421,-0.039,13.549,13.549,16.601,1
8.995058,-0.966,0.412,-0.047,11.657,12.878,15.869,1
9.002723,-0.943,0.405,-0.056,9.521,10.681,14.892,1
9.012672,-0.926,0.402,-0.055,10.803,9.216,14.526,1
9.020348,-0.923,0.404,-0.052,16.54,6.713,13.793,1
9.029156,-0.934,0.417,-0.052,26.977,4.272,13.122,1
9.036386,-0.957,0.397,-0.055,36.499,1.892,13.0,1
9.043968,-0.989,0.395,-0.07,37.719,-1.22,12.756,1
9.052748,-0.99,0.398,-0.06,38.146,-2.746,13.122,1
9.060307,-0.97,0.398,-0.058,41.015,-5.31,12.817,1
9.070722,-0.98,0.395,-0.053,42.48,-6.774,13.061,1
9.079905,-0.97,0.388,-0.057,41.137,-9.582,13.061,1
9.087165,-0.96,0.394,-0.045,40.283,-10.925,12.817,1
9.096261,-0.937,0.391,-0.041,41.32,-12.939,12.878,1
9.104016,-0.93,0.388,-0.038,41.137,-13.916,12.878,1
9.111567,-0.924,0.384,-0.038,38.452,-15.686,12.573,1
9.120932,-0.921,0.385,-0.035,35.095,-16.662,12.634,1
9.129351,-0.916,0.389,-0.023,31.494,-17.944,12.634,1
9.137371,-0.907,0.396,-0.022,27.893,-18.615,12.512,1
9.145349,-0.909,0.407,-0.009,27.404,-19.592,12.084,1
9.153645,-0.92,0.413,-0.011,25.512,-19.958,11.474,1
9.160755,-0.922,0.416,-0.008,22.949,-21.118,11.169,1
9.169963,-0.936,0.417,-0.005,20.141,-21.362,10.131,1
9.177073,-0.938,0.419,-0.001,16.784,-22.521,9.826,1
9.185648,-0.932,0.426,0.0,15.686,-22.827,9.277,1
9.193036,-0.925,0.433,0.006,15.319,-23.986,8.483,1
9.201546,-0.916,0.434,0.01,16.174,-24.536,8.056,1
9.209669,-0.912,0.438,0.019,17.395,-25.573,7.263,1
9.218864,-0.917,0.444,0.018,19.47,-26.55,6.53,1
9.225724,-0.926,0.45,0.024,22.827,-27.526,5.126,1
9.232803,-0.937,0.456,0.027,28.015,-28.686,4.333,1
9.242487,-0.944,0.458,0.029,33.508,-29.846,3.479,1
9.249249,-0.948,0.455,0.03,39.733,-31.188,2.197,1
9.257384,-0.952,0.455,0.032,44.555,-32.592,1.525,1
9.266531,-0.961,0.458,0.026,48.156,-33.508,0.61,1
9.274048,-0.976,0.462,0.024,51.086,-34.729,-0.488,1
9.282136,-1.013,0.466,0.02,52.917,-35.644,-1.525,1
9.288678,-1.026,0.469,0.018,54.138,-36.865,-2.807,1
9.297552,-1.019,0.471,0.018,55.358,-37.841,-4.089,1
9.304819,-1.002,0.466,0.024,57.006,-38.94,-5.371,1
9.312971,-0.994,0.465,0.02,59.326,-39.978,-6.469,1
9.320984,-0.992,0.463,0.019,61.401,-41.015,-7.812,1
9.32981,-1.001,0.458,0.02,62.927,-41.809,-9.155,1
9.337717,-1.024,0.458,0.02,64.208,-42.907,-10.62,1
9.348724,-1.052,0.466,0.018,64.941,-43.823,-11.901,1
9.355421,-1.076,0.463,0.019,64.331,-44.677,-12.878,1
9.364503,-1.086,0.457,0.017,62.805,-45.166,-13.732,1
9.371515,-1.081,0.453,0.02,60.852,-45.471,-14.16,1
9.378852,-1.055,0.449,0.015,59.387,-46.02,-15.136,1
9.388085,-1.025,0.439,0.026,59.509,-46.691,-15.502,1
9.395285,-0.995,0.437,0.022,60.363,-46.874,-16.357,1
9.404007,-0.96,0.43,0.029,63.11,-47.241,-17.028,1
9.411798,-0.922,0.421,0.032,66.711,-47.79,-17.883,1
9.4194,-0.901,0.411,0.034,70.739,-48.095,-18.737,1
9.428063,-0.883,0.402,0.032,74.89,-47.79,-19.714,1
9.436406,-0.87,0.393,0.03,77.026,-47.241,-20.263,1
9.443629,-0.861,0.384,0.031,78.247,-46.63,-21.179,1
9.451104,-0.86,0.381,0.031,78.063,-45.776,-21.545,1
9.460187,-0.86,0.379,0.028,77.209,-44.799,-21.911,1
9.466989,-0.864,0.377,0.031,76.232,-43.701,-22.827,1
9.475043,-0.864,0.376,0.029,74.951,-42.48,-23.254,1
9.482962,-0.859,0.375,0.026,73.486,-41.015,-23.986,1
9.491984,-0.866,0.373,0.029,71.716,-39.794,-24.963,1
9.500083,-0.87,0.366,0.024,69.458,-38.208,-26.123,1
9.508755,-0.876,0.366,0.025,66.65,-36.926,-26.916,1
9.515922,-0.88,0.357,0.018,63.598,-35.278,-27.954,1
9.52558,-0.884,0.353,0.019,60.363,-33.935,-28.32,1
9.533651,-0.882,0.348,0.014,56.518,-32.47,-28.869,1
9.54307,-0.883,0.345,0.011,51.391,-31.066,-29.418,1
9.550429,-0.898,0.34,0.01,46.264,-29.357,-29.724,1
9.558923,-0.905,0.342,0.007,41.687,-28.259,-30.395,1
9.568219,-0.91,0.34,0.007,35.339,-27.038,-31.066,1
9.575566,-0.907,0.338,0.002,28.869,-25.695,-31.494,1
9.584131,-0.901,0.34,0.001,23.437,-24.475,-32.104,1
9.594419,-0.903,0.335,0.0,19.531,-23.559,-32.531,1
9.603362,-0.914,0.338,-0.002,15.991,-22.949,-32.714,1
9.610804,-0.922,0.345,-0.003,15.502,-22.644,-32.775,1
9.621525,-0.916,0.349,0.0,16.54,-22.399,-33.081,1
9.63065,-0.917,0.352,-0.003,21.179,-22.094,-33.081,1
9.637735,-0.925,0.354,-0.004,26.855,-22.46,-33.264,1
9.645379,-0.934,0.355,-0.005,32.897,-22.277,-33.264,1
9.654374,-0.946,0.36,-0.011,36.499,-22.46,-33.63,1
9.662772,-0.954,0.36,-0.007,40.283,-21.972,-33.386,1
9.670827,-0.951,0.364,-0.01,44.433,-21.667,-33.874,1
9.678473,-0.95,0.358,-0.015,48.706,-20.935,-34.057,1
9.687571,-0.953,0.354,-0.016,51.025,-20.812,-34.24,1
9.694937,-0.95,0.351,-0.02,52.551,-20.019,-33.996,1
9.703426,-0.952,0.353,-0.028,52.673,-19.409,-33.752,1
9.711479,-0.953,0.347,-0.029,51.818,-18.493,-33.386,1
9.718691,-0.946,0.344,-0.036,50.17,-17.944,-33.264,1
9.7288,-0.943,0.348,-0.036,49.316,-17.089,-33.203,1
9.735416,-0.947,0.344,-0.035,48.767,-16.296,-33.142,1
9.744536,-0.947,0.343,-0.038,47.424,-15.441,-32.836,1
9.753206,-0.95,0.337,-0.042,44.982,-14.587,-32.47,1
9.761509,-0.959,0.34,-0.044,42.48,-13.671,-32.043,1
9.769456,-0.953,0.337,-0.046,40.344,-12.756,-31.616,1
9.778276,-0.952,0.338,-0.049,38.024,-12.023,-31.005,1
9.786686,-0.944,0.33,-0.049,36.071,-11.23,-30.273,1
9.79532,-0.934,0.327,-0.053,33.691,-10.253,-29.418,1
9.802352,-0.93,0.327,-0.053,31.249,-9.46,-28.686,1
9.811132,-0.927,0.328,-0.05,29.174,-8.3,-27.77,1
9.81896,-0.92,0.328,-0.05,26.672,-7.202,-26.855,1
9.82756,-0.919,0.324,-0.06,24.23,-5.859,-25.939,1
9.83721,-0.914,0.327,-0.063,21.423,-4.577,-24.719,1
9.84569,-0.907,0.331,-0.067,18.676,-3.479,-23.681,1
9.853849,-0.904,0.341,-0.073,13.854,-2.014,-22.338,1
9.862422,-0.896,0.338,-0.078,6.652,-0.488,-21.057,1
9.869393,-0.894,0.343,-0.086,-1.098,0.549,-20.08,1
9.877286,-0.89,0.348,-0.093,-10.314,1.953,-18.676,1
9.886353,-0.887,0.356,-0.094,-16.601,2.746,-17.333,1
9.894892,-0.882,0.369,-0.097,-22.521,3.601,-16.113,1
9.902241,-0.875,0.373,-0.104,-25.634,3.967,-15.136,1
9.909769,-0.869,0.382,-0.107,-27.77,4.455,-14.038,1
9.918591,-0.867,0.383,-0.108,-28.564,4.577,-12.939,1
9.927708,-0.865,0.388,-0.11,-29.174,4.577,-11.962,1
9.935995,-0.865,0.388,-0.118,-29.235,4.76,-10.437,1
9.942551,-0.862,0.391,-0.113,-28.747,4.577,-9.46,1
9.95112,-0.852,0.389,-0.117,-27.221,4.516,-8.361,1
9.960381,-0.848,0.389,-0.117,-24.78,4.089,-6.896,1
9.968344,-0.838,0.39,-0.117,-21.545,3.784,-5.371,1
9.97567,-0.839,0.391,-0.12,-19.104,3.662,-3.723,1
9.984861,-0.842,0.393,-0.118,-16.235,3.112,-2.197,1
9.993112,-0.846,0.394,-0.115,-12.878,2.929,-1.098,1
