timestamp_s,ax,ay,az,gx,gy,gz,label
0.006341,0.064,0.995,0.123,1.281,-0.183,-0.915,1
0.012746,0.063,0.998,0.119,1.22,-0.305,-0.61,1
0.019636,0.063,1.001,0.125,1.037,-0.305,-0.671,1
0.027999,0.066,0.993,0.124,1.037,-0.183,-0.732,1
0.034833,0.066,0.99,0.127,0.732,-0.183,-0.976,1
0.042937,0.07,0.994,0.124,1.281,-0.183,-0.854,1
0.049819,0.069,0.993,0.124,0.976,-0.427,-0.671,1
0.057166,0.063,0.993,0.126,1.037,-0.122,-0.793,1
0.064,0.065,0.987,0.129,0.61,-0.061,-0.915,1
0.07126,0.065,0.985,0.132,-0.122,-0.122,-0.976,1
0.079829,0.065,0.987,0.13,-0.854,-0.061,-0.854,1
0.086504,0.068,0.99,0.128,-1.159,0.0,-0.915,1
0.09395,0.067,0.989,0.124,-1.098,-0.122,-0.732,1
0.10216,0.066,0.988,0.123,-0.366,-0.061,-0.671,1
0.110818,0.064,0.991,0.118,0.305,-0.183,-0.671,1
0.116856,0.062,0.991,0.121,1.098,-0.305,-0.671,1
0.124989,0.065,0.988,0.122,1.342,-0.671,-0.61,1
0.131544,0.069,0.988,0.127,1.22,-0.61,-0.854,1
0.140024,0.068,0.99,0.127,1.281,-0.61,-0.61,1
0.146527,0.07,0.989,0.13,1.098,-0.427,-0.61,1
0.153577,0.068,0.989,0.127,0.915,-0.366,-0.61,1
0.160824,0.067,0.993,0.132,0.793,-0.549,-0.61,1
0.16944,0.068,0.992,0.129,0.915,-0.427,-0.732,1
0.176024,0.067,0.986,0.132,0.915,-0.366,-0.61,1
0.182942,0.065,0.988,0.134,0.549,-0.549,-0.61,1
0.191018,0.065,0.985,0.138,-0.61,-0.061,-0.671,1
0.199106,0.067,0.989,0.137,-1.037,0.0,-0.549,1
0.207034,0.068,0.991,0.133,-1.708,0.061,-0.61,1
0.214031,0.068,0.989,0.133,-1.403,-0.061,-0.305,1
0.222111,0.067,0.988,0.129,-1.037,-0.122,-0.244,1
0.229085,0.066,0.988,0.127,-0.732,-0.061,-0.305,1
0.237176,0.071,0.988,0.124,0.061,-0.183,-0.549,1
0.24511,0.063,0.994,0.13,0.671,-0.183,-0.366,1
0.25289,0.069,0.992,0.129,0.793,-0.366,-0.244,1
0.259513,0.064,0.996,0.128,1.098,-0.305,-0.366,1
0.267879,0.067,0.992,0.127,1.037,-0.427,-0.427,1
0.27559,0.066,0.992,0.13,0.915,-0.305,-0.366,1
0.283863,0.066,0.991,0.13,0.549,-0.427,-0.427,1
0.290633,0.067,0.991,0.134,0.244,0.0,-0.671,1
0.299593,0.067,0.989,0.134,0.0,-0.183,-0.488,1
0.306329,0.069,0.994,0.135,0.122,0.0,-0.488,1
0.314198,0.068,0.991,0.136,0.183,-0.061,-0.366,1
0.322012,0.066,0.987,0.135,0.61,-0.122,-0.305,1
0.330684,0.069,0.989,0.133,0.671,-0.061,-0.305,1
0.338669,0.064,0.987,0.133,0.61,0.0,-0.305,1
0.345319,0.067,0.986,0.132,0.061,0.183,-0.305,1
0.353629,0.062,0.986,0.127,0.122,0.183,-0.183,1
0.360002,0.065,0.991,0.129,0.244,0.244,-0.183,1
0.36718,0.063,0.986,0.136,0.427,0.244,-0.061,1
0.374235,0.066,0.992,0.128,0.854,0.0,-0.244,1
0.381672,0.067,0.997,0.128,1.159,-0.244,-0.183,1
0.390492,0.07,0.995,0.123,1.525,0.122,-0.427,1
0.397144,0.07,0.991,0.126,1.831,0.061,-0.366,1
0.405198,0.071,0.986,0.126,1.647,0.061,-0.183,1
0.413545,0.069,0.987,0.128,1.159,0.0,-0.122,1
0.420078,0.068,0.987,0.129,0.732,0.0,-0.183,1
0.428569,0.065,0.992,0.13,0.671,-0.244,-0.122,1
0.435236,0.066,0.989,0.132,0.427,-0.122,0.0,1
0.443239,0.071,0.993,0.13,0.305,0.0,-0.122,1
0.450077,0.068,0.991,0.134,0.244,0.122,-0.305,1
0.456739,0.069,0.993,0.139,0.366,0.0,-0.305,1
0.463604,0.071,0.994,0.131,0.549,0.122,-0.061,1
0.471473,0.068,0.994,0.13,0.915,0.122,-0.427,1
0.479583,0.065,0.993,0.13,1.159,0.366,-0.305,1
0.486288,0.066,0.992,0.13,1.831,0.183,-0.305,1
0.494139,0.064,0.995,0.13,2.075,0.061,-0.305,1
0.501889,0.066,0.993,0.128,1.647,0.061,-0.305,1
0.509552,0.066,0.992,0.129,1.281,-0.061,-0.366,1
0.516503,0.068,0.989,0.125,0.793,0.0,-0.305,1
0.524955,0.07,0.989,0.127,0.793,0.061,-0.244,1
0.531709,0.073,0.99,0.129,0.915,-0.061,0.0,1
0.539796,0.071,0.983,0.123,0.976,-0.122,0.0,1
0.546242,0.07,0.985,0.125,1.037,-0.061,0.122,1
0.553194,0.068,0.98,0.127,1.098,0.061,0.061,1
0.561668,0.066,0.984,0.13,0.854,-0.244,0.183,1
0.568246,0.071,0.986,0.135,0.732,-0.122,0.061,1
0.575228,0.066,0.991,0.135,0.366,0.061,0.183,1
0.582242,0.066,0.992,0.134,0.732,0.183,0.061,1
0.589055,0.069,0.994,0.138,0.915,0.061,0.183,1
0.596843,0.068,0.994,0.133,1.403,0.061,-0.061,1
0.603644,0.07,0.993,0.13,1.098,0.244,0.0,1
0.611344,0.069,0.992,0.131,0.732,0.122,-0.122,1
0.619559,0.068,0.99,0.128,0.061,0.061,-0.061,1
0.627357,0.072,0.993,0.126,-0.061,0.122,0.122,1
0.634012,0.07,0.993,0.128,-0.122,0.061,0.061,1
0.642214,0.07,0.994,0.13,0.061,0.122,0.061,1
0.649036,0.07,0.991,0.13,0.122,0.305,-0.122,1
0.657225,0.07,0.994,0.135,0.793,0.183,0.061,1
0.663823,0.069,0.989,0.135,0.854,0.183,0.0,1
0.670699,0.072,0.986,0.137,0.244,0.183,-0.122,1
0.678189,0.075,0.991,0.144,0.061,0.305,0.0,1
0.684751,0.073,0.991,0.145,-0.183,0.305,0.183,1
0.692773,0.075,0.991,0.14,-0.244,0.549,0.122,1
0.700686,0.075,0.991,0.138,-0.061,0.549,0.183,1
0.707606,0.074,0.991,0.128,0.183,0.549,0.0,1
0.714097,0.071,0.988,0.125,0.854,0.366,0.183,1
0.721967,0.069,0.992,0.132,1.037,0.244,0.0,1
0.728884,0.073,0.991,0.131,1.037,0.305,0.122,1
0.7372,0.068,0.996,0.135,0.854,0.061,0.061,1
0.744861,0.067,0.998,0.139,0.61,0.488,0.0,1
0.751613,0.07,0.998,0.138,0.244,0.549,-0.122,1
0.760282,0.068,1.003,0.133,-0.061,0.854,-0.183,1
0.768263,0.074,0.995,0.13,-0.732,0.488,-0.244,1
0.774793,0.072,0.991,0.123,-1.342,0.366,-0.122,1
0.783159,0.07,0.991,0.128,-1.403,0.244,-0.183,1
0.790013,0.072,0.993,0.127,-1.77,0.366,-0.244,1
0.798494,0.072,0.99,0.126,-2.624,0.122,-0.122,1
0.805415,0.075,0.996,0.122,-2.868,0.244,0.0,1
0.813488,0.074,0.992,0.118,-1.892,-0.244,-0.122,1
0.821624,0.078,0.987,0.126,-0.305,-0.244,-0.183,1
0.827742,0.082,0.99,0.125,0.732,-0.488,-0.122,1
0.836323,0.08,0.991,0.13,1.281,-0.732,-0.427,1
0.844265,0.083,0.994,0.128,1.22,-1.037,-0.549,1
0.850742,0.088,0.987,0.125,1.403,-1.281,-0.122,1
0.85883,0.074,0.987,0.115,1.708,-1.525,-0.488,1
0.865731,0.078,0.988,0.111,2.868,-2.075,-0.427,1
0.873692,0.084,0.99,0.116,5.187,-2.624,-0.549,1
0.880189,0.081,0.986,0.125,6.347,-2.563,-0.549,1
0.888148,0.088,0.999,0.128,5.493,-2.685,-0.671,1
0.894706,0.09,1.0,0.129,4.577,-3.112,-0.793,1
0.9031,0.085,1.001,0.133,4.089,-2.99,-0.671,1
0.90972,0.083,1.008,0.129,3.662,-3.051,-0.732,1
0.91676,0.101,1.003,0.126,3.234,-3.417,-0.61,1
0.923821,0.109,0.994,0.121,5.187,-4.028,0.305,1
0.930964,0.115,0.992,0.113,6.347,-4.638,0.549,1
0.939113,0.118,0.997,0.101,7.141,-4.882,0.732,1
0.946176,0.119,1.001,0.08,9.399,-5.737,1.525,1
0.953835,0.131,1.029,0.079,12.878,-6.225,1.831,1
0.961993,0.137,1.069,0.076,18.127,-6.347,1.647,1
0.970469,0.154,1.095,0.075,20.263,-6.53,1.159,1
0.977259,0.166,1.131,0.08,19.836,-5.554,0.488,1
0.985176,0.176,1.192,0.071,17.211,-4.821,-0.732,1
0.992124,0.178,1.255,0.055,15.624,-4.516,-1.892,1
0.999128,0.21,1.301,0.033,12.451,-4.211,-3.723,1
1.00765,0.232,1.333,0.018,7.69,-3.784,-5.065,1
1.015492,0.247,1.36,-0.01,0.671,-3.356,-6.774,1
1.022344,0.265,1.406,-0.035,-6.408,-3.356,-8.666,1
1.030176,0.289,1.455,-0.065,-12.023,-3.356,-10.498,1
1.038144,0.315,1.486,-0.09,-15.563,-3.967,-12.512,1
1.045863,0.365,1.531,-0.12,-18.615,-5.126,-15.624,1
1.054377,0.396,1.571,-0.134,-20.629,-5.798,-18.066,1
1.062068,0.431,1.617,-0.145,-22.46,-6.408,-21.24,1
1.070464,0.455,1.655,-0.147,-25.756,-6.713,-24.902,1
1.07672,0.472,1.68,-0.142,-31.921,-6.408,-28.381,1
1.084936,0.51,1.697,-0.141,-42.114,-5.798,-31.799,1
1.093339,0.55,1.749,-0.13,-59.02,-4.211,-36.254,1
1.101667,0.558,1.8,-0.139,-74.218,-2.807,-39.428,1
1.109192,0.595,1.869,-0.149,-88.989,-2.075,-43.518,1
1.117622,0.569,1.944,-0.157,-103.149,-1.159,-47.607,1
1.124163,0.606,2.07,-0.196,-118.103,-0.671,-52.612,1
1.132422,0.583,2.109,-0.26,-125.488,-1.159,-56.64,1
1.139768,0.618,2.204,-0.36,-129.821,-3.601,-63.415,1
1.148369,0.549,2.364,-0.365,-126.098,-8.178,-69.824,1
1.155144,0.503,2.528,-0.383,-114.868,-11.23,-76.843,1
1.161898,0.495,2.817,-0.387,-102.05,-16.967,-85.144,1
1.170576,0.552,3.075,-0.339,-87.768,-20.446,-96.252,1
1.177673,0.562,3.211,-0.398,-91.125,-22.216,-107.543,1
1.185969,0.554,3.347,-0.409,-115.112,-23.986,-119.567,1
1.194085,0.544,3.469,-0.413,-156.494,-24.108,-131.347,1
1.202111,0.464,3.453,-0.371,-197.998,-24.108,-144.775,1
1.209706,0.315,3.277,-0.37,-235.046,-25.512,-159.362,1
1.219031,0.214,3.003,-0.337,-252.563,-29.479,-168.579,1
1.226108,0.176,2.704,-0.209,-246.093,-35.766,-176.94,1
1.234354,0.166,2.52,-0.048,-211.486,-42.785,-182.678,1
1.240835,0.104,2.348,0.114,-154.052,-50.659,-188.293,1
1.249328,0.052,2.132,0.291,-90.026,-59.02,-192.504,1
1.255994,0.032,1.957,0.527,-37.292,-63.476,-195.739,1
1.2638,-0.019,1.74,0.795,3.479,-63.232,-199.218,1
1.271869,-0.079,1.515,0.865,29.968,-59.448,-201.721,1
1.27971,-0.069,1.257,0.835,39.245,-53.71,-203.979,1
1.286905,-0.05,0.86,0.483,-1.342,-42.602,-204.345,1
1.295787,-0.109,0.85,0.511,-67.993,-41.137,-204.284,1
1.302314,-0.019,0.688,0.419,-100.524,-25.207,-201.66,1
1.310729,-0.028,0.769,0.234,-133.239,-32.897,-201.11,1
1.318878,-0.098,0.848,0.46,-128.601,-27.832,-199.34,1
1.328433,-0.049,0.922,0.288,-106.75,-31.799,-198.303,1
1.335113,-0.08,0.953,0.43,-74.157,-37.597,-198.303,1
1.342954,-0.051,0.936,0.305,-40.222,-39.611,-197.448,1
1.351242,-0.1,0.908,0.364,-29.052,-44.067,-198.12,1
1.359512,-0.092,0.727,0.284,-33.325,-39.611,-195.251,1
1.368022,0.053,0.848,0.359,-40.1,-45.41,-197.387,1
1.374567,-0.057,0.757,0.354,-42.602,-41.32,-192.626,1
1.382563,0.013,0.746,0.28,-44.372,-46.508,-192.382,1
1.389485,0.008,0.645,0.334,-49.255,-44.799,-189.392,1
1.398557,0.095,0.665,0.25,-58.044,-46.936,-187.255,1
1.406518,0.025,0.575,0.289,-73.486,-48.889,-182.861,1
1.413409,0.018,0.582,0.251,-85.876,-48.156,-179.138,1
1.421877,-0.011,0.555,0.222,-97.839,-51.574,-175.476,1
1.429464,-0.008,0.484,0.199,-105.59,-51.025,-171.02,1
1.436469,-0.014,0.465,0.158,-114.807,-55.908,-165.832,1
1.444481,-0.047,0.418,0.153,-119.201,-56.701,-160.827,1
1.452813,-0.042,0.369,0.114,-124.755,-59.753,-155.7,1
1.460889,-0.061,0.331,0.1,-124.511,-61.828,-150.634,1
1.467963,-0.08,0.315,0.084,-118.835,-64.453,-144.897,1
1.475655,-0.11,0.321,0.068,-99.731,-67.26,-139.221,1
1.483439,-0.107,0.349,0.076,-68.664,-71.044,-134.155,1
1.491703,-0.055,0.352,0.062,-28.503,-72.937,-131.408,1
1.500118,-0.07,0.378,0.045,22.399,-75.622,-129.394,1
1.506856,-0.171,0.446,0.056,95.825,-79.467,-126.708,1
1.515072,-0.046,0.403,0.001,181.335,-80.993,-126.22,1
1.522734,0.173,0.309,-0.045,251.953,-85.449,-126.708,1
1.532161,0.181,0.229,-0.065,309.265,-83.496,-124.694,1
1.538811,0.138,0.188,-0.095,330.627,-80.81,-122.436,1
1.546663,0.153,0.142,-0.121,327.575,-75.195,-121.032,1
1.553033,0.196,0.089,-0.137,304.199,-69.274,-118.041,1
1.560757,0.218,0.072,-0.132,272.399,-62.438,-114.624,1
1.568766,0.253,0.055,-0.141,235.9,-56.579,-110.717,1
1.576387,0.306,0.107,-0.158,202.514,-50.903,-106.994,1
1.584491,0.377,0.12,-0.137,178.283,-49.743,-103.576,1
1.592458,0.437,0.148,-0.129,164.245,-44.067,-98.205,1
1.60077,0.554,0.202,-0.196,154.785,-42.175,-93.994,1
1.607411,0.614,0.223,-0.242,149.658,-44.006,-91.552,1
1.615352,0.649,0.242,-0.208,151.611,-42.785,-86.975,1
1.623311,0.768,0.284,-0.274,156.921,-37.536,-83.19,1
1.631684,0.89,0.3,-0.393,154.479,-38.391,-83.068,1
1.639993,0.912,0.285,-0.376,145.751,-33.874,-82.641,1
1.646756,0.973,0.302,-0.437,130.676,-27.526,-82.702,1
1.654808,0.987,0.354,-0.495,105.712,-23.254,-84.777,1
1.662521,0.883,0.431,-0.468,90.637,-19.775,-86.059,1
1.670867,0.774,0.513,-0.462,95.52,-18.493,-86.975,1
1.678934,0.688,0.556,-0.458,111.999,-20.385,-88.134,1
1.685545,0.634,0.562,-0.453,128.173,-21.789,-88.867,1
1.692419,0.609,0.541,-0.465,132.69,-24.597,-89.05,1
1.700409,0.618,0.49,-0.444,128.051,-26.977,-88.439,1
1.708455,0.649,0.444,-0.428,119.384,-29.052,-87.463,1
1.715555,0.719,0.399,-0.413,112.426,-31.494,-85.815,1
1.724864,0.783,0.383,-0.4,114.013,-34.729,-83.862,1
1.73256,0.815,0.372,-0.377,128.295,-39.55,-82.092,1
1.740645,0.855,0.356,-0.361,144.897,-42.297,-80.871,1
1.747594,0.834,0.33,-0.357,157.775,-45.532,-80.017,1
1.756433,0.775,0.321,-0.326,165.1,-47.18,-79.956,1
1.763092,0.788,0.307,-0.314,165.405,-46.081,-81.359,1
1.770058,0.752,0.285,-0.294,158.63,-45.959,-84.045,1
1.778143,0.727,0.243,-0.289,146.789,-43.334,-86.669,1
1.786411,0.728,0.201,-0.284,132.324,-41.931,-89.66,1
1.794339,0.76,0.144,-0.289,118.591,-40.039,-92.468,1
1.800945,0.789,0.093,-0.274,106.262,-39.062,-94.665,1
1.809292,0.809,0.04,-0.272,97.595,-38.085,-96.74,1
1.815933,0.847,-0.01,-0.269,88.928,-39.123,-97.778,1
1.824049,0.894,-0.053,-0.229,84.167,-38.513,-98.693,1
1.832742,0.935,-0.074,-0.202,82.641,-38.818,-99.304,1
1.839615,0.942,-0.086,-0.153,86.425,-38.818,-100.219,1
1.847803,0.91,-0.09,-0.122,91.613,-38.757,-101.196,1
1.856104,0.869,-0.094,-0.096,96.252,-38.452,-102.05,1
1.863085,0.856,-0.097,-0.073,98.632,-37.658,-103.454,1
1.87102,0.804,-0.132,-0.062,96.313,-35.888,-104.125,1
1.879042,0.746,-0.077,-0.062,96.374,-38.635,-105.163,1
1.886948,0.771,-0.081,0.026,103.698,-37.414,-106.689,1
1.894542,0.835,-0.083,0.03,109.985,-35.644,-108.642,1
1.901425,0.831,-0.083,0.064,114.318,-35.095,-111.45,1
1.910119,0.75,-0.116,0.098,109.252,-32.409,-114.257,1
1.916251,0.703,-0.16,0.169,91.674,-28.625,-116.455,1
1.924428,0.658,-0.177,0.23,68.481,-23.254,-118.469,1
1.931548,0.649,-0.173,0.319,46.447,-18.31,-120.971,1
1.938626,0.666,-0.132,0.415,39.672,-13.977,-124.084,1
1.94672,0.628,-0.088,0.514,52.001,-11.169,-128.295,1
1.95399,0.616,-0.087,0.599,73.608,-7.263,-133.422,1
1.960914,0.613,-0.18,0.659,77.27,-2.319,-137.878,1
1.969314,0.577,-0.27,0.737,56.213,7.995,-140.808,1
1.97614,0.546,-0.32,0.771,20.141,19.409,-143.005,1
1.984521,0.464,-0.322,0.805,-21.301,28.564,-144.897,1
1.991495,0.328,-0.308,0.875,-45.471,36.743,-146.789,1
1.999965,0.306,-0.313,0.889,-65.124,45.898,-149.292,1
2.008486,0.174,-0.324,0.894,-72.937,52.795,-150.939,1
2.016413,-0.007,-0.311,0.892,-70.434,58.715,-152.832,1
2.023335,-0.041,-0.304,0.917,-50.537,64.086,-154.296,1
2.031887,-0.101,-0.384,0.901,-37.17,69.763,-154.968,1
2.039762,-0.129,-0.471,0.929,-33.447,76.599,-155.334,1
2.047904,-0.17,-0.558,0.911,-34.729,85.327,-155.212,1
2.05446,-0.222,-0.68,0.931,-35.888,93.566,-154.907,1
2.062925,-0.31,-0.795,0.904,-36.499,103.881,-152.893,1
2.070929,-0.442,-0.903,0.894,-39.794,112.609,-150.756,1
2.079158,-0.575,-1.042,0.87,-49.316,122.131,-148.01,1
2.086456,-0.721,-1.157,0.816,-60.607,130.798,-143.859,1
2.094792,-0.875,-1.268,0.779,-68.603,138.793,-139.038,1
2.101438,-1.013,-1.42,0.723,-77.819,146.301,-133.3,1
2.109848,-1.092,-1.582,0.666,-91.918,154.296,-125.366,1
2.117891,-1.157,-1.725,0.675,-97.29,161.315,-116.943,1
2.125017,-1.195,-1.858,0.696,-86.791,168.457,-107.177,1
2.133467,-1.248,-1.98,0.714,-63.354,175.476,-95.458,1
2.141394,-1.362,-2.089,0.703,-36.254,183.837,-82.763,1
2.148223,-1.535,-2.183,0.683,-16.906,192.199,-69.885,1
2.156468,-1.732,-2.273,0.638,-5.065,204.528,-52.429,1
2.164963,-1.913,-2.344,0.625,-28.93,215.576,-38.391,1
2.173115,-2.063,-2.396,0.618,-28.991,228.637,-21.484,1
2.179787,-2.171,-2.456,0.64,-30.883,239.868,-3.173,1
2.188639,-2.39,-2.47,0.643,-36.743,252.319,13.549,1
2.196566,-2.416,-2.543,0.605,-41.137,266.357,32.043,1
2.203254,-2.633,-2.526,0.63,-53.466,280.578,49.316,1
2.212812,-2.808,-2.492,0.629,-43.64,292.907,69.213,1
2.219735,-3.016,-2.425,0.574,-18.981,308.41,91.796,1
2.226702,-3.28,-2.399,0.513,9.338,320.251,114.135,1
2.234994,-3.681,-2.341,0.44,11.779,333.007,136.169,1
2.242846,-3.941,-2.326,0.356,29.724,346.496,160.461,1
2.251215,-4.328,-2.33,0.234,31.677,359.558,186.462,1
2.257971,-4.838,-2.363,0.083,4.455,375.427,212.707,1
2.266477,-5.314,-2.389,0.0,-53.649,396.301,237.731,1
2.274232,-5.81,-2.376,-0.134,-127.685,424.011,266.784,1
2.281332,-6.283,-2.313,-0.19,-163.696,447.387,290.222,1
2.28952,-6.889,-2.314,-0.276,-162.536,469.726,312.988,1
2.297053,-7.523,-2.378,-0.334,-142.456,490.173,339.782,1
2.305023,-8.436,-2.462,-0.445,-102.478,511.535,371.582,1
2.313389,-9.314,-2.587,-0.552,-41.442,529.907,416.87,1
2.32142,-10.328,-2.78,-0.649,11.169,546.691,463.928,1
2.328333,-11.363,-3.039,-0.775,54.87,559.448,520.629,1
2.336406,-12.578,-3.164,-0.927,117.736,569.519,585.449,1
2.343092,-14.058,-3.244,-1.19,199.462,564.697,660.034,1
2.351605,-15.929,-3.187,-1.364,294.799,548.584,745.178,1
2.359681,-15.996,-2.884,-1.624,437.011,510.925,842.224,1
2.367751,-15.999,-2.612,-1.915,573.791,442.749,946.899,1
2.375955,-15.999,-2.109,-2.048,690.551,337.524,1074.951,1
2.384247,-15.999,-1.484,-2.041,783.752,217.346,1179.321,1
2.391056,-15.999,-0.66,-1.947,868.713,51.147,1285.827,1
2.399448,-15.999,0.058,-1.677,894.714,-107.055,1354.858,1
2.407806,-15.999,0.832,-1.228,905.822,-270.69,1400.817,1
2.416242,-15.999,1.849,-0.5,919.86,-430.114,1421.386,1
2.422844,-15.999,2.724,0.123,945.373,-620.91,1407.897,1
2.431224,-15.999,3.392,1.061,968.749,-790.039,1364.135,1
2.437727,-15.999,3.779,2.182,997.009,-952.392,1293.64,1
2.444865,-15.999,3.469,3.345,988.83,-1087.28,1219.665,1
2.451781,-15.999,4.061,4.723,999.572,-1217.773,1115.234,1
2.458797,-15.999,5.06,5.601,1099.67,-1319.885,969.97,1
2.467151,-15.999,5.394,5.586,1246.398,-1430.725,767.394,1
2.473791,-15.999,4.826,5.939,1246.704,-1488.525,578.613,1
2.481774,-15.999,4.757,5.93,1123.901,-1504.76,360.29,1
2.488766,-15.999,5.064,5.876,1073.791,-1500.183,162.17,1
2.495611,-15.999,4.849,6.018,1132.873,-1464.416,-31.921,1
2.503999,-15.999,3.918,5.953,1209.411,-1389.099,-224.914,1
2.510912,-15.999,2.262,5.327,1233.337,-1277.954,-403.503,1
2.518453,-15.999,1.414,4.824,1162.841,-1164.55,-530.212,1
2.52676,-15.999,0.862,4.355,994.384,-1013.488,-649.169,1
2.533491,-15.999,0.449,3.696,806.701,-870.788,-731.567,1
2.541796,-15.999,0.195,3.325,642.395,-749.023,-783.691,1
2.548468,-15.999,-0.144,3.282,500.183,-640.075,-811.401,1
2.556921,-15.999,-0.586,3.189,378.54,-551.452,-819.58,1
2.565349,-15.999,-0.84,3.24,330.322,-480.834,-812.988,1
2.572732,-15.079,-1.236,3.114,384.155,-420.41,-805.48,1
2.580786,-13.867,-1.707,3.18,392.944,-346.313,-785.949,1
2.587448,-12.333,-2.07,3.028,349.792,-272.949,-759.216,1
2.595365,-11.476,-2.062,2.94,332.458,-219.116,-724.304,1
2.603824,-10.503,-2.116,2.853,359.802,-156.555,-685.852,1
2.611903,-9.468,-2.291,2.606,355.285,-105.102,-645.507,1
2.620197,-8.224,-2.46,2.453,302.429,-37.78,-596.679,1
2.627713,-6.872,-2.601,2.109,230.468,7.568,-557.128,1
2.634385,-5.557,-2.741,1.874,164.489,46.569,-518.92,1
2.641606,-4.749,-2.615,1.578,136.718,74.707,-481.323,1
2.649704,-4.605,-2.278,1.395,186.706,90.209,-443.359,1
2.656558,-4.467,-2.038,1.149,263.0,106.567,-404.479,1
2.664979,-4.184,-1.922,0.879,309.692,120.788,-366.394,1
2.671536,-3.972,-1.826,0.708,319.091,140.93,-328.124,1
2.678699,-3.835,-1.668,0.531,307.373,155.822,-298.4,1
2.686126,-3.709,-1.501,0.414,288.208,171.386,-265.014,1
2.693983,-3.574,-1.409,0.295,264.892,185.302,-233.276,1
2.702016,-3.353,-1.341,0.14,226.379,195.19,-204.772,1
2.710282,-3.141,-1.287,0.025,174.804,204.04,-179.87,1
2.718275,-3.026,-1.222,-0.029,111.267,208.557,-156.433,1
2.725949,-2.861,-1.203,-0.009,65.734,212.158,-139.526,1
2.732696,-2.613,-1.211,-0.017,31.127,214.05,-124.877,1
2.741682,-2.323,-1.213,0.001,8.239,214.843,-111.816,1
2.748332,-2.061,-1.197,0.007,-1.525,213.928,-99.182,1
2.756422,-1.816,-1.156,0.015,3.967,210.632,-86.669,1
2.762902,-1.596,-1.116,0.017,20.324,207.031,-74.096,1
2.77106,-1.399,-1.079,0.006,38.635,202.087,-61.523,1
2.777453,-1.221,-1.029,0.0,54.565,197.753,-48.645,1
2.785792,-1.098,-0.962,-0.015,63.659,193.847,-38.146,1
2.79253,-1.034,-0.896,-0.02,67.138,189.208,-26.184,1
2.801199,-0.98,-0.804,-0.028,62.866,185.241,-15.441,1
2.808551,-0.937,-0.737,-0.023,50.964,180.786,-4.699,1
2.8155,-0.843,-0.668,0.004,39.672,176.879,3.906,1
2.823608,-0.804,-0.599,0.008,32.775,174.011,10.07,1
2.832075,-0.731,-0.542,0.031,27.893,169.189,17.883,1
2.839955,-0.65,-0.492,0.053,29.235,165.527,24.353,1
2.846257,-0.593,-0.447,0.065,32.897,161.926,30.029,1
2.854876,-0.533,-0.406,0.081,37.658,159.362,35.095,1
2.861779,-0.502,-0.367,0.084,41.381,156.738,39.672,1
2.868772,-0.46,-0.344,0.089,43.518,154.724,44.067,1
2.877071,-0.402,-0.313,0.092,46.142,153.137,47.607,1
2.885212,-0.348,-0.281,0.102,50.048,151.0,50.781,1
2.891791,-0.3,-0.254,0.106,54.016,150.512,53.771,1
2.900021,-0.238,-0.229,0.104,56.579,149.902,56.274,1
2.908409,-0.155,-0.203,0.103,57.983,150.085,58.715,1
2.916411,-0.077,-0.17,0.087,59.265,150.329,60.363,1
2.923028,-0.023,-0.116,0.074,60.974,150.634,62.499,1
2.930977,0.02,-0.073,0.048,64.331,150.451,63.72,1
2.93792,0.071,-0.04,0.026,71.289,149.841,65.185,1
2.94653,0.135,-0.008,0.0,79.101,148.559,66.467,1
2.953026,0.217,0.035,-0.028,92.773,146.423,67.932,1
2.961061,0.329,0.075,-0.07,109.191,143.981,69.702,1
2.967885,0.4,0.122,-0.124,125.549,141.479,71.533,1
2.974821,0.467,0.151,-0.191,136.108,137.268,73.181,1
2.983211,0.506,0.182,-0.236,140.441,135.009,74.279,1
2.989797,0.544,0.232,-0.314,139.526,132.507,75.622,1
2.997374,0.576,0.294,-0.367,135.192,129.455,76.599,1
3.005984,0.62,0.383,-0.434,130.798,126.831,76.599,1
3.012533,0.635,0.486,-0.511,126.159,124.572,75.622,1
3.021267,0.64,0.624,-0.622,119.995,121.032,74.096,1
3.027392,0.677,0.737,-0.698,115.478,116.699,71.96,1
3.035152,0.708,0.884,-0.786,118.835,110.656,68.847,1
3.04229,0.78,0.983,-0.846,120.666,105.224,64.758,1
3.050271,0.792,1.111,-0.89,116.271,100.83,60.791,1
3.057909,0.851,1.17,-0.938,111.022,94.604,56.335,1
3.06559,0.888,1.277,-0.953,114.929,90.576,50.903,1
3.072068,0.909,1.379,-0.969,124.45,84.96,45.166,1
3.079727,0.937,1.462,-0.961,138.183,80.627,38.879,1
3.087753,0.957,1.474,-0.965,149.719,76.232,33.081,1
3.095796,1.125,1.475,-0.958,155.151,71.594,26.916,1
3.102778,1.181,1.45,-0.951,155.578,67.382,21.972,1
3.111922,1.143,1.479,-0.895,159.79,64.697,16.906,1
3.119737,1.231,1.415,-0.916,171.386,58.654,11.596,1
3.127049,1.258,1.343,-0.856,176.025,54.87,7.69,1
3.133871,1.294,1.292,-0.851,176.147,52.368,4.211,1
3.141849,1.322,1.245,-0.824,175.72,50.048,1.281,1
3.150171,1.352,1.197,-0.799,177.185,47.424,-1.77,1
3.156621,1.371,1.146,-0.77,183.715,45.104,-4.333,1
3.165112,1.392,1.089,-0.745,193.603,42.541,-6.469,1
3.171601,1.384,1.041,-0.729,203.124,40.039,-8.666,1
3.180005,1.352,0.996,-0.677,212.646,38.574,-10.314,1
3.187837,1.288,0.955,-0.62,217.895,37.902,-12.451,1
3.194749,1.178,0.912,-0.55,216.125,39.367,-14.709,1
3.203241,1.096,0.898,-0.514,204.772,42.602,-17.761,1
3.211303,1.044,0.901,-0.492,194.885,44.616,-19.897,1
3.21776,1.004,0.902,-0.458,184.936,47.302,-22.949,1
3.225916,0.959,0.89,-0.446,180.725,49.072,-25.573,1
3.232414,0.938,0.869,-0.447,176.818,50.476,-27.832,1
3.240349,0.942,0.827,-0.45,172.729,51.269,-29.296,1
3.247254,0.956,0.801,-0.437,169.006,52.124,-31.127,1
3.255249,0.955,0.781,-0.419,170.776,52.978,-32.653,1
3.261865,0.999,0.766,-0.403,177.124,54.504,-33.874,1
3.268743,1.002,0.74,-0.424,179.504,55.664,-34.484,1
3.276734,0.953,0.729,-0.439,174.621,57.922,-35.339,1
3.284762,0.982,0.707,-0.441,162.536,60.546,-35.949,1
3.29291,0.961,0.681,-0.464,143.737,63.232,-36.499,1
3.299908,0.933,0.674,-0.458,120.727,66.101,-36.987,1
3.307745,0.906,0.683,-0.474,110.839,67.687,-37.048,1
3.315416,0.879,0.689,-0.484,113.159,67.138,-37.292,1
3.323107,0.856,0.679,-0.495,122.985,66.772,-37.231,1
3.33018,0.821,0.677,-0.518,135.009,65.734,-36.743,1
3.338356,0.765,0.681,-0.533,146.362,65.734,-37.048,1
3.344889,0.708,0.674,-0.538,154.113,65.368,-37.048,1
3.353298,0.668,0.674,-0.54,160.583,65.673,-37.109,1
3.360248,0.632,0.683,-0.547,164.001,66.101,-36.987,1
3.368668,0.599,0.691,-0.551,166.809,65.856,-36.804,1
3.376405,0.585,0.69,-0.541,170.654,65.673,-36.499,1
3.384351,0.577,0.688,-0.54,174.621,65.429,-35.461,1
3.390969,0.535,0.693,-0.537,179.016,65.185,-34.301,1
3.399395,0.567,0.686,-0.573,183.044,64.514,-33.02,1
3.407736,0.567,0.69,-0.586,182.739,64.147,-31.372,1
3.414353,0.56,0.695,-0.621,178.222,63.232,-30.029,1
3.422697,0.546,0.708,-0.624,174.499,62.499,-28.869,1
3.429176,0.531,0.726,-0.621,177.062,61.706,-28.137,1
3.437644,0.518,0.735,-0.62,184.326,61.096,-27.587,1
3.444402,0.522,0.73,-0.623,192.382,59.997,-27.038,1
3.452849,0.528,0.723,-0.628,195.007,59.326,-26.733,1
3.460911,0.538,0.71,-0.631,188.842,59.631,-26.306,1
3.468956,0.564,0.718,-0.636,176.757,59.875,-26.062,1
3.477253,0.609,0.739,-0.629,164.855,59.753,-25.756,1
3.484161,0.657,0.773,-0.619,163.635,58.593,-25.634,1
3.490926,0.707,0.806,-0.612,170.227,56.945,-25.329,1
3.499355,0.745,0.838,-0.619,179.565,54.748,-25.451,1
3.507114,0.762,0.851,-0.624,186.706,53.161,-25.512,1
3.513942,0.783,0.864,-0.623,190.185,51.696,-25.634,1
3.522378,0.777,0.869,-0.62,190.734,50.109,-25.939,1
3.528839,0.76,0.861,-0.597,187.194,49.011,-26.367,1
3.536919,0.761,0.856,-0.585,176.879,49.072,-26.733,1
3.545163,0.753,0.845,-0.574,161.254,48.889,-27.526,1
3.551755,0.755,0.832,-0.56,143.92,49.011,-28.686,1
3.560038,0.761,0.82,-0.543,129.211,49.011,-29.663,1
3.568443,0.764,0.81,-0.518,119.75,49.194,-30.822,1
3.576594,0.787,0.792,-0.505,113.586,49.133,-31.982,1
3.583066,0.808,0.776,-0.498,108.581,48.828,-33.386,1
3.590029,0.8,0.766,-0.487,103.515,49.133,-33.996,1
3.598195,0.819,0.756,-0.485,94.116,49.56,-35.4,1
3.604803,0.801,0.749,-0.468,82.336,49.804,-36.437,1
3.611756,0.781,0.752,-0.457,71.166,50.231,-37.597,1
3.618793,0.712,0.749,-0.465,58.959,50.354,-39.428,1
3.627011,0.675,0.762,-0.442,36.926,51.94,-40.588,1
3.634052,0.703,0.751,-0.474,17.883,52.429,-43.029,1
3.642539,0.605,0.758,-0.469,-4.638,53.527,-44.921,1
3.650556,0.703,0.747,-0.495,-15.563,52.917,-46.813,1
3.658839,0.65,0.747,-0.503,-11.901,51.269,-50.415,1
3.665881,0.519,0.707,-0.515,8.544,49.56,-53.405,1
3.672362,0.595,0.693,-0.532,42.175,44.616,-55.603,1
3.680361,0.696,0.61,-0.526,76.66,39.978,-57.617,1
3.686824,0.716,0.595,-0.512,101.623,37.719,-57.434,1
3.695198,0.81,0.527,-0.545,115.173,34.606,-57.922,1
3.701947,0.862,0.474,-0.505,117.431,34.301,-56.579,1
3.710904,0.942,0.438,-0.528,109.069,35.705,-54.931,1
3.717426,0.995,0.416,-0.528,88.745,36.193,-53.405,1
3.725083,1.02,0.408,-0.524,62.622,39.306,-51.269,1
3.732506,1.031,0.43,-0.544,38.635,40.039,-49.865,1
3.73943,1.019,0.454,-0.54,28.137,40.588,-48.4,1
3.747492,1.007,0.489,-0.549,32.958,39.062,-46.936,1
3.755194,0.992,0.514,-0.547,57.617,34.484,-44.555,1
3.763633,0.984,0.518,-0.544,86.73,31.311,-42.297,1
3.770205,0.972,0.521,-0.562,110.107,28.32,-39.916,1
3.776825,0.926,0.52,-0.575,118.286,26.672,-37.841,1
3.784661,0.88,0.537,-0.593,113.525,26.428,-35.705,1
3.79161,0.822,0.57,-0.612,99.487,26.123,-34.118,1
3.799953,0.769,0.614,-0.61,86.425,26.489,-32.836,1
3.80731,0.731,0.658,-0.623,78.979,25.695,-31.86,1
3.814213,0.704,0.691,-0.62,76.843,24.536,-31.494,1
3.823132,0.678,0.716,-0.628,78.43,23.193,-30.578,1
3.831091,0.664,0.733,-0.632,80.688,20.874,-29.541,1
3.837731,0.637,0.75,-0.642,80.566,19.531,-28.93,1
3.846047,0.613,0.771,-0.645,79.284,17.639,-28.686,1
3.852622,0.592,0.791,-0.632,80.017,16.174,-28.381,1
3.86045,0.579,0.811,-0.633,83.496,14.526,-28.259,1
3.8683,0.569,0.831,-0.621,89.416,12.634,-28.32,1
3.876589,0.566,0.833,-0.604,97.167,10.925,-28.869,1
3.885053,0.571,0.813,-0.587,104.431,9.155,-29.296,1
3.893014,0.588,0.783,-0.569,107.238,8.3,-29.479,1
3.900812,0.608,0.762,-0.565,105.163,8.056,-29.235,1
3.908963,0.625,0.734,-0.558,97.717,7.812,-29.418,1
3.915022,0.638,0.719,-0.552,87.951,8.178,-29.052,1
3.922914,0.65,0.698,-0.534,79.65,8.3,-28.808,1
3.931332,0.658,0.681,-0.525,73.73,8.239,-28.686,1
3.938995,0.649,0.674,-0.511,71.228,7.629,-28.32,1
3.946922,0.649,0.662,-0.485,73.608,7.019,-27.893,1
3.955157,0.655,0.638,-0.471,78.796,6.53,-27.221,1
3.962142,0.666,0.609,-0.452,81.787,6.103,-26.794,1
3.97031,0.685,0.585,-0.439,84.96,6.042,-25.756,1
3.976837,0.7,0.555,-0.428,85.51,6.042,-25.268,1
3.985133,0.69,0.543,-0.412,81.665,7.141,-24.047,1
3.993575,0.687,0.529,-0.417,74.584,7.751,-23.254,1
4.000299,0.705,0.5,-0.399,63.781,9.094,-22.521,1
4.007183,0.687,0.501,-0.382,52.734,10.62,-21.484,1
4.015362,0.698,0.5,-0.388,45.349,11.108,-20.629,1
4.022186,0.69,0.49,-0.353,39.489,12.695,-19.409,1
4.02908,0.683,0.491,-0.366,34.973,13.793,-18.31,1
4.03604,0.691,0.491,-0.357,33.508,13.977,-17.822,1
4.044513,0.698,0.485,-0.333,31.005,15.624,-16.906,1
4.051267,0.693,0.475,-0.343,29.418,15.869,-15.93,1
4.057918,0.693,0.476,-0.324,28.442,16.906,-14.892,1
4.066346,0.708,0.479,-0.325,27.832,17.883,-14.099,1
4.073116,0.707,0.473,-0.318,25.695,18.249,-13.732,1
4.081057,0.705,0.465,-0.298,21.789,19.836,-12.756,1
4.089395,0.708,0.456,-0.304,15.686,21.057,-11.901,1
4.097721,0.693,0.457,-0.287,12.634,22.277,-10.986,1
4.104154,0.689,0.455,-0.288,10.803,22.766,-10.314,1
4.112134,0.68,0.453,-0.273,11.047,23.132,-9.521,1
4.118662,0.683,0.449,-0.266,12.573,24.23,-8.666,1
4.126579,0.718,0.456,-0.258,13.122,24.719,-7.934,1
4.133791,0.705,0.46,-0.254,16.723,25.817,-7.446,1
4.142807,0.688,0.47,-0.256,18.371,25.146,-6.835,1
4.149674,0.689,0.479,-0.248,24.108,25.512,-6.347,1
4.1575,0.689,0.503,-0.254,33.752,24.047,-6.103,1
4.165285,0.683,0.523,-0.245,49.316,22.705,-5.92,1
4.172462,0.687,0.52,-0.238,67.321,20.935,-5.615,1
4.180313,0.669,0.428,-0.259,77.575,18.92,-3.845,1
4.187078,0.805,0.472,-0.234,83.801,19.409,-4.089,1
4.195542,0.82,0.479,-0.227,80.505,18.981,-3.845,1
4.202469,0.817,0.481,-0.228,69.091,20.324,-4.882,1
4.210359,0.783,0.45,-0.217,49.255,21.911,-4.516,1
4.217347,0.811,0.494,-0.199,29.479,24.536,-4.821,1
4.225727,0.818,0.48,-0.198,14.709,24.841,-4.943,1
4.232202,0.811,0.433,-0.184,2.563,27.282,-4.211,1
4.239093,0.871,0.542,-0.171,4.15,27.832,-5.737,1
4.247033,0.833,0.518,-0.168,15.686,26.489,-5.92,1
4.255591,0.864,0.531,-0.168,27.221,27.038,-5.737,1
4.262363,0.891,0.52,-0.191,36.926,24.902,-5.859,1
4.270665,0.908,0.504,-0.177,37.231,26.489,-5.31,1
4.277038,0.913,0.495,-0.197,30.273,26.977,-5.432,1
4.286331,0.904,0.497,-0.187,19.897,27.893,-5.615,1
4.292946,0.9,0.504,-0.194,10.375,29.785,-5.676,1
4.299734,0.878,0.513,-0.195,0.305,30.456,-6.164,1
4.308138,0.871,0.521,-0.196,-7.934,32.104,-6.103,1
4.315086,0.858,0.541,-0.215,-11.169,32.165,-6.469,1
4.324815,0.844,0.559,-0.209,-7.507,32.104,-6.713,1
4.332281,0.799,0.549,-0.216,-6.286,31.799,-7.568,1
4.338753,0.797,0.553,-0.219,-2.746,32.958,-7.568,1
4.347535,0.879,0.575,-0.226,9.399,31.127,-8.178,1
4.354065,0.857,0.566,-0.217,24.169,30.822,-8.117,1
4.362201,0.836,0.567,-0.244,33.02,29.968,-7.69,1
4.370497,0.827,0.567,-0.242,39.062,28.991,-7.995,1
4.377423,0.816,0.558,-0.251,38.208,30.09,-7.934,1
4.385743,0.821,0.554,-0.268,31.066,29.602,-8.239,1
4.392763,0.82,0.549,-0.269,22.338,31.494,-8.422,1
4.399665,0.817,0.549,-0.287,12.878,31.982,-8.666,1
4.407682,0.817,0.547,-0.291,4.638,32.287,-8.666,1
4.414231,0.82,0.552,-0.297,-0.488,32.958,-8.911,1
4.422863,0.814,0.546,-0.311,-5.065,32.714,-9.46,1
4.431156,0.806,0.551,-0.313,-7.934,33.142,-9.643,1
4.43902,0.811,0.558,-0.323,-7.202,32.47,-9.765,1
4.447436,0.81,0.557,-0.322,-3.051,31.921,-10.07,1
4.454097,0.819,0.564,-0.338,3.601,31.066,-10.314,1
4.462083,0.819,0.563,-0.344,8.178,30.517,-10.803,1
4.470495,0.814,0.561,-0.361,9.46,30.212,-10.742,1
4.476971,0.81,0.554,-0.378,8.056,29.663,-11.108,1
4.485496,0.803,0.55,-0.383,5.554,29.602,-11.291,1
4.492266,0.804,0.55,-0.403,2.014,29.357,-11.718,1
4.500718,0.808,0.549,-0.406,-1.586,28.747,-11.718,1
4.508267,0.804,0.546,-0.417,-4.821,28.808,-11.901,1
4.516648,0.803,0.546,-0.421,-8.178,28.015,-12.573,1
4.523219,0.793,0.557,-0.428,-9.155,27.954,-12.756,1
4.531127,0.779,0.57,-0.442,-6.591,26.977,-13.549,1
4.539502,0.755,0.569,-0.457,-0.671,25.146,-13.671,1
4.547498,0.741,0.571,-0.48,8.239,23.193,-14.404,1
4.554236,0.729,0.572,-0.497,16.113,20.935,-14.709,1
4.56213,0.73,0.561,-0.515,21.484,19.042,-15.197,1
4.570024,0.743,0.541,-0.526,22.033,16.967,-15.808,1
4.57764,0.76,0.513,-0.531,17.333,15.38,-16.113,1
4.585829,0.787,0.485,-0.533,9.399,14.221,-16.601,1
4.594101,0.809,0.446,-0.531,-0.976,13.366,-16.784,1
4.600168,0.834,0.415,-0.538,-11.84,12.573,-16.479,1
4.608106,0.871,0.382,-0.538,-20.141,11.413,-15.563,1
4.616608,0.913,0.341,-0.557,-27.709,10.681,-14.16,1
4.623091,0.912,0.31,-0.583,-31.188,8.789,-12.084,1
4.631471,0.941,0.296,-0.586,-19.592,4.394,-7.934,1
4.639523,1.015,0.28,-0.587,3.54,-0.305,-4.76,1
4.647665,1.071,0.266,-0.574,32.775,-5.859,-1.342,1
4.654336,1.082,0.241,-0.56,59.326,-9.826,2.197,1
4.662901,1.033,0.219,-0.562,71.777,-12.329,5.126,1
4.669397,0.979,0.197,-0.567,63.415,-12.39,7.873,1
4.677861,0.937,0.194,-0.559,38.94,-10.375,10.559,1
4.686041,0.895,0.219,-0.545,7.995,-7.08,12.329,1
4.692473,0.849,0.26,-0.54,-22.277,-2.929,13.793,1
4.700923,0.793,0.34,-0.539,-44.677,0.305,14.587,1
4.707418,0.75,0.398,-0.54,-54.321,2.929,14.404,1
4.715744,0.694,0.458,-0.549,-54.931,4.577,13.671,1
4.724169,0.643,0.497,-0.562,-52.062,5.676,12.756,1
4.732512,0.66,0.507,-0.57,-49.865,6.591,11.596,1
4.739272,0.693,0.515,-0.576,-54.748,7.995,10.559,1
4.747261,0.723,0.538,-0.594,-69.885,9.643,9.399,1
4.755738,0.702,0.578,-0.601,-90.698,11.657,7.751,1
4.762355,0.68,0.636,-0.594,-109.313,13.366,5.798,1
4.77067,0.672,0.687,-0.59,-121.582,14.16,3.356,1
4.776953,0.671,0.76,-0.579,-122.192,14.038,0.427,1
4.785258,0.671,0.83,-0.573,-107.971,11.901,-3.173,1
4.793161,0.701,0.866,-0.559,-83.251,8.666,-7.263,1
4.80131,0.753,0.888,-0.56,-54.748,5.065,-11.108,1
4.808069,0.834,0.886,-0.558,-32.104,1.647,-14.831,1
4.816055,0.916,0.893,-0.561,-21.362,-0.61,-19.287,1
4.824572,0.971,0.907,-0.55,-24.658,-2.502,-23.62,1
4.832887,1.02,0.93,-0.52,-36.804,-2.38,-28.32,1
4.841492,1.07,0.979,-0.504,-52.307,-2.075,-33.203,1
4.848592,1.097,1.048,-0.475,-71.716,-2.014,-39.733,1
4.857752,1.129,1.11,-0.459,-78.369,-3.295,-45.593,1
4.865758,1.132,1.179,-0.441,-68.481,-6.652,-52.001,1
4.872618,1.172,1.227,-0.434,-39.55,-11.474,-58.837,1
4.88109,1.216,1.241,-0.44,-13.183,-17.028,-65.551,1
4.888041,1.24,1.232,-0.434,3.173,-20.874,-71.533,1
4.89644,1.205,1.219,-0.448,2.441,-23.742,-77.209,1
4.903644,1.258,1.275,-0.438,-5.676,-26.123,-82.031,1
4.912164,1.264,1.278,-0.448,-16.601,-31.188,-88.562,1
4.920396,1.225,1.354,-0.427,-20.324,-33.996,-93.688,1
4.928576,1.334,1.812,-0.463,17.211,-42.541,-99.609,1
4.935207,1.072,1.714,-0.4,57.556,-59.265,-102.783,1
4.943664,1.06,1.332,-0.577,84.35,-60.607,-105.834,1
4.950365,1.329,1.83,-0.404,105.224,-71.044,-117.492,1
4.957237,1.003,1.858,-0.366,145.019,-77.392,-121.215,1
4.964648,1.074,1.709,-0.492,164.672,-79.956,-125.732,1
4.973064,1.114,1.614,-0.519,154.052,-85.693,-132.995,1
4.980715,1.048,1.608,-0.538,138.671,-80.566,-138.366,1
4.987495,1.029,1.604,-0.669,115.844,-78.857,-145.874,1
4.995743,0.837,1.596,-0.676,103.881,-79.895,-153.747,1
5.003658,1.029,1.535,-0.676,131.103,-81.542,-160.522,1
5.010135,0.631,1.414,-0.788,153.808,-80.139,-168.395,1
5.018531,0.671,1.32,-0.909,136.657,-79.101,-175.598,1
5.027001,0.62,1.216,-0.958,103.637,-76.538,-180.969,1
5.034864,0.548,1.172,-1.034,57.617,-73.791,-187.438,1
5.042875,0.435,1.132,-1.071,38.391,-76.66,-192.993,1
5.049342,0.403,1.021,-1.102,35.888,-79.65,-198.242,1
5.057727,0.364,0.889,-1.174,29.846,-83.374,-201.904,1
5.066172,0.314,0.774,-1.188,17.456,-87.341,-203.674,1
5.074305,0.251,0.726,-1.181,15.686,-92.773,-204.223,1
5.082557,0.238,0.691,-1.168,36.071,-99.975,-205.261,1
5.090689,0.226,0.625,-1.14,68.115,-106.872,-206.542,1
5.097306,0.229,0.528,-1.125,107.177,-114.44,-208.19,1
5.105437,0.216,0.414,-1.059,138.366,-120.666,-210.51,1
5.113698,0.369,0.247,-0.966,159.057,-122.192,-212.097,1
5.120275,0.465,0.105,-0.901,161.071,-120.3,-212.89,1
5.128558,0.509,0.012,-0.832,151.55,-118.652,-213.806,1
5.136517,0.547,-0.048,-0.725,145.019,-115.661,-213.256,1
5.144673,0.542,-0.055,-0.657,146.301,-112.182,-212.585,1
5.153011,0.541,-0.045,-0.564,156.86,-110.351,-212.158,1
5.159753,0.41,-0.05,-0.495,165.649,-105.163,-211.608,1
5.168225,0.272,-0.06,-0.438,158.813,-99.609,-211.425,1
5.176459,0.15,-0.117,-0.377,135.437,-92.407,-210.632,1
5.184538,0.058,-0.166,-0.304,96.984,-83.374,-208.74,1
5.192552,-0.005,-0.143,-0.232,50.598,-72.631,-207.214,1
5.199097,-0.096,-0.042,-0.174,32.47,-68.054,-207.58,1
5.207361,-0.222,-0.004,-0.102,43.701,-65.307,-208.984,1
5.215663,-0.338,-0.041,-0.056,59.997,-62.744,-209.838,1
5.223552,-0.441,-0.108,0.012,65.002,-56.64,-209.96,1
5.230296,-0.577,-0.189,0.03,52.856,-51.635,-210.876,1
5.238663,-0.738,-0.235,0.132,34.79,-41.992,-211.059,1
5.246627,-0.821,-0.303,0.168,24.536,-36.437,-210.876,1
5.254932,-0.86,-0.381,0.289,23.071,-30.212,-210.815,1
5.261647,-0.998,-0.476,0.39,28.015,-23.01,-209.472,1
5.270183,-1.197,-0.561,0.548,44.189,-15.38,-206.726,1
5.277952,-1.277,-0.7,0.645,80.688,-7.568,-203.918,1
5.286634,-1.265,-0.99,0.767,103.881,0.244,-199.035,1
5.293204,-1.209,-1.444,0.901,95.397,13.244,-190.673,1
5.301654,-1.135,-1.759,1.05,56.762,29.052,-178.161,1
5.310115,-1.154,-2.003,1.151,15.075,49.499,-159.973,1
5.316538,-1.253,-2.19,1.235,1.037,64.514,-142.944,1
5.323739,-1.222,-2.423,1.308,7.08,78.552,-124.328,1
5.331441,-1.183,-2.676,1.368,20.263,93.811,-103.515,1
5.339784,-1.312,-2.9,1.395,25.146,110.168,-79.589,1
5.346661,-1.495,-3.058,1.443,27.16,126.586,-53.894,1
5.355749,-1.639,-3.23,1.456,27.343,144.287,-26.489,1
5.361997,-1.829,-3.334,1.456,24.475,162.353,2.685,1
5.369727,-2.09,-3.413,1.437,17.883,181.03,32.958,1
5.377745,-2.392,-3.479,1.428,-1.586,199.645,64.086,1
5.386117,-2.792,-3.467,1.493,-26.367,221.923,94.909,1
5.394372,-3.188,-3.417,1.487,-29.296,244.018,124.45,1
5.40137,-3.699,-3.371,1.494,-29.785,270.324,160.278,1
5.409668,-4.144,-3.352,1.429,-40.588,294.433,191.833,1
5.418128,-4.588,-3.312,1.403,-44.555,319.091,224.487,1
5.424128,-5.109,-3.262,1.297,-38.269,342.773,258.422,1
5.432416,-5.643,-3.251,1.153,-37.475,367.126,292.846,1
5.439786,-6.401,-3.264,0.956,-60.18,393.676,328.552,1
5.448057,-7.147,-3.2,0.781,-113.708,430.908,368.957,1
5.455774,-7.968,-3.078,0.573,-145.507,462.402,401.916,1
5.462684,-8.964,-2.945,0.382,-156.372,494.873,435.302,1
5.470994,-10.088,-2.807,0.134,-142.517,525.085,470.092,1
5.477907,-11.315,-2.665,-0.104,-109.13,547.729,501.098,1
5.485753,-12.779,-2.573,-0.42,-41.687,573.791,551.94,1
5.493754,-14.221,-2.469,-0.748,42.907,586.608,604.736,1
5.502093,-15.528,-2.471,-1.224,145.385,590.087,667.785,1
5.508826,-15.994,-2.59,-1.735,203.247,578.674,740.173,1
5.517189,-15.999,-2.543,-2.169,260.437,561.584,821.777,1
5.524787,-15.999,-2.367,-2.734,343.444,518.188,908.386,1
5.531535,-15.999,-2.086,-3.046,430.664,453.186,1000.854,1
5.53997,-15.999,-1.649,-3.176,522.949,365.966,1095.764,1
5.548189,-15.999,-1.097,-3.009,623.23,254.516,1189.941,1
5.55488,-15.999,-0.54,-2.998,721.984,120.361,1277.771,1
5.563168,-15.999,0.287,-2.792,811.279,-43.64,1351.562,1
5.570165,-15.999,1.112,-2.118,881.957,-221.313,1404.113,1
5.578735,-15.999,2.195,-1.413,936.584,-441.223,1430.419,1
5.586575,-15.999,3.294,-0.501,968.078,-627.197,1418.151,1
5.593333,-15.999,3.928,0.396,942.565,-805.786,1373.413,1
5.601122,-15.999,4.297,1.683,892.15,-975.402,1311.096,1
5.609081,-15.999,4.89,3.307,894.042,-1114.013,1230.224,1
5.615605,-15.999,5.914,4.743,993.041,-1249.328,1117.065,1
5.623893,-15.999,7.012,5.674,1244.934,-1388.061,939.147,1
5.630865,-15.999,6.595,5.932,1455.2,-1518.432,697.021,1
5.638902,-15.999,6.334,6.209,1416.686,-1582.336,427.917,1
5.647187,-15.999,6.359,6.462,1386.23,-1587.158,164.855,1
5.655249,-15.999,5.113,6.166,1394.226,-1549.072,-91.003,1
5.661549,-15.999,3.633,5.807,1264.282,-1425.72,-310.852,1
5.669949,-15.999,2.62,5.452,1049.621,-1287.231,-479.309,1
5.678441,-15.999,1.976,4.869,911.437,-1143.249,-602.539,1
5.685105,-15.999,1.709,4.33,831.481,-1014.465,-699.401,1
5.692998,-15.999,1.22,3.663,753.173,-852.416,-784.973,1
5.701094,-15.999,0.989,3.123,640.075,-744.995,-840.698,1
5.709425,-15.999,0.545,3.054,545.532,-633.056,-868.835,1
5.718746,-15.999,-0.065,2.958,453.369,-535.522,-879.272,1
5.726746,-15.999,-0.522,3.275,427.734,-448.974,-870.849,1
5.73366,-15.999,-1.12,3.232,437.499,-357.788,-852.783,1
5.742853,-15.963,-1.553,3.169,409.301,-278.076,-826.599,1
5.749706,-14.93,-1.865,3.029,371.52,-212.646,-795.959,1
5.75766,-13.12,-2.274,2.943,334.411,-147.705,-759.521,1
5.764763,-11.253,-2.746,2.722,260.742,-82.641,-714.355,1
5.773088,-9.51,-3.129,2.561,193.054,-36.315,-678.771,1
5.779586,-8.645,-3.309,2.303,145.874,2.685,-636.657,1
5.787482,-8.007,-3.064,2.126,191.894,26.977,-592.285,1
5.795959,-7.503,-3.106,1.821,267.395,52.001,-547.119,1
5.803877,-6.766,-3.223,1.475,280.09,84.411,-493.469,1
5.811642,-6.328,-3.086,1.164,250.549,113.464,-449.523,1
5.819755,-5.842,-2.939,0.914,220.336,134.033,-408.508,1
5.826502,-5.38,-2.911,0.669,181.091,152.954,-370.117,1
5.833492,-4.892,-2.913,0.485,126.647,167.48,-334.228,1
5.841589,-4.346,-2.877,0.338,83.862,177.185,-300.781,1
5.848512,-3.789,-2.805,0.227,67.81,180.603,-269.042,1
5.856852,-3.315,-2.806,0.097,71.655,179.687,-238.952,1
5.863755,-2.965,-2.79,0.073,73.181,177.551,-209.838,1
5.871714,-2.651,-2.759,0.048,73.059,178.894,-182.006,1
5.878603,-2.3,-2.696,-0.008,73.425,176.757,-155.578,1
5.88647,-1.998,-2.584,-0.046,78.918,174.743,-129.821,1
5.894854,-1.802,-2.472,-0.115,80.444,171.691,-105.895,1
5.903129,-1.653,-2.363,-0.133,73.974,168.945,-83.557,1
5.910998,-1.439,-2.225,-0.184,64.025,166.137,-62.988,1
5.919142,-1.24,-2.104,-0.201,57.434,161.315,-43.762,1
5.927538,-1.029,-1.977,-0.233,55.969,154.785,-22.583,1
5.934208,-0.827,-1.808,-0.249,57.556,147.46,-5.554,1
5.942294,-0.707,-1.641,-0.25,64.697,140.136,10.192,1
5.949104,-0.596,-1.484,-0.245,76.66,131.408,24.536,1
5.956983,-0.491,-1.367,-0.219,87.28,123.84,37.963,1
5.96553,-0.387,-1.185,-0.182,93.749,117.248,50.598,1
5.972145,-0.327,-1.002,-0.146,97.106,109.985,62.988,1
5.980242,-0.302,-0.822,-0.107,99.243,104.736,72.082,1
5.987948,-0.292,-0.67,-0.062,101.013,99.487,79.65,1
5.996266,-0.256,-0.53,-0.017,102.844,95.275,86.12,1
6.004496,-0.178,-0.385,0.014,102.416,91.003,92.285,1
6.012312,-0.123,-0.272,0.022,99.06,87.097,96.618,1
6.019061,-0.091,-0.168,0.051,92.529,83.312,99.792,1
6.02711,-0.093,-0.076,0.075,85.388,79.895,101.318,1
6.034819,0.004,-0.016,0.096,79.345,77.209,102.539,1
6.041761,0.095,0.031,0.127,77.087,73.669,103.149,1
6.049937,0.205,0.066,0.167,79.833,70.8,103.271,1
6.056479,0.305,0.087,0.185,85.327,68.847,103.271,1
6.064818,0.38,0.088,0.198,89.965,66.162,103.027,1
6.072884,0.424,0.106,0.207,91.796,64.514,103.027,1
6.079984,0.49,0.132,0.2,95.458,62.927,102.844,1
6.086673,0.528,0.169,0.203,95.031,60.913,102.355,1
6.094105,0.47,0.233,0.187,94.299,59.509,100.585,1
6.102004,0.579,0.254,0.157,93.811,56.945,99.182,1
6.108626,0.565,0.274,0.15,93.383,55.114,96.801,1
6.11661,0.573,0.302,0.132,89.599,52.612,93.688,1
6.123612,0.6,0.281,0.157,84.167,51.147,91.064,1
6.132236,0.657,0.269,0.137,75.561,50.231,88.745,1
6.138913,0.732,0.251,0.125,65.307,48.217,86.181,1
6.145338,0.797,0.238,0.118,58.593,47.79,84.533,1
6.152077,0.89,0.238,0.11,57.128,46.02,83.251,1
6.160424,0.945,0.261,0.123,63.171,43.64,82.092,1
6.166858,0.991,0.278,0.125,75.439,41.564,80.81,1
6.175072,1.045,0.283,0.125,83.312,39.367,79.833,1
6.181609,1.062,0.261,0.127,85.998,37.963,79.467,1
6.189852,1.113,0.309,0.132,86.73,37.414,79.04,1
6.196407,1.145,0.327,0.131,82.763,34.79,78.186,1
6.20338,1.136,0.359,0.138,80.261,34.606,77.575,1
6.211909,1.144,0.38,0.144,77.697,32.897,76.66,1
6.218362,1.166,0.385,0.153,75.744,32.714,77.087,1
6.225243,1.169,0.433,0.125,82.763,32.104,76.354,1
6.233554,1.186,0.451,0.116,91.613,28.686,74.89,1
6.240431,1.171,0.454,0.108,100.097,26.977,74.218,1
6.248605,1.115,0.484,0.111,109.863,23.498,73.608,1
6.255432,1.188,0.501,0.119,124.816,20.751,73.242,1
6.262042,1.197,0.524,0.122,132.873,18.493,72.937,1
6.268933,1.166,0.544,0.159,140.869,15.014,72.448,1
6.277321,1.25,0.548,0.196,146.545,13.244,72.448,1
6.283882,1.222,0.585,0.234,147.827,13.244,72.265,1
6.29224,1.342,0.58,0.256,146.362,12.207,71.594,1
6.298914,1.354,0.607,0.296,142.7,12.145,71.35,1
6.305898,1.414,0.601,0.312,136.901,11.657,71.105,1
6.312819,1.427,0.611,0.338,125.793,12.207,70.617,1
6.320914,1.405,0.642,0.364,108.764,13.732,70.678,1
6.327523,1.369,0.707,0.419,95.458,14.648,70.068,1
6.334464,1.307,0.786,0.483,94.787,16.357,69.213,1
6.341291,1.247,0.838,0.52,104.492,17.15,67.932,1
6.349148,1.183,0.868,0.568,116.516,18.981,66.589,1
6.356147,1.097,0.935,0.589,124.511,20.568,65.551,1
6.362897,1.034,0.975,0.628,132.751,22.46,64.208,1
6.370986,1.006,1.007,0.635,135.864,25.695,62.561,1
6.377409,0.953,1.034,0.635,133.056,28.137,60.729,1
6.384345,0.909,1.039,0.633,125.122,32.47,57.739,1
6.391353,0.885,1.044,0.614,116.088,36.499,55.603,1
6.398575,0.855,1.058,0.596,105.407,40.405,52.001,1
6.405965,0.796,1.082,0.589,100.097,44.738,48.461,1
6.412817,0.752,1.117,0.579,99.243,47.302,45.043,1
6.419753,0.715,1.14,0.57,104.675,50.354,40.527,1
6.426484,0.687,1.147,0.544,112.243,52.307,36.743,1
6.43467,0.666,1.126,0.51,119.445,54.443,32.409,1
6.441126,0.653,1.088,0.465,120.971,56.945,28.442,1
6.447997,0.651,1.065,0.429,120.483,58.959,25.268,1
6.45493,0.652,1.035,0.379,120.178,61.035,22.338,1
6.461838,0.645,1.008,0.344,120.544,62.316,19.531,1
6.46881,0.631,0.976,0.302,121.826,63.842,17.15,1
6.477112,0.655,0.951,0.264,126.281,64.453,14.343,1
6.484293,0.621,0.923,0.225,134.155,64.331,12.451,1
6.491078,0.6,0.867,0.207,139.465,63.964,10.681,1
6.498226,0.586,0.826,0.197,141.235,65.002,10.253,1
6.505019,0.58,0.795,0.174,138.122,65.185,9.887,1
6.512024,0.576,0.775,0.17,132.812,66.528,9.826,1
6.520324,0.567,0.761,0.15,129.455,67.626,10.07,1
6.52718,0.537,0.742,0.136,125.549,68.237,10.131,1
6.535456,0.517,0.717,0.107,122.314,69.213,10.375,1
6.542339,0.477,0.687,0.081,121.093,68.969,10.314,1
6.550729,0.433,0.645,0.066,121.459,68.725,10.986,1
6.557226,0.41,0.592,0.049,121.154,68.542,11.474,1
6.565653,0.396,0.567,0.056,121.337,68.176,13.244,1
6.572172,0.375,0.536,0.068,122.68,68.481,14.831,1
6.578907,0.38,0.496,0.078,120.849,69.03,16.601,1
6.587336,0.404,0.454,0.08,112.915,70.678,18.859,1
6.594367,0.458,0.417,0.074,101.867,72.753,21.24,1
6.60126,0.474,0.411,0.082,92.59,74.279,23.01,1
6.608375,0.505,0.388,0.08,82.702,77.209,26.0,1
6.616801,0.521,0.358,0.063,72.387,80.261,28.625,1
6.623596,0.563,0.371,0.042,61.096,82.763,30.7,1
6.631891,0.561,0.36,0.032,54.26,85.754,32.226,1
6.638508,0.599,0.353,0.011,49.743,87.829,34.057,1
6.646051,0.673,0.366,-0.017,53.771,88.378,36.315,1
6.654375,0.745,0.38,-0.025,68.359,88.073,38.024,1
6.661207,0.811,0.37,-0.055,84.777,86.425,40.344,1
6.669502,0.867,0.358,-0.067,97.473,86.181,43.579,1
6.676255,0.917,0.351,-0.102,103.393,85.998,46.691,1
6.684567,0.961,0.363,-0.122,104.125,86.73,49.743,1
6.69129,0.995,0.373,-0.151,101.806,87.646,52.856,1
6.698282,1.023,0.391,-0.159,98.571,88.806,55.236,1
6.70619,1.036,0.424,-0.178,93.505,90.881,57.739,1
6.713917,1.037,0.46,-0.192,88.745,92.834,59.814,1
6.721734,1.042,0.493,-0.212,86.486,95.092,61.523,1
6.728594,1.039,0.535,-0.242,86.364,96.435,62.683,1
6.736906,1.048,0.585,-0.261,92.712,97.412,64.086,1
6.743367,1.04,0.649,-0.297,105.224,97.229,64.575,1
6.751815,1.013,0.717,-0.328,121.704,96.13,65.246,1
6.758302,0.973,0.769,-0.366,134.521,95.275,65.429,1
6.765245,0.936,0.801,-0.396,145.812,94.177,65.368,1
6.772869,0.905,0.815,-0.433,151.367,93.139,65.551,1
6.779972,0.893,0.92,-0.455,162.902,92.834,65.368,1
6.787919,0.826,0.885,-0.507,168.884,88.317,65.307,1
6.794733,0.738,0.922,-0.474,170.104,90.942,65.917,1
6.801632,0.745,0.927,-0.564,165.466,89.904,66.162,1
6.808769,0.695,0.965,-0.545,160.827,87.951,65.673,1
6.815861,0.672,0.979,-0.563,158.996,88.134,66.101,1
6.824115,0.663,1.017,-0.59,162.414,85.876,65.368,1
6.83131,0.582,1.018,-0.571,162.658,83.923,65.856,1
6.83972,0.524,1.062,-0.576,170.471,82.763,66.284,1
6.846298,0.509,1.078,-0.587,180.603,79.345,65.673,1
6.855144,0.493,1.136,-0.592,197.204,77.026,65.185,1
6.861726,0.446,1.116,-0.625,196.411,73.425,64.331,1
6.870122,0.414,1.099,-0.638,171.813,73.73,64.392,1
6.878243,0.437,1.129,-0.69,130.432,74.34,63.354,1
6.884848,0.372,1.178,-0.694,84.838,75.744,61.462,1
6.893121,0.368,1.211,-0.701,46.264,77.27,58.837,1
6.900446,0.378,1.224,-0.694,17.639,77.087,54.748,1
6.907042,0.388,1.216,-0.673,-1.953,77.819,51.086,1
6.915846,0.455,1.231,-0.665,-1.525,77.331,46.63,1
6.923436,0.467,1.083,-0.66,3.234,73.608,44.616,1
6.930566,0.506,1.238,-0.594,33.142,74.279,39.611,1
6.93885,0.247,1.161,-0.625,58.471,68.359,35.4,1
6.945264,0.277,1.113,-0.558,74.646,69.519,32.531,1
6.953758,0.331,1.057,-0.597,73.913,68.542,29.968,1
6.96042,0.308,1.021,-0.555,59.692,68.847,27.465,1
6.968741,0.294,0.997,-0.551,40.161,71.899,25.878,1
6.975069,0.294,0.993,-0.555,18.554,72.814,23.254,1
6.98351,0.304,0.982,-0.524,1.159,75.378,21.484,1
6.990478,0.338,0.988,-0.54,-9.033,76.416,19.287,1
6.998854,0.347,0.986,-0.524,-16.662,76.477,16.967,1
7.007318,0.385,0.985,-0.529,-23.01,79.223,14.099,1
7.0139,0.374,0.979,-0.544,-40.283,79.711,10.986,1
7.021795,0.396,1.016,-0.493,-48.156,82.153,8.422,1
7.028994,0.417,1.044,-0.515,-48.461,83.251,5.981,1
7.037496,0.413,1.057,-0.501,-45.288,82.153,2.99,1
7.044001,0.437,1.047,-0.481,-38.513,82.763,0.549,1
7.052259,0.455,1.051,-0.496,-34.484,82.153,-1.647,1
7.06061,0.446,1.054,-0.489,-33.996,81.604,-3.845,1
7.068653,0.476,1.077,-0.485,-32.897,81.42,-5.981,1
7.075297,0.477,1.082,-0.484,-29.663,79.956,-7.934,1
7.083712,0.443,1.051,-0.494,-26.367,79.284,-9.216,1
7.091697,0.579,1.159,-0.459,-18.005,77.331,-12.39,1
7.098362,0.472,1.105,-0.449,-4.272,75.012,-13.366,1
7.10632,0.531,1.078,-0.469,5.798,72.753,-15.258,1
7.113461,0.528,1.066,-0.447,10.498,71.166,-16.784,1
7.121984,0.531,1.066,-0.453,13.854,70.312,-17.333,1
7.128697,0.527,1.066,-0.453,18.188,68.298,-18.92,1
7.135677,0.52,1.059,-0.454,23.437,66.772,-20.263,1
7.143743,0.533,1.05,-0.464,29.418,64.941,-21.423,1
7.151619,0.543,1.041,-0.454,36.499,62.805,-22.705,1
7.159942,0.552,1.041,-0.453,43.823,60.913,-23.681,1
7.166849,0.561,1.048,-0.455,44.616,60.546,-24.78,1
7.173839,0.553,1.066,-0.454,41.992,60.241,-25.939,1
7.182052,0.549,1.081,-0.456,37.658,60.363,-27.648,1
7.190427,0.537,1.099,-0.455,35.4,60.485,-29.663,1
7.197367,0.53,1.11,-0.461,35.705,60.485,-31.921,1
7.205681,0.525,1.121,-0.467,39.306,59.753,-34.851,1
7.213336,0.51,1.129,-0.479,44.372,59.082,-37.292,1
7.219907,0.491,1.119,-0.483,50.292,58.105,-39.428,1
7.227686,0.483,1.11,-0.491,55.603,56.945,-41.87,1
7.236492,0.478,1.088,-0.482,59.143,56.518,-44.189,1
7.244578,0.485,1.065,-0.472,58.959,56.762,-46.264,1
7.25109,0.484,1.037,-0.457,54.077,58.166,-47.912,1
7.259481,0.481,1.025,-0.453,46.203,59.814,-49.987,1
7.266076,0.475,1.012,-0.447,37.17,61.95,-51.757,1
7.274911,0.467,1.0,-0.448,28.808,64.025,-53.833,1
7.281451,0.458,0.993,-0.456,22.399,65.612,-55.786,1
7.288452,0.443,0.988,-0.475,18.371,66.955,-57.617,1
7.296392,0.416,0.972,-0.49,14.404,68.237,-59.387,1
7.304881,0.399,0.956,-0.505,12.512,68.725,-61.035,1
7.313124,0.395,0.939,-0.526,13.549,68.969,-62.377,1
7.319875,0.39,0.922,-0.536,15.686,68.542,-63.72,1
7.327919,0.393,0.918,-0.541,17.883,68.176,-64.636,1
7.335157,0.385,0.916,-0.547,22.155,67.565,-65.612,1
7.342916,0.388,0.904,-0.559,25.085,66.955,-66.711,1
7.352953,0.395,0.882,-0.563,25.146,66.528,-67.626,1
7.360977,0.417,0.864,-0.577,23.01,66.101,-68.603,1
7.367743,0.432,0.847,-0.577,21.606,65.124,-69.458,1
7.376241,0.453,0.83,-0.591,20.629,64.27,-70.129,1
7.382884,0.463,0.824,-0.596,23.315,62.866,-70.495,1
7.390796,0.474,0.801,-0.606,31.494,60.424,-71.044,1
7.399266,0.475,0.79,-0.609,41.564,58.105,-71.044,1
7.405984,0.478,0.782,-0.62,51.33,55.786,-70.739,1
7.413734,0.482,0.759,-0.632,57.678,54.443,-70.922,1
7.421553,0.49,0.745,-0.641,59.143,52.917,-70.739,1
7.429933,0.494,0.741,-0.655,56.579,52.49,-70.678,1
7.437753,0.498,0.731,-0.659,51.33,51.818,-70.495,1
7.445593,0.499,0.722,-0.671,46.264,50.842,-70.434,1
7.453661,0.505,0.714,-0.671,44.067,49.377,-70.312,1
7.461944,0.52,0.706,-0.677,46.569,47.18,-70.068,1
7.468734,0.537,0.686,-0.669,53.039,44.982,-69.274,1
7.476708,0.547,0.676,-0.661,62.377,42.602,-68.664,1
7.483356,0.551,0.665,-0.653,70.739,41.076,-67.81,1
7.491353,0.55,0.653,-0.65,75.622,40.039,-67.321,1
7.498347,0.547,0.642,-0.65,75.622,39.428,-66.711,1
7.506647,0.546,0.637,-0.646,72.448,39.428,-66.406,1
7.51473,0.539,0.626,-0.656,66.406,39.672,-66.101,1
7.521225,0.538,0.618,-0.672,55.297,40.161,-66.101,1
7.529546,0.539,0.61,-0.677,42.297,40.71,-65.917,1
7.537929,0.534,0.606,-0.683,30.029,40.466,-66.04,1
7.544491,0.529,0.603,-0.683,23.498,39.672,-65.917,1
7.552369,0.526,0.603,-0.675,23.498,38.208,-65.917,1
7.559251,0.53,0.601,-0.669,30.273,36.254,-65.795,1
7.567186,0.538,0.584,-0.662,40.405,34.423,-65.246,1
7.575498,0.55,0.569,-0.667,48.889,33.142,-64.697,1
7.582,0.557,0.563,-0.682,53.1,31.86,-64.27,1
7.590378,0.553,0.552,-0.703,51.635,31.066,-63.781,1
7.597862,0.547,0.543,-0.716,46.325,30.517,-63.171,1
7.604435,0.546,0.536,-0.726,38.757,29.968,-62.805,1
7.611606,0.544,0.52,-0.727,28.564,29.479,-62.377,1
7.619486,0.557,0.503,-0.733,17.272,29.174,-61.828,1
7.627783,0.571,0.489,-0.737,8.666,28.32,-61.34,1
7.634443,0.571,0.475,-0.75,2.868,27.404,-60.791,1
7.642504,0.577,0.449,-0.754,-1.586,25.878,-60.058,1
7.649757,0.595,0.442,-0.765,-3.845,24.475,-58.898,1
7.658022,0.595,0.442,-0.77,-2.075,21.85,-58.105,1
7.664924,0.585,0.438,-0.77,3.723,19.287,-56.701,1
7.673378,0.582,0.44,-0.772,11.962,16.418,-55.603,1
7.680118,0.591,0.434,-0.77,21.911,13.671,-54.443,1
7.68844,0.602,0.426,-0.772,30.578,10.925,-53.222,1
7.696605,0.598,0.421,-0.773,39.672,8.422,-51.94,1
7.703091,0.599,0.412,-0.78,42.48,6.103,-50.842,1
7.711393,0.607,0.397,-0.783,40.71,4.394,-49.56,1
7.719403,0.61,0.391,-0.782,35.156,3.356,-48.889,1
7.7264,0.614,0.372,-0.781,25.817,2.502,-48.034,1
7.734861,0.629,0.356,-0.773,16.235,1.525,-46.752,1
7.741907,0.631,0.359,-0.756,12.634,0.0,-45.654,1
7.750579,0.625,0.341,-0.749,14.526,-1.464,-44.433,1
7.758615,0.635,0.324,-0.742,16.601,-2.685,-43.334,1
7.765518,0.639,0.316,-0.735,17.883,-3.967,-42.053,1
7.775724,0.635,0.311,-0.724,18.493,-4.699,-41.015,1
7.782317,0.642,0.309,-0.712,19.348,-5.493,-39.855,1
7.789354,0.655,0.309,-0.702,21.301,-6.53,-39.367,1
7.797872,0.677,0.308,-0.69,23.681,-6.835,-38.452,1
7.804802,0.692,0.301,-0.682,24.414,-7.08,-37.78,1
7.813015,0.709,0.296,-0.67,22.033,-7.202,-37.17,1
7.821474,0.714,0.29,-0.656,15.686,-6.469,-36.682,1
7.829929,0.713,0.287,-0.646,7.263,-5.615,-36.254,1
7.839134,0.72,0.271,-0.635,-6.103,-4.333,-35.827,1
7.847481,0.732,0.271,-0.62,-17.822,-3.234,-35.278,1
7.855461,0.739,0.273,-0.599,-23.62,-2.685,-34.667,1
7.861863,0.756,0.27,-0.586,-26.977,-1.892,-34.484,1
7.871257,0.775,0.269,-0.574,-28.93,-1.77,-33.996,1
7.877999,0.804,0.267,-0.577,-31.127,-1.586,-33.691,1
7.88643,0.832,0.27,-0.569,-33.264,-1.77,-33.386,1
7.894882,0.856,0.275,-0.549,-33.813,-1.464,-33.142,1
7.902527,0.868,0.286,-0.534,-33.813,-1.464,-32.714,1
7.910711,0.873,0.303,-0.519,-33.203,-1.22,-32.226,1
7.917422,0.87,0.336,-0.508,-30.639,-1.281,-32.104,1
7.925728,0.871,0.366,-0.498,-25.451,-1.464,-32.409,1
7.932836,0.875,0.392,-0.488,-17.089,-1.586,-32.836,1
7.940631,0.882,0.408,-0.495,-11.962,-1.77,-33.386,1
7.948906,0.886,0.434,-0.496,-10.681,-1.586,-34.118,1
7.956849,0.9,0.45,-0.5,-13.122,-1.342,-35.4,1
7.965257,0.937,0.483,-0.492,-18.554,-0.854,-36.987,1
7.973413,0.96,0.509,-0.483,-23.62,-0.488,-38.513,1
7.981402,0.967,0.536,-0.476,-28.869,0.0,-40.222,1
7.98814,0.973,0.565,-0.472,-33.386,0.366,-42.053,1
7.995987,0.974,0.604,-0.468,-35.095,0.427,-44.189,1
8.003989,0.967,0.638,-0.462,-29.968,-1.22,-46.997,1
8.011206,0.966,0.67,-0.456,-19.104,-2.685,-49.682,1
8.019528,0.972,0.69,-0.465,-5.31,-5.004,-52.246,1
8.026487,0.969,0.717,-0.469,9.521,-7.69,-55.419,1
8.035044,0.928,0.737,-0.464,24.169,-10.864,-58.349,1
8.043004,0.936,0.74,-0.46,38.391,-13.916,-61.828,1
8.050933,0.92,0.743,-0.439,50.292,-16.601,-65.124,1
8.057846,0.905,0.732,-0.424,59.02,-19.287,-68.42,1
8.065976,0.86,0.729,-0.396,64.575,-21.545,-71.777,1
8.073543,0.821,0.757,-0.377,70.19,-23.376,-75.561,1
8.080782,0.811,0.772,-0.352,74.157,-25.939,-79.345,1
8.088837,0.824,0.754,-0.338,74.34,-26.916,-83.496,1
8.097227,0.857,0.743,-0.324,66.162,-27.893,-87.524,1
8.104094,0.888,0.731,-0.307,54.626,-28.198,-91.064,1
8.112389,0.924,0.743,-0.289,46.508,-29.724,-94.299,1
8.119345,0.921,0.726,-0.27,44.372,-31.921,-97.106,1
8.127764,1.018,0.751,-0.222,50.476,-34.729,-99.792,1
8.134662,1.023,0.861,-0.133,71.044,-42.358,-101.013,1
8.143064,1.057,0.68,-0.155,85.083,-41.381,-102.416,1
8.151229,1.083,0.831,-0.136,87.097,-45.837,-106.567,1
8.159237,0.937,0.768,-0.125,93.872,-47.607,-107.849,1
8.166291,0.914,0.724,-0.168,94.055,-49.011,-109.985,1
8.174587,0.86,0.708,-0.179,87.036,-51.696,-111.022,1
8.182633,0.841,0.726,-0.201,80.383,-53.344,-111.816,1
8.190903,0.812,0.756,-0.208,87.89,-58.41,-112.304,1
8.19909,0.727,0.642,-0.242,97.351,-61.828,-110.473,1
8.205707,0.871,0.788,-0.227,103.82,-65.002,-110.473,1
8.214022,0.839,0.83,-0.293,119.384,-67.138,-111.328,1
8.222448,0.781,0.842,-0.378,141.113,-68.847,-113.464,1
8.230572,0.801,0.86,-0.508,147.155,-68.481,-115.905,1
8.237376,1.02,0.893,-0.662,154.602,-68.298,-120.239,1
8.245418,1.08,0.893,-0.742,147.705,-65.795,-124.938,1
8.253481,1.059,0.848,-0.842,127.258,-60.791,-130.737,1
8.260079,1.052,0.851,-0.916,98.327,-56.579,-137.023,1
8.268534,0.991,0.895,-0.91,79.345,-53.771,-144.104,1
8.275566,0.957,0.928,-0.929,80.932,-53.222,-148.559,1
8.283954,0.937,0.945,-0.917,100.219,-56.884,-154.724,1
8.292219,0.905,0.93,-0.891,124.511,-59.753,-159.362,1
8.299999,0.857,0.885,-0.882,141.723,-63.232,-163.757,1
8.306968,0.865,0.839,-0.854,151.55,-65.49,-167.053,1
8.31629,0.908,0.806,-0.847,158.813,-68.115,-170.898,1
8.322896,0.971,0.772,-0.852,166.687,-71.105,-174.133,1
8.331051,0.969,0.734,-0.831,175.903,-74.523,-177.551,1
8.337686,0.961,0.677,-0.787,183.593,-74.829,-180.664,1
8.346301,0.906,0.64,-0.753,187.316,-75.744,-184.936,1
8.352991,0.817,0.573,-0.671,187.255,-75.927,-188.476,1
8.361423,0.763,0.479,-0.577,187.927,-74.401,-191.101,1
8.369447,0.709,0.394,-0.498,182.861,-70.739,-193.42,1
8.377356,0.604,0.302,-0.457,172.607,-65.49,-196.044,1
8.384066,0.506,0.163,-0.402,143.554,-58.105,-196.899,1
8.392394,0.467,0.09,-0.383,82.702,-45.41,-198.059,1
8.39966,0.484,0.108,-0.376,31.249,-35.156,-201.904,1
8.407947,0.266,0.091,-0.351,3.601,-32.165,-205.383,1
8.416201,0.191,0.054,-0.23,6.591,-29.785,-206.97,1
8.422854,0.277,0.004,-0.142,23.437,-26.916,-209.106,1
8.431248,0.22,-0.084,-0.05,45.837,-23.376,-211.059,1
8.43928,0.129,-0.229,0.044,58.288,-18.737,-210.693,1
8.445983,0.104,-0.392,0.142,59.204,-10.986,-208.74,1
8.455185,0.075,-0.531,0.219,54.687,-2.441,-205.2,1
8.46156,0.013,-0.669,0.324,46.508,6.347,-200.378,1
8.468469,-0.035,-0.845,0.38,32.043,13.061,-194.458,1
8.476365,-0.048,-1.024,0.436,5.737,22.338,-186.645,1
8.484519,-0.05,-1.204,0.474,-35.583,32.897,-176.025,1
8.492493,-0.192,-1.325,0.513,-75.317,42.358,-166.076,1
8.499363,-0.549,-1.364,0.547,-101.379,49.438,-155.09,1
8.508121,-0.334,-1.452,0.545,-82.031,54.138,-145.08,1
8.516364,-0.542,-1.625,0.54,-59.326,53.1,-133.056,1
8.524247,-0.715,-1.806,0.604,-31.921,62.744,-118.957,1
8.531247,-0.869,-2.03,0.574,-34.301,69.519,-101.928,1
8.539629,-1.062,-2.223,0.665,-61.645,83.74,-85.327,1
8.547978,-1.215,-2.325,0.729,-91.064,98.266,-68.542,1
8.556643,-1.325,-2.361,0.856,-97.656,114.807,-50.292,1
8.563718,-1.411,-2.363,0.883,-78.613,130.065,-26.55,1
8.571732,-1.611,-2.356,0.939,-53.039,142.211,-4.333,1
8.578454,-1.879,-2.324,0.945,-31.738,156.25,18.371,1
8.586961,-2.182,-2.314,0.945,-24.902,170.654,40.832,1
8.594003,-2.528,-2.264,0.975,-22.155,191.345,66.955,1
8.602293,-2.911,-2.25,0.952,-42.541,210.021,88.012,1
8.61114,-3.327,-2.285,0.938,-87.036,231.506,108.825,1
8.617696,-3.653,-2.258,1.035,-132.324,256.958,127.38,1
8.626212,-4.022,-2.233,1.001,-152.221,282.287,145.996,1
8.632415,-4.417,-2.229,0.937,-175.231,307.067,164.611,1
8.640782,-4.878,-2.253,0.905,-198.12,334.594,183.471,1
8.647397,-5.37,-2.309,0.831,-213.073,361.999,203.247,1
8.654382,-5.868,-2.404,0.746,-224.06,390.441,224.67,1
8.66265,-6.391,-2.615,0.639,-248.474,416.503,242.797,1
8.670934,-7.002,-2.808,0.53,-312.622,460.266,269.348,1
8.679094,-7.729,-2.913,0.442,-346.008,497.863,291.625,1
8.685928,-8.569,-3.014,0.37,-338.073,534.484,315.734,1
8.694014,-9.722,-3.198,0.21,-315.49,570.983,343.017,1
8.702317,-10.848,-3.323,0.079,-298.156,607.543,374.572,1
8.710175,-12.136,-3.431,-0.086,-245.971,649.291,416.87,1
8.71893,-13.822,-3.574,-0.322,-133.667,675.353,462.829,1
8.725529,-15.37,-3.777,-0.622,41.015,691.955,536.865,1
8.733726,-15.995,-3.944,-1.021,203.735,691.589,620.483,1
8.741861,-15.999,-4.036,-1.497,360.29,673.95,723.571,1
8.748865,-15.999,-3.933,-2.02,497.924,631.652,844.726,1
8.757195,-15.999,-3.375,-2.345,631.835,562.072,976.013,1
8.763748,-15.999,-2.557,-2.559,777.709,457.397,1111.877,1
8.772175,-15.999,-1.736,-2.524,896.545,316.894,1244.567,1
8.779431,-15.999,-0.763,-2.513,981.201,146.118,1360.168,1
8.788007,-15.999,0.309,-1.982,1031.555,-51.025,1449.829,1
8.795127,-15.999,1.423,-1.468,1050.231,-255.737,1507.934,1
8.803545,-15.999,2.711,-0.695,1054.504,-509.521,1530.151,1
8.811653,-15.999,3.725,0.325,1059.997,-720.703,1504.699,1
8.818279,-15.999,4.437,1.55,1052.551,-937.072,1441.772,1
8.82517,-15.999,4.312,3.362,1007.385,-1134.094,1364.379,1
8.833399,-15.999,4.99,5.463,1080.993,-1294.738,1250.793,1
8.840005,-15.999,6.064,6.598,1244.262,-1419.616,1107.421,1
8.848228,-15.999,6.167,6.873,1304.931,-1563.11,865.478,1
8.85704,-15.999,5.795,7.473,1158.508,-1620.361,628.479,1
8.86386,-15.999,6.56,7.726,1201.721,-1636.474,400.024,1
8.870451,-15.999,6.636,7.287,1502.197,-1656.738,129.15,1
8.87742,-15.999,5.489,6.706,1691.345,-1594.787,-182.373,1
8.885881,-15.999,3.293,5.329,1597.534,-1439.88,-472.9,1
8.894558,-15.999,1.594,4.231,1311.95,-1262.146,-682.434,1
8.901692,-15.999,1.041,4.105,1003.051,-1078.308,-815.551,1
8.908282,-15.999,0.623,3.566,807.067,-903.991,-894.165,1
8.917094,-15.999,0.617,3.028,689.147,-786.865,-943.908,1
8.925311,-15.999,0.234,2.884,628.662,-642.334,-975.585,1
8.934088,-15.999,-0.333,2.319,577.148,-547.241,-987.121,1
8.941178,-15.999,-0.881,2.491,511.108,-451.904,-974.487,1
8.948302,-15.999,-1.371,2.231,435.363,-348.999,-947.082,1
8.956595,-15.999,-1.706,2.322,352.722,-273.254,-908.813,1
8.963756,-15.791,-1.88,2.223,302.795,-204.528,-864.013,1
8.971793,-14.164,-1.998,2.232,289.123,-155.639,-814.208,1
8.979464,-12.563,-2.23,2.221,318.481,-99.365,-761.718,1
8.986295,-10.866,-2.68,2.054,297.058,-49.316,-711.059,1
8.995806,-9.211,-3.035,1.905,229.675,4.638,-659.484,1
9.002417,-7.883,-2.976,1.634,180.908,38.452,-609.741,1
9.010961,-7.289,-2.755,1.466,217.529,68.298,-550.842,1
9.019262,-6.581,-2.573,1.111,262.573,85.754,-502.319,1
9.025924,-5.986,-2.437,0.908,277.038,110.534,-447.875,1
9.033875,-5.521,-2.24,0.69,260.864,126.586,-411.376,1
9.04179,-5.169,-2.034,0.578,234.924,143.493,-370.788,1
9.050264,-4.778,-1.91,0.427,203.735,158.508,-333.496,1
9.05875,-4.359,-1.831,0.314,155.212,171.142,-294.006,1
9.065849,-3.974,-1.758,0.228,112.67,178.649,-264.282,1
9.072877,-3.697,-1.701,0.206,78.247,182.25,-237.915,1
9.080105,-3.464,-1.655,0.219,57.067,186.035,-214.538,1
9.088417,-3.187,-1.662,0.232,43.64,187.072,-193.359,1
9.09573,-2.876,-1.674,0.28,38.757,188.415,-172.668,1
9.103906,-2.484,-1.683,0.282,43.457,188.415,-148.742,1
9.112348,-2.267,-1.671,0.285,48.828,188.11,-128.784,1
9.119441,-2.086,-1.659,0.253,51.025,187.561,-109.069,1
9.127988,-1.878,-1.617,0.227,48.278,185.546,-90.637,1
9.134882,-1.744,-1.548,0.208,44.738,183.166,-72.692,1
9.143185,-1.672,-1.437,0.212,42.175,179.382,-56.945,1
9.149613,-1.654,-1.352,0.243,38.879,176.696,-42.968,1
9.157963,-1.598,-1.295,0.271,35.888,174.072,-30.395,1
9.16471,-1.452,-1.211,0.317,45.898,170.898,-18.859,1
9.172052,-1.277,-1.153,0.338,65.856,166.687,-7.568,1
9.180485,-1.136,-1.099,0.339,85.815,162.963,3.967,1
9.188759,-1.014,-1.041,0.345,100.28,158.264,15.258,1
9.195983,-0.934,-1.033,0.301,99.975,156.311,25.939,1
9.202524,-0.819,-1.004,0.299,76.782,154.907,35.583,1
9.210865,-0.79,-0.907,0.309,57.8,154.785,43.762,1
9.219566,-0.765,-0.804,0.295,47.424,152.709,50.292,1
9.227621,-0.678,-0.723,0.29,42.236,151.184,56.152,1
9.234629,-0.603,-0.656,0.278,44.189,148.681,60.546,1
9.241783,-0.474,-0.61,0.279,53.833,145.812,65.063,1
9.248645,-0.342,-0.566,0.254,65.063,143.371,69.335,1
9.257021,-0.225,-0.5,0.219,73.486,140.808,72.692,1
9.264936,-0.145,-0.428,0.179,85.693,136.352,76.66,1
9.273014,-0.11,-0.366,0.153,95.458,131.652,79.528,1
9.279529,-0.052,-0.331,0.128,102.355,127.319,82.092,1
9.287776,0.04,-0.298,0.103,106.323,122.497,84.533,1
9.294299,0.146,-0.277,0.09,106.323,118.103,86.303,1
9.30215,0.221,-0.244,0.063,103.576,113.891,87.524,1
9.31093,0.244,-0.217,0.035,99.975,110.229,87.89,1
9.317161,0.248,-0.19,0.01,94.482,105.895,87.768,1
9.325016,0.28,-0.183,-0.008,89.111,101.135,87.646,1
9.33371,0.351,-0.173,-0.019,85.266,97.045,87.829,1
9.340415,0.409,-0.145,-0.039,82.824,93.017,87.524,1
9.348498,0.475,-0.111,-0.04,85.632,88.684,87.158,1
9.355475,0.536,-0.069,-0.038,92.956,85.021,86.914,1
9.364376,0.565,-0.034,-0.041,102.478,80.993,86.364,1
9.370768,0.589,-0.013,-0.031,113.037,77.27,85.937,1
9.377981,0.61,0.017,-0.025,125.305,74.462,85.449,1
9.387677,0.635,0.035,-0.025,134.643,71.472,85.632,1
9.393785,0.696,0.057,-0.035,141.54,69.274,85.937,1
9.40067,0.744,0.076,-0.05,147.155,66.162,86.425,1
9.407984,0.81,0.104,-0.052,152.648,63.232,87.463,1
9.416253,0.873,0.124,-0.054,157.653,60.791,88.928,1
9.422782,0.913,0.151,-0.059,159.24,58.898,89.965,1
9.431173,0.961,0.196,-0.058,158.081,57.495,90.82,1
9.438,0.983,0.24,-0.076,154.724,56.091,91.308,1
9.444428,0.982,0.312,-0.074,150.817,55.786,90.82,1
9.452751,0.973,0.356,-0.089,145.629,55.541,90.698,1
9.459314,0.961,0.422,-0.099,135.742,54.931,89.904,1
9.467612,0.975,0.497,-0.102,129.577,54.443,88.623,1
9.47483,0.996,0.557,-0.113,129.15,52.551,86.242,1
9.482735,1.035,0.577,-0.113,136.718,50.415,84.716,1
9.490915,1.032,0.62,-0.12,147.338,47.851,81.787,1
9.497947,1.019,0.666,-0.109,159.545,45.471,79.101,1
9.50497,1.011,0.687,-0.115,171.569,43.09,76.354,1
9.511885,0.986,0.676,-0.118,179.077,40.771,73.669,1
9.519906,1.003,0.658,-0.121,178.344,39.978,71.777,1
9.528489,1.011,0.663,-0.122,175.964,39.672,70.007,1
9.535115,1.0,0.674,-0.118,177.001,38.696,67.749,1
9.543391,1.001,0.667,-0.11,181.518,38.024,65.979,1
9.550214,1.019,0.661,-0.11,186.767,36.987,64.575,1
9.558206,1.038,0.653,-0.118,193.054,36.315,63.72,1
9.565113,1.049,0.651,-0.134,197.998,35.766,62.744,1
9.573514,1.047,0.655,-0.156,198.913,35.339,62.316,1
9.579967,1.0,0.655,-0.183,194.213,34.973,60.913,1
9.58853,0.937,0.664,-0.2,188.171,35.278,59.631,1
9.595216,0.902,0.674,-0.206,184.448,34.729,57.922,1
9.604881,0.879,0.677,-0.208,186.584,34.423,56.152,1
9.61119,0.842,0.67,-0.209,191.467,34.423,54.443,1
9.618229,0.806,0.647,-0.204,195.861,34.057,52.856,1
9.626525,0.78,0.614,-0.2,200.622,33.508,52.062,1
9.635289,0.732,0.586,-0.192,205.139,33.508,51.94,1
9.642059,0.675,0.526,-0.187,207.763,33.386,52.185,1
9.651668,0.668,0.455,-0.186,206.665,34.118,53.344,1
9.658013,0.649,0.399,-0.178,204.406,34.606,55.664,1
9.666052,0.607,0.354,-0.182,200.073,36.254,57.189,1
9.674416,0.612,0.304,-0.173,190.856,37.597,59.326,1
9.681124,0.602,0.249,-0.169,181.091,40.222,61.462,1
9.687956,0.596,0.238,-0.123,174.255,42.053,63.659,1
9.696334,0.574,0.16,-0.187,175.476,44.311,66.345,1
9.702897,0.531,0.107,-0.104,173.461,44.921,69.885,1
9.711132,0.5,0.059,-0.12,170.532,46.386,73.974,1
9.718963,0.46,0.025,-0.093,164.855,47.607,78.796,1
9.727337,0.419,0.001,-0.083,153.076,49.926,84.35,1
9.734263,0.342,-0.021,-0.108,130.92,52.612,88.378,1
9.741464,0.29,-0.035,-0.104,98.693,56.457,92.529,1
9.749657,0.254,-0.028,-0.093,69.58,60.18,96.923,1
9.756731,0.254,0.003,-0.098,49.072,63.232,100.891,1
9.764767,0.239,0.03,-0.073,40.1,65.429,103.759,1
9.772107,0.261,0.034,-0.052,39.978,67.932,107.543,1
9.780421,0.27,0.024,-0.073,41.625,71.044,111.633,1
9.786994,0.263,0.026,-0.118,38.513,73.913,115.905,1
9.794234,0.25,0.028,-0.121,31.127,76.293,120.483,1
9.802856,0.221,0.034,-0.148,23.864,79.223,125.61,1
9.809031,0.165,0.062,-0.173,18.249,80.81,130.493,1
9.817379,0.098,0.099,-0.204,15.991,82.092,134.582,1
9.823907,0.03,0.147,-0.226,16.113,82.214,138.916,1
9.832299,-0.032,0.191,-0.241,22.155,82.519,143.249,1
9.839313,-0.067,0.223,-0.25,34.301,82.031,147.705,1
9.845878,-0.094,0.252,-0.264,47.424,81.665,152.404,1
9.854589,-0.121,0.281,-0.305,54.321,81.665,157.592,1
9.86137,-0.148,0.323,-0.342,52.001,81.726,161.926,1
9.869122,-0.18,0.369,-0.386,44.189,82.519,166.564,1
9.876039,-0.218,0.411,-0.435,34.484,82.458,171.203,1
9.884634,-0.259,0.49,-0.472,29.357,82.092,175.476,1
9.892357,-0.313,0.57,-0.509,32.836,80.017,180.419,1
9.901115,-0.369,0.632,-0.548,41.992,77.514,184.326,1
9.907673,-0.43,0.692,-0.574,51.513,73.791,188.171,1
9.916382,-0.459,0.743,-0.594,59.57,70.8,191.406,1
9.924891,-0.494,0.783,-0.605,64.331,67.382,194.58,1
9.932186,-0.523,0.835,-0.628,61.95,66.223,197.448,1
9.938657,-0.56,0.887,-0.684,47.607,64.453,199.279,1
9.945631,-0.605,0.967,-0.715,30.151,63.598,200.5,1
9.954417,-0.621,1.062,-0.749,20.446,61.95,200.622,1
9.963007,-0.639,1.134,-0.774,18.981,59.326,199.768,1
9.969094,-0.661,1.195,-0.794,25.268,56.335,198.852,1
9.977307,-0.65,1.273,-0.818,36.315,52.124,197.509,1
9.983982,-0.651,1.303,-0.834,46.63,47.546,195.678,1
9.99093,-0.647,1.342,-0.845,52.001,43.457,193.725,1
9.999626,-0.653,1.363,-0.87,50.231,40.039,191.101,1
