timestamp_s,ax,ay,az,gx,gy,gz,label
0.006296,0.941,0.111,-0.192,-25.939,3.356,-18.615,1
0.012912,0.95,0.137,-0.178,-20.812,3.356,-18.737,1
0.020117,0.963,0.15,-0.156,-8.422,2.746,-18.859,1
0.029575,0.972,0.158,-0.151,7.751,1.708,-18.92,1
0.03584,0.979,0.155,-0.142,23.864,1.22,-18.554,1
0.043833,0.985,0.151,-0.142,36.743,0.427,-18.31,1
0.051375,0.996,0.152,-0.142,46.142,0.183,-18.005,1
0.059766,0.991,0.149,-0.143,51.086,0.549,-18.066,1
0.067293,0.959,0.145,-0.146,50.72,1.464,-18.31,1
0.07451,0.932,0.142,-0.153,46.203,2.868,-18.371,1
0.082367,0.925,0.144,-0.157,38.208,4.333,-18.737,1
0.090866,0.915,0.136,-0.157,30.151,5.798,-18.859,1
0.098524,0.911,0.135,-0.151,22.46,7.141,-18.981,1
0.106289,0.896,0.137,-0.152,16.54,8.117,-19.348,1
0.112827,0.894,0.134,-0.148,13.61,9.521,-19.592,1
0.121098,0.903,0.127,-0.154,14.404,10.253,-19.836,1
0.127578,0.901,0.123,-0.152,16.784,11.535,-19.775,1
0.135601,0.907,0.117,-0.162,20.141,13.0,-19.775,1
0.143496,0.904,0.114,-0.17,23.62,13.977,-19.47,1
0.152036,0.898,0.12,-0.188,25.573,15.014,-19.531,1
0.159093,0.898,0.122,-0.201,26.916,15.686,-19.714,1
0.167031,0.903,0.115,-0.213,27.343,16.174,-19.775,1
0.173966,0.904,0.109,-0.211,27.709,16.601,-19.836,1
0.181894,0.912,0.103,-0.215,27.404,16.967,-19.775,1
0.189872,0.911,0.099,-0.222,27.038,17.272,-19.592,1
0.19633,0.915,0.09,-0.223,27.038,17.822,-19.531,1
0.203867,0.915,0.082,-0.228,26.245,18.005,-19.47,1
0.212415,0.917,0.077,-0.234,25.024,18.371,-19.165,1
0.219101,0.917,0.069,-0.243,23.742,19.042,-18.981,1
0.226988,0.916,0.062,-0.25,22.094,19.287,-18.859,1
0.233725,0.922,0.062,-0.258,20.263,19.836,-18.493,1
0.242122,0.934,0.067,-0.266,19.714,19.714,-18.737,1
0.249003,0.933,0.063,-0.272,20.812,20.141,-18.981,1
0.255778,0.929,0.064,-0.274,22.521,19.897,-19.226,1
0.264222,0.934,0.06,-0.28,25.695,19.714,-19.775,1
0.271015,0.943,0.05,-0.29,28.686,19.531,-20.019,1
0.279065,0.96,0.041,-0.298,31.311,19.226,-20.019,1
0.287422,0.987,0.034,-0.308,32.775,18.859,-20.141,1
0.293692,1.022,0.03,-0.317,33.447,18.371,-19.714,1
0.301861,1.048,0.029,-0.326,33.02,18.31,-19.348,1
0.309183,1.047,0.031,-0.343,30.7,17.822,-19.042,1
0.317625,1.049,0.036,-0.357,27.77,17.395,-18.615,1
0.325895,1.051,0.049,-0.365,25.085,16.845,-18.615,1
0.332191,1.069,0.062,-0.375,22.766,15.991,-18.31,1
0.340386,1.09,0.072,-0.378,22.949,15.38,-18.432,1
0.348341,1.107,0.079,-0.387,25.085,14.038,-18.798,1
0.356234,1.122,0.093,-0.387,28.808,13.061,-19.348,1
0.362881,1.127,0.095,-0.389,33.142,12.084,-20.08,1
0.370145,1.13,0.1,-0.39,36.621,11.596,-20.996,1
0.378109,1.144,0.102,-0.393,38.33,10.925,-22.216,1
0.384889,1.142,0.103,-0.391,38.452,10.864,-23.315,1
0.393283,1.126,0.107,-0.392,38.085,10.07,-24.169,1
0.40044,1.094,0.102,-0.4,35.522,10.864,-25.268,1
0.408534,1.078,0.106,-0.397,31.616,10.864,-26.428,1
0.416388,1.024,0.116,-0.403,25.634,11.474,-27.893,1
0.423949,1.067,0.106,-0.405,20.324,12.023,-29.479,1
0.432681,1.056,0.113,-0.4,16.54,11.962,-31.127,1
0.439017,1.042,0.109,-0.39,14.831,12.207,-32.47,1
0.447341,1.035,0.106,-0.379,13.977,12.084,-34.118,1
0.454532,1.032,0.097,-0.373,11.413,12.023,-35.827,1
0.462875,1.035,0.087,-0.364,8.666,12.451,-37.414,1
0.470846,1.032,0.076,-0.356,5.615,12.756,-38.757,1
0.478026,1.034,0.067,-0.347,4.089,13.244,-40.222,1
0.484741,1.028,0.067,-0.345,2.441,13.854,-41.442,1
0.492476,1.023,0.065,-0.332,2.38,14.465,-42.724,1
0.500857,1.032,0.058,-0.325,-0.976,14.709,-43.762,1
0.507529,1.067,0.061,-0.312,-5.615,16.174,-44.677,1
0.51577,1.107,0.075,-0.307,-11.535,16.784,-46.02,1
0.524035,1.122,0.117,-0.273,-14.038,18.188,-47.851,1
0.532425,1.105,0.17,-0.264,-6.652,19.226,-50.292,1
0.53888,1.05,0.223,-0.235,8.117,20.629,-53.466,1
0.547478,1.001,0.239,-0.23,24.902,22.888,-56.762,1
0.555319,0.959,0.264,-0.206,37.719,25.024,-60.852,1
0.562452,0.979,0.244,-0.207,43.151,29.663,-63.72,1
0.568943,0.955,0.226,-0.211,40.161,33.508,-66.711,1
0.577245,0.959,0.189,-0.208,29.907,39.855,-69.03,1
0.583792,0.953,0.157,-0.238,11.535,45.227,-71.472,1
0.591689,0.897,0.117,-0.264,-10.009,50.964,-72.875,1
0.599651,0.874,0.086,-0.283,-31.982,55.114,-74.34,1
0.606949,0.855,0.07,-0.289,-46.264,58.349,-75.134,1
0.614498,0.803,0.067,-0.301,-58.532,61.035,-76.293,1
0.622283,0.772,0.047,-0.311,-60.974,63.171,-77.148,1
0.631008,0.728,0.032,-0.345,-61.95,62.988,-78.186,1
0.637333,0.681,0.002,-0.354,-63.171,63.476,-79.162,1
0.645519,0.635,-0.039,-0.381,-66.04,63.354,-79.711,1
0.65221,0.604,-0.089,-0.398,-71.044,63.903,-80.505,1
0.660313,0.59,-0.149,-0.434,-81.909,63.72,-80.383,1
0.668671,0.571,-0.211,-0.444,-92.651,63.964,-80.2,1
0.675907,0.578,-0.266,-0.465,-109.741,64.27,-79.101,1
0.684848,0.58,-0.312,-0.492,-121.704,63.232,-77.636,1
0.691986,0.568,-0.342,-0.499,-126.647,61.462,-76.354,1
0.699788,0.551,-0.376,-0.512,-119.018,58.044,-74.951,1
0.708051,0.562,-0.411,-0.5,-102.6,54.565,-73.181,1
0.716865,0.595,-0.46,-0.5,-81.359,50.72,-71.411,1
0.724013,0.562,-0.511,-0.5,-62.438,47.363,-68.725,1
0.731412,0.555,-0.565,-0.515,-57.25,44.555,-66.467,1
0.739317,0.549,-0.609,-0.504,-59.387,42.48,-64.331,1
0.747384,0.545,-0.635,-0.5,-62.927,41.076,-62.316,1
0.756053,0.546,-0.667,-0.482,-64.758,38.818,-59.875,1
0.762872,0.546,-0.702,-0.47,-64.208,36.865,-57.25,1
0.771489,0.552,-0.73,-0.442,-60.668,34.423,-54.687,1
0.779343,0.556,-0.757,-0.415,-54.321,32.714,-52.307,1
0.786228,0.534,-0.776,-0.383,-47.607,30.7,-49.743,1
0.794548,0.511,-0.799,-0.358,-42.175,29.968,-47.912,1
0.801057,0.475,-0.817,-0.314,-32.775,28.381,-45.776,1
0.810741,0.45,-0.844,-0.275,-20.568,27.526,-43.884,1
0.817676,0.417,-0.882,-0.246,-8.666,26.977,-41.625,1
0.824441,0.388,-0.911,-0.208,-2.258,28.015,-39.672,1
0.832525,0.337,-0.952,-0.176,1.159,28.869,-37.597,1
0.841063,0.303,-0.996,-0.141,2.319,30.822,-35.095,1
0.847345,0.259,-1.036,-0.118,3.662,33.264,-32.409,1
0.855175,0.202,-1.057,-0.079,6.225,35.644,-29.235,1
0.863579,0.219,-1.104,-0.075,14.648,38.085,-25.878,1
0.871984,0.136,-1.162,-0.039,27.343,40.649,-21.24,1
0.878499,0.092,-1.215,-0.041,38.94,43.762,-16.052,1
0.886816,0.067,-1.255,-0.015,49.255,46.081,-10.559,1
0.893679,0.022,-1.339,-0.048,45.532,50.598,-4.394,1
0.901874,0.048,-1.412,-0.033,34.301,55.725,1.892,1
0.910196,-0.068,-1.439,-0.072,11.718,59.875,9.094,1
0.918893,-0.104,-1.47,-0.03,-24.169,68.176,18.554,1
0.925496,-0.14,-1.501,-0.037,-45.776,71.289,27.038,1
0.934522,-0.147,-1.511,-0.023,-48.461,77.575,36.926,1
0.943017,-0.203,-1.47,-0.074,-41.931,80.078,46.752,1
0.950018,-0.327,-1.448,-0.067,-23.986,83.251,59.143,1
0.958021,-0.453,-1.432,-0.127,-12.817,85.51,70.617,1
0.966409,-0.579,-1.431,-0.164,-10.131,89.477,82.763,1
0.975305,-0.709,-1.412,-0.218,-13.916,93.933,97.473,1
0.981833,-0.808,-1.379,-0.239,-10.437,97.167,110.778,1
0.990166,-0.935,-1.371,-0.31,-6.164,101.074,124.755,1
0.996753,-1.06,-1.357,-0.349,-6.958,103.82,139.282,1
1.005219,-1.129,-1.347,-0.389,-2.075,106.689,154.052,1
1.012147,-1.284,-1.342,-0.447,2.807,109.13,169.677,1
1.020021,-1.443,-1.324,-0.491,-0.671,111.267,185.363,1
1.028324,-1.612,-1.3,-0.532,0.427,112.426,203.674,1
1.035101,-1.777,-1.264,-0.551,2.99,113.769,217.529,1
1.042874,-1.926,-1.232,-0.594,9.643,113.464,233.764,1
1.050865,-2.118,-1.207,-0.622,16.845,112.792,251.098,1
1.057605,-2.269,-1.175,-0.658,25.634,111.267,268.798,1
1.065302,-2.465,-1.139,-0.672,33.569,109.008,286.987,1
1.072294,-2.634,-1.101,-0.687,43.457,105.712,306.274,1
1.080617,-2.797,-1.059,-0.716,52.49,102.172,326.293,1
1.088752,-3.038,-1.015,-0.728,61.584,96.862,347.106,1
1.09571,-3.24,-0.985,-0.73,73.791,91.247,369.018,1
1.103038,-3.508,-0.951,-0.769,90.515,83.923,391.662,1
1.111685,-3.676,-0.932,-0.79,107.482,74.646,416.137,1
1.118602,-4.042,-0.907,-0.837,122.375,62.316,445.495,1
1.126914,-4.317,-0.895,-0.88,131.225,50.415,471.618,1
1.133631,-4.604,-0.896,-0.961,135.07,37.17,498.962,1
1.142788,-5.15,-0.864,-0.994,134.826,21.118,526.001,1
1.150775,-5.585,-0.824,-1.02,137.207,5.615,554.443,1
1.158304,-6.156,-0.803,-1.077,145.507,-13.366,582.824,1
1.165323,-6.789,-0.791,-1.075,147.033,-37.109,616.272,1
1.173415,-7.423,-0.735,-1.082,146.24,-57.678,646.728,1
1.181223,-8.129,-0.686,-1.099,153.869,-76.965,671.264,1
1.187839,-8.862,-0.662,-1.097,162.902,-103.393,701.049,1
1.196268,-9.679,-0.618,-1.074,173.034,-130.554,732.116,1
1.202944,-10.457,-0.557,-1.053,188.354,-162.048,763.793,1
1.210594,-11.468,-0.442,-0.977,214.66,-196.533,794.921,1
1.218737,-12.541,-0.3,-0.898,249.145,-235.534,825.012,1
1.226583,-13.733,-0.132,-0.808,285.156,-280.151,852.661,1
1.234466,-15.233,0.086,-0.662,317.138,-328.186,876.281,1
1.241649,-15.999,0.333,-0.477,349.426,-388.488,898.437,1
1.249547,-15.999,0.583,-0.248,372.009,-441.101,912.841,1
1.256412,-15.999,0.895,0.038,408.264,-498.107,922.363,1
1.263918,-15.999,1.281,0.351,458.007,-549.987,925.231,1
1.27231,-15.999,1.574,0.637,536.01,-622.68,920.349,1
1.27942,-15.999,1.945,1.108,621.826,-702.087,904.296,1
1.287315,-15.999,2.412,1.619,728.759,-786.071,872.009,1
1.295442,-15.999,2.793,1.947,859.985,-876.281,818.603,1
1.302248,-15.999,3.085,2.218,989.562,-973.571,741.455,1
1.309519,-15.999,3.355,2.415,1130.31,-1062.194,635.498,1
1.317802,-15.999,3.522,2.402,1290.771,-1139.587,494.079,1
1.324107,-15.999,3.734,2.58,1468.322,-1190.856,312.194,1
1.332612,-15.999,3.646,2.562,1608.093,-1203.186,89.355,1
1.338592,-15.999,2.53,2.373,1531.005,-1156.005,-134.765,1
1.346833,-15.999,1.845,2.353,1288.33,-1064.148,-317.199,1
1.353545,-15.999,1.616,2.72,1048.4,-944.03,-446.35,1
1.361408,-15.999,1.439,2.744,905.639,-848.51,-522.949,1
1.369988,-14.993,1.229,2.566,812.072,-724.182,-598.815,1
1.377052,-13.752,1.02,2.116,757.934,-630.798,-643.127,1
1.385057,-12.83,0.92,1.947,706.115,-539.001,-673.767,1
1.392055,-12.011,0.783,1.655,650.878,-453.491,-692.077,1
1.399559,-11.253,0.686,1.494,595.214,-372.985,-700.256,1
1.407977,-10.522,0.615,1.355,541.687,-299.743,-701.538,1
1.415471,-10.013,0.571,1.227,500.915,-234.741,-697.753,1
1.422126,-9.517,0.516,1.115,468.933,-177.734,-690.49,1
1.430173,-9.1,0.433,1.027,436.95,-126.281,-679.321,1
1.43723,-8.712,0.324,0.937,404.724,-88.134,-666.748,1
1.444246,-8.183,0.236,0.889,365.6,-47.424,-648.681,1
1.452356,-7.886,0.208,0.857,338.378,-14.343,-627.807,1
1.460204,-7.43,0.157,0.815,334.777,16.296,-605.468,1
1.468565,-7.097,-0.007,0.723,325.012,46.752,-579.772,1
1.477093,-6.667,-0.237,0.655,285.4,75.317,-555.847,1
1.483946,-6.076,-0.482,0.564,216.918,97.778,-531.921,1
1.492932,-5.595,-0.636,0.549,132.019,120.239,-503.906,1
1.500495,-5.154,-0.674,0.563,78.552,132.446,-480.712,1
1.50745,-4.738,-0.77,0.525,56.213,140.014,-458.801,1
1.515407,-4.305,-0.827,0.546,52.368,144.836,-436.401,1
1.52435,-3.949,-0.88,0.492,69.641,148.01,-414.672,1
1.531,-3.631,-0.948,0.435,88.439,152.648,-390.258,1
1.539688,-3.36,-1.0,0.362,91.247,156.86,-369.75,1
1.546586,-3.112,-1.025,0.302,87.463,161.621,-350.097,1
1.554671,-2.907,-1.042,0.233,79.65,164.794,-331.298,1
1.563322,-2.687,-1.05,0.186,66.467,167.541,-313.354,1
1.569801,-2.537,-1.036,0.152,52.368,168.273,-295.532,1
1.576914,-2.434,-0.998,0.126,42.907,167.541,-279.113,1
1.585259,-2.328,-0.961,0.107,35.705,164.428,-263.427,1
1.591942,-2.191,-0.95,0.097,31.799,160.949,-248.168,1
1.599948,-2.018,-0.965,0.084,27.954,156.86,-233.642,1
1.608223,-1.818,-1.021,0.079,22.277,152.954,-218.749,1
1.615683,-1.574,-1.084,0.073,11.047,148.071,-201.721,1
1.624435,-1.395,-1.097,0.069,6.958,143.188,-187.683,1
1.632446,-1.242,-1.104,0.069,10.681,137.939,-174.438,1
1.64005,-1.105,-1.099,0.077,18.31,132.446,-160.949,1
1.647643,-0.962,-1.112,0.07,26.916,127.441,-147.888,1
1.65595,-0.841,-1.115,0.08,33.447,122.009,-132.507,1
1.663719,-0.74,-1.112,0.073,31.616,118.591,-119.873,1
1.670226,-0.665,-1.076,0.075,24.23,115.539,-107.849,1
1.677541,-0.602,-1.024,0.067,16.54,112.304,-97.045,1
1.685139,-0.548,-0.979,0.062,10.681,108.52,-86.669,1
1.6933,-0.467,-0.958,0.051,4.882,104.431,-76.965,1
1.701336,-0.396,-0.939,0.036,-1.525,100.463,-68.359,1
1.708311,-0.324,-0.91,0.022,-6.469,96.374,-60.485,1
1.716415,-0.255,-0.876,0.014,-9.399,91.796,-53.161,1
1.723111,-0.196,-0.84,0.01,-11.474,87.463,-46.691,1
1.731156,-0.132,-0.804,0.013,-10.803,82.397,-40.893,1
1.739338,-0.058,-0.779,0.016,-4.577,77.575,-35.583,1
1.746646,0.025,-0.745,0.04,10.437,70.8,-29.541,1
1.754593,0.089,-0.722,0.054,24.78,65.124,-24.902,1
1.763251,0.177,-0.699,0.076,36.926,60.974,-20.568,1
1.770746,0.228,-0.69,0.078,41.32,57.25,-16.784,1
1.777184,0.271,-0.664,0.096,41.015,54.626,-13.366,1
1.785085,0.305,-0.656,0.096,36.193,52.734,-10.131,1
1.79401,0.345,-0.635,0.112,29.418,51.086,-8.239,1
1.802307,0.396,-0.601,0.118,20.507,50.048,-5.615,1
1.80857,0.447,-0.562,0.123,17.15,47.912,-3.723,1
1.816,0.488,-0.528,0.121,16.662,46.081,-2.502,1
1.824455,0.517,-0.516,0.116,15.624,44.006,-1.403,1
1.831218,0.548,-0.505,0.11,13.122,41.87,-0.793,1
1.839117,0.597,-0.497,0.095,10.192,39.306,-0.122,1
1.846005,0.648,-0.477,0.086,7.934,36.865,0.427,1
1.856032,0.681,-0.46,0.076,6.835,33.996,0.854,1
1.862659,0.732,-0.443,0.081,10.986,30.822,1.22,1
1.869218,0.765,-0.437,0.089,20.935,26.733,1.708,1
1.877059,0.826,-0.435,0.108,34.118,23.071,2.441,1
1.883642,0.879,-0.443,0.118,43.09,19.226,3.784,1
1.89196,0.897,-0.431,0.149,47.851,16.357,5.065,1
1.89822,0.891,-0.417,0.153,49.987,14.282,5.615,1
1.906116,0.876,-0.401,0.17,50.109,12.39,6.164,1
1.913772,0.882,-0.399,0.176,49.133,11.23,6.713,1
1.920972,0.888,-0.394,0.184,46.936,10.009,7.202,1
1.928933,0.889,-0.386,0.187,43.884,8.911,7.69,1
1.935674,0.903,-0.384,0.18,39.733,8.117,8.056,1
1.944122,0.922,-0.38,0.19,36.193,6.53,8.422,1
1.95224,0.933,-0.368,0.191,35.217,5.126,9.155,1
1.958989,0.93,-0.355,0.191,36.071,3.54,9.338,1
1.967263,0.93,-0.341,0.202,39.306,1.464,10.009,1
1.974337,0.933,-0.331,0.212,44.555,-0.671,10.07,1
1.982892,0.942,-0.318,0.233,51.879,-3.295,10.62,1
1.989513,0.927,-0.3,0.25,61.096,-5.432,11.169,1
1.996169,0.923,-0.289,0.265,70.251,-7.629,11.352,1
2.004717,0.901,-0.278,0.292,80.505,-9.216,11.596,1
2.012927,0.894,-0.277,0.306,88.195,-10.864,11.901,1
2.019562,0.899,-0.282,0.301,89.477,-11.23,12.023,1
2.028001,0.896,-0.297,0.305,83.862,-11.718,12.451,1
2.034541,0.895,-0.293,0.306,74.829,-10.864,13.0,1
2.042853,0.862,-0.278,0.306,65.917,-10.253,12.878,1
2.050777,0.837,-0.273,0.319,59.875,-10.192,12.756,1
2.059042,0.796,-0.254,0.346,58.471,-10.314,12.817,1
2.067116,0.784,-0.247,0.356,61.767,-11.169,13.183,1
2.073361,0.786,-0.245,0.389,70.434,-11.84,13.305,1
2.08228,0.791,-0.266,0.393,80.627,-12.451,13.671,1
2.089213,0.809,-0.294,0.408,88.684,-12.39,14.282,1
2.09643,0.848,-0.33,0.404,93.505,-12.084,15.014,1
2.104745,0.886,-0.352,0.422,95.825,-10.803,16.174,1
2.111895,0.926,-0.366,0.409,95.764,-10.192,17.517,1
2.120343,0.935,-0.382,0.425,96.496,-8.789,19.287,1
2.127548,0.945,-0.41,0.415,96.74,-8.3,20.812,1
2.135842,0.966,-0.407,0.435,97.717,-7.141,22.827,1
2.142973,0.984,-0.394,0.426,99.182,-6.591,24.475,1
2.15173,0.994,-0.367,0.445,101.318,-5.493,25.634,1
2.158147,0.984,-0.342,0.453,104.064,-3.906,26.855,1
2.166945,0.96,-0.316,0.468,108.642,-2.624,27.587,1
2.17405,0.937,-0.298,0.468,112.854,-0.549,28.076,1
2.181088,0.922,-0.291,0.466,114.135,1.22,28.625,1
2.188766,0.913,-0.282,0.449,110.351,3.967,29.052,1
2.197311,0.892,-0.267,0.437,104.125,5.981,29.846,1
2.203774,0.881,-0.261,0.42,98.327,8.422,30.09,1
2.212034,0.869,-0.263,0.4,96.618,9.948,30.334,1
2.21883,0.911,-0.275,0.37,98.388,10.803,30.395,1
2.226961,0.916,-0.288,0.357,101.074,11.657,30.639,1
2.233189,0.958,-0.305,0.339,104.614,12.573,31.066,1
2.241459,0.992,-0.316,0.326,109.008,12.817,32.165,1
2.248477,1.052,-0.323,0.321,110.961,13.732,33.325,1
2.257049,1.061,-0.299,0.328,113.098,14.953,34.484,1
2.264825,1.044,-0.267,0.324,118.896,15.563,35.339,1
2.272729,1.031,-0.248,0.328,123.962,16.723,35.888,1
2.279303,1.023,-0.238,0.334,127.624,17.761,36.499,1
2.285878,1.02,-0.233,0.328,128.601,19.348,37.292,1
2.293688,1.014,-0.229,0.324,127.258,21.057,37.719,1
2.30226,1.023,-0.215,0.316,125.549,22.827,38.269,1
2.309254,1.023,-0.205,0.301,125.854,24.047,39.001,1
2.316309,1.039,-0.189,0.283,128.662,24.475,39.794,1
2.325126,1.063,-0.172,0.267,134.643,24.597,40.466,1
2.331658,1.09,-0.166,0.251,140.075,24.902,41.137,1
2.339919,1.109,-0.147,0.244,143.859,25.451,41.687,1
2.3466,1.091,-0.121,0.233,146.484,26.489,42.053,1
2.354307,1.09,-0.091,0.238,146.362,27.526,42.541,1
2.362814,1.102,-0.058,0.237,146.606,28.625,42.48,1
2.370357,1.081,-0.029,0.234,147.644,29.846,42.053,1
2.377295,1.071,0.0,0.229,151.245,30.761,41.625,1
2.385364,1.083,0.031,0.214,153.564,31.982,41.503,1
2.393306,1.077,0.066,0.191,152.343,32.531,40.771,1
2.399749,1.077,0.122,0.184,151.916,31.921,40.832,1
2.408097,1.098,0.172,0.175,156.921,31.188,40.893,1
2.415399,1.115,0.225,0.171,169.982,28.808,40.588,1
2.423709,1.104,0.261,0.159,183.471,28.32,40.1,1
2.429976,1.094,0.314,0.148,195.8,26.916,38.879,1
2.437959,1.054,0.353,0.142,206.726,26.428,37.536,1
2.444713,1.046,0.385,0.129,212.524,26.123,36.132,1
2.452565,1.04,0.43,0.119,213.989,26.428,33.996,1
2.460476,1.006,0.463,0.112,211.73,26.611,31.677,1
2.467059,1.012,0.491,0.111,208.984,27.77,29.663,1
2.475051,1.011,0.515,0.087,204.223,28.381,27.648,1
2.483447,1.015,0.53,0.082,197.875,30.029,25.512,1
2.490127,1.031,0.551,0.035,188.842,31.249,23.193,1
2.496689,1.03,0.58,0.01,182.617,32.47,20.69,1
2.50513,1.041,0.62,-0.035,179.687,33.752,17.822,1
2.511896,1.043,0.644,-0.065,181.884,34.667,14.587,1
2.519782,1.034,0.656,-0.106,185.363,35.095,11.718,1
2.527364,1.029,0.651,-0.12,188.537,34.912,8.544,1
2.534138,1.039,0.662,-0.124,196.716,35.156,5.187,1
2.54239,1.029,0.649,-0.16,209.655,34.484,2.319,1
2.549336,1.027,0.666,-0.175,225.036,35.217,-0.183,1
2.557654,1.015,0.667,-0.137,238.037,34.851,-2.929,1
2.564363,1.019,0.617,-0.157,247.375,33.691,-5.859,1
2.572728,0.973,0.607,-0.185,253.234,34.912,-7.568,1
2.58136,0.961,0.563,-0.184,252.99,36.315,-8.85,1
2.587684,0.93,0.542,-0.197,245.788,37.841,-10.559,1
2.595976,0.915,0.512,-0.211,234.191,39.916,-11.779,1
2.602744,0.892,0.499,-0.213,220.031,41.809,-13.244,1
2.610986,0.884,0.485,-0.222,210.998,43.151,-14.404,1
2.618295,0.874,0.475,-0.227,207.885,43.823,-15.441,1
2.624987,0.895,0.468,-0.245,210.021,44.067,-16.601,1
2.633068,0.934,0.449,-0.255,213.439,43.701,-17.15,1
2.639951,0.949,0.437,-0.274,215.576,44.189,-17.456,1
2.648322,0.946,0.416,-0.296,213.317,44.677,-17.883,1
2.655073,0.942,0.406,-0.297,206.787,46.508,-17.883,1
2.662142,0.933,0.399,-0.305,198.791,48.706,-18.066,1
2.670467,0.931,0.395,-0.299,192.565,50.964,-18.188,1
2.679096,0.932,0.397,-0.288,187.011,53.222,-18.432,1
2.685657,0.922,0.417,-0.277,184.753,54.809,-18.798,1
2.692652,0.912,0.426,-0.269,185.363,56.03,-19.287,1
2.700897,0.901,0.433,-0.267,186.828,57.312,-19.592,1
2.707505,0.885,0.449,-0.286,187.866,58.471,-19.897,1
2.715859,0.871,0.454,-0.306,183.837,59.631,-20.141,1
2.722705,0.892,0.457,-0.328,173.645,61.035,-20.751,1
2.729236,0.895,0.481,-0.348,163.452,62.561,-21.423,1
2.736523,0.939,0.49,-0.36,152.404,63.598,-22.521,1
2.744429,0.948,0.5,-0.378,146.789,64.025,-23.376,1
2.751517,0.966,0.53,-0.387,147.216,64.208,-24.291,1
2.760048,0.967,0.566,-0.399,150.695,64.453,-24.963,1
2.76663,0.949,0.59,-0.402,157.348,63.598,-26.611,1
2.774949,0.908,0.606,-0.418,164.733,64.147,-27.526,1
2.783677,0.864,0.633,-0.414,174.316,62.866,-28.93,1
2.790298,0.837,0.651,-0.456,181.335,63.72,-30.761,1
2.797279,0.831,0.675,-0.454,180.541,64.27,-32.592,1
2.805157,0.815,0.69,-0.48,174.133,66.223,-34.729,1
2.813357,0.774,0.7,-0.52,161.621,67.138,-36.804,1
2.821804,0.768,0.688,-0.543,143.432,68.847,-38.818,1
2.828798,0.798,0.691,-0.575,128.051,69.641,-41.503,1
2.835568,0.813,0.702,-0.61,119.018,69.763,-44.067,1
2.843874,0.833,0.713,-0.644,112.426,69.946,-46.63,1
2.85086,0.902,0.689,-0.67,106.201,68.237,-49.621,1
2.858981,0.865,0.701,-0.705,102.722,68.969,-51.452,1
2.866508,0.893,0.724,-0.734,101.257,66.345,-54.26,1
2.874811,0.877,0.701,-0.717,105.712,65.307,-56.396,1
2.881896,0.861,0.704,-0.768,102.355,63.72,-58.776,1
2.888428,0.821,0.703,-0.776,99.67,62.683,-61.035,1
2.895481,0.783,0.7,-0.817,96.435,61.828,-62.866,1
2.903275,0.762,0.692,-0.836,91.796,59.936,-65.979,1
2.911944,0.731,0.682,-0.859,90.148,59.326,-68.786,1
2.92025,0.704,0.666,-0.875,87.829,56.884,-72.082,1
2.928619,0.69,0.65,-0.887,88.623,55.358,-75.561,1
2.935016,0.675,0.629,-0.891,90.332,53.466,-78.552,1
2.943904,0.662,0.606,-0.903,92.895,51.635,-81.115,1
2.950475,0.654,0.581,-0.924,92.834,49.926,-83.129,1
2.958942,0.651,0.55,-0.946,86.303,48.522,-85.388,1
2.965658,0.65,0.541,-0.96,75.744,46.936,-87.768,1
2.973979,0.653,0.527,-0.983,68.237,44.372,-90.332,1
2.982805,0.664,0.51,-0.987,66.04,41.809,-92.59,1
2.991507,0.674,0.48,-0.999,68.542,37.78,-95.153,1
2.998148,0.684,0.432,-1.003,73.425,33.874,-97.412,1
3.00482,0.668,0.375,-0.997,76.782,30.517,-98.999,1
3.013637,0.652,0.319,-0.992,77.575,27.587,-100.158,1
3.020387,0.642,0.261,-0.982,77.209,24.841,-101.44,1
3.027309,0.631,0.2,-0.969,77.209,22.766,-101.867,1
3.036069,0.644,0.136,-0.958,77.27,20.019,-101.989,1
3.043092,0.641,0.075,-0.95,83.862,15.991,-100.952,1
3.051383,0.667,0.01,-0.938,95.092,12.573,-98.51,1
3.058849,0.723,-0.053,-0.945,107.482,8.972,-95.458,1
3.066933,0.767,-0.125,-0.934,118.103,5.615,-91.918,1
3.074144,0.832,-0.183,-0.927,123.291,3.417,-89.172,1
3.081645,0.861,-0.225,-0.898,125.427,1.098,-86.425,1
3.088763,0.862,-0.254,-0.877,128.173,0.0,-83.251,1
3.097677,0.83,-0.27,-0.865,127.929,-1.464,-79.711,1
3.104338,0.787,-0.274,-0.865,122.253,-1.953,-76.293,1
3.11158,0.743,-0.265,-0.862,115.966,-3.234,-73.059,1
3.119481,0.727,-0.247,-0.851,114.013,-4.394,-70.251,1
3.127997,0.713,-0.246,-0.813,115.478,-6.042,-67.871,1
3.134993,0.72,-0.269,-0.842,111.877,-6.53,-64.514,1
3.143411,0.746,-0.27,-0.825,100.708,-7.141,-62.011,1
3.152152,0.763,-0.258,-0.821,90.026,-6.896,-59.57,1
3.160448,0.805,-0.238,-0.817,80.81,-8.178,-56.335,1
3.16896,0.835,-0.213,-0.814,79.345,-9.643,-54.077,1
3.176003,0.848,-0.203,-0.813,80.627,-11.596,-51.269,1
3.184559,0.865,-0.202,-0.819,79.101,-12.634,-49.072,1
3.19116,0.878,-0.191,-0.831,74.646,-14.038,-46.936,1
3.199295,0.905,-0.166,-0.84,69.396,-15.319,-44.799,1
3.20748,0.935,-0.131,-0.843,66.772,-16.723,-43.09,1
3.214015,0.947,-0.103,-0.85,66.406,-18.554,-41.625,1
3.222807,0.949,-0.073,-0.853,66.04,-20.202,-40.405,1
3.229849,0.946,-0.043,-0.866,63.964,-21.789,-39.794,1
3.237091,0.945,-0.001,-0.885,61.035,-23.803,-39.184,1
3.245441,0.943,0.046,-0.892,57.922,-26.306,-39.367,1
3.254346,0.958,0.09,-0.896,55.786,-29.174,-39.428,1
3.261412,0.971,0.127,-0.893,51.147,-31.494,-39.672,1
3.26825,0.993,0.167,-0.887,42.236,-33.447,-40.283,1
3.276708,0.989,0.215,-0.886,32.897,-35.461,-41.076,1
3.28349,0.982,0.261,-0.875,24.414,-37.719,-41.992,1
3.291886,0.973,0.298,-0.859,15.808,-39.245,-43.334,1
3.299722,0.972,0.337,-0.847,8.544,-41.687,-44.86,1
3.30858,0.965,0.365,-0.814,5.432,-43.884,-46.691,1
3.316045,0.949,0.4,-0.778,9.094,-44.738,-48.522,1
3.324919,0.973,0.414,-0.73,16.601,-46.874,-51.208,1
3.332523,0.961,0.433,-0.675,24.414,-47.424,-54.199,1
3.341338,0.99,0.398,-0.631,27.038,-47.729,-57.678,1
3.347617,1.078,0.357,-0.594,15.869,-47.18,-60.607,1
3.356998,1.042,0.351,-0.539,5.249,-46.386,-62.133,1
3.365084,1.0,0.376,-0.496,-1.464,-45.532,-64.27,1
3.371868,0.96,0.373,-0.451,5.065,-45.471,-65.612,1
3.379905,0.906,0.343,-0.437,16.052,-45.532,-66.711,1
3.388564,0.866,0.305,-0.384,24.536,-44.921,-67.26,1
3.395281,0.788,0.324,-0.377,34.912,-44.128,-69.091,1
3.403714,0.752,0.33,-0.334,52.307,-43.457,-72.57,1
3.411997,0.802,0.278,-0.348,61.523,-43.823,-75.439,1
3.418706,0.813,0.235,-0.298,67.26,-42.419,-78.918,1
3.426576,0.736,0.212,-0.286,70.129,-41.137,-81.604,1
3.434894,0.701,0.193,-0.241,70.556,-38.146,-83.557,1
3.441976,0.719,0.163,-0.249,64.514,-36.499,-85.205,1
3.450303,0.747,0.149,-0.206,57.861,-34.729,-86.914,1
3.456735,0.779,0.141,-0.185,56.701,-33.691,-88.745,1
3.46471,0.773,0.131,-0.127,63.049,-32.531,-90.209,1
3.47325,0.77,0.106,-0.106,73.242,-31.005,-91.735,1
3.480035,0.748,0.092,-0.093,85.449,-29.357,-92.834,1
3.488218,0.743,0.072,-0.098,98.022,-26.916,-94.238,1
3.496958,0.762,0.056,-0.121,105.529,-25.024,-94.787,1
3.505214,0.768,0.04,-0.138,110.168,-22.583,-95.764,1
3.512271,0.803,0.045,-0.181,112.304,-19.775,-97.167,1
3.520632,0.868,0.05,-0.2,112.854,-18.127,-99.365,1
3.529308,0.997,0.057,-0.223,115.539,-16.418,-102.05,1
3.537576,1.077,0.052,-0.24,124.084,-15.197,-106.14,1
3.544634,1.144,0.024,-0.259,134.094,-14.465,-109.497,1
3.552824,1.194,-0.031,-0.273,140.258,-13.305,-111.816,1
3.559893,1.258,-0.136,-0.263,139.16,-9.826,-112.365,1
3.568247,1.314,-0.225,-0.277,123.474,-5.31,-111.083,1
3.575435,1.326,-0.298,-0.288,95.336,-1.464,-108.093,1
3.583369,1.265,-0.333,-0.269,65.917,1.953,-103.637,1
3.590288,1.173,-0.317,-0.243,46.813,5.615,-98.937,1
3.597314,1.018,-0.256,-0.208,40.771,8.85,-95.031,1
3.607054,0.859,-0.19,-0.203,43.212,10.986,-92.407,1
3.614418,0.667,-0.131,-0.204,46.813,12.756,-91.369,1
3.62294,0.563,-0.106,-0.221,47.668,15.014,-91.308,1
3.630374,0.494,-0.095,-0.234,45.288,16.235,-91.674,1
3.637575,0.421,-0.083,-0.241,43.151,18.615,-92.102,1
3.646711,0.387,-0.1,-0.246,39.245,19.897,-92.895,1
3.654624,0.33,-0.113,-0.236,36.01,22.216,-93.872,1
3.662488,0.299,-0.139,-0.236,32.958,23.681,-94.665,1
3.672291,0.275,-0.166,-0.223,28.93,26.184,-95.947,1
3.679121,0.267,-0.213,-0.223,22.766,28.32,-97.167,1
3.687254,0.287,-0.246,-0.225,17.15,30.761,-98.449,1
3.695223,0.306,-0.279,-0.209,13.183,32.836,-99.914,1
3.703567,0.317,-0.305,-0.204,13.732,34.912,-101.562,1
3.710253,0.32,-0.345,-0.192,16.662,36.743,-102.783,1
3.718826,0.317,-0.374,-0.19,21.667,39.001,-103.393,1
3.725836,0.307,-0.409,-0.187,27.832,41.564,-104.125,1
3.732849,0.311,-0.47,-0.213,30.944,45.471,-104.37,1
3.741124,0.328,-0.551,-0.242,24.169,49.316,-104.003,1
3.749802,0.341,-0.623,-0.256,10.986,54.26,-102.722,1
3.756892,0.342,-0.683,-0.27,0.061,58.593,-100.891,1
3.763942,0.326,-0.732,-0.253,-1.098,62.561,-98.144,1
3.771709,0.362,-0.796,-0.25,8.178,66.223,-94.665,1
3.779994,0.363,-0.842,-0.26,23.803,69.396,-90.454,1
3.788105,0.28,-0.875,-0.279,41.442,72.021,-85.327,1
3.7951,0.304,-0.962,-0.328,56.152,76.049,-78.613,1
3.803159,0.268,-1.038,-0.368,55.908,79.04,-71.96,1
3.811403,0.215,-1.101,-0.41,48.339,83.435,-64.392,1
3.819483,0.22,-1.173,-0.473,30.517,87.646,-56.579,1
3.826264,0.161,-1.246,-0.517,3.356,92.529,-48.461,1
3.833759,0.082,-1.281,-0.573,-21.85,97.229,-39.55,1
3.842158,0.017,-1.294,-0.651,-38.635,100.646,-30.517,1
3.849338,-0.079,-1.319,-0.717,-53.894,103.698,-19.958,1
3.857589,-0.19,-1.354,-0.779,-67.626,105.468,-11.108,1
3.866222,-0.347,-1.357,-0.827,-78.369,107.177,-2.136,1
3.874783,-0.437,-1.358,-0.898,-81.298,106.262,7.995,1
3.881571,-0.527,-1.391,-0.946,-82.214,105.163,16.906,1
3.89021,-0.611,-1.414,-1.011,-77.636,102.966,26.55,1
3.898081,-0.693,-1.44,-1.062,-60.852,98.693,36.621,1
3.90462,-0.798,-1.511,-1.129,-45.043,94.726,46.997,1
3.91253,-0.96,-1.545,-1.145,-31.311,90.454,60.668,1
3.920859,-0.877,-1.641,-1.196,-22.216,86.669,72.509,1
3.928959,-0.947,-1.72,-1.214,-32.958,85.327,86.12,1
3.93585,-1.018,-1.75,-1.211,-44.677,82.519,100.646,1
3.94472,-1.009,-1.821,-1.219,-48.767,80.2,115.173,1
3.951295,-1.18,-1.774,-1.189,-47.058,78.857,130.859,1
3.958148,-1.164,-1.834,-1.187,-47.18,74.462,146.667,1
3.966538,-1.274,-1.814,-1.13,-37.658,72.448,163.757,1
3.974101,-1.397,-1.777,-1.107,-18.615,66.894,180.725,1
3.980845,-1.508,-1.741,-1.049,12.939,62.194,199.279,1
3.989111,-1.696,-1.731,-1.032,45.227,55.053,217.956,1
3.996081,-1.833,-1.791,-1.006,57.312,50.231,237.609,1
4.002981,-1.959,-1.825,-0.997,45.654,46.874,259.155,1
4.011444,-2.075,-1.78,-0.969,39.611,43.945,277.771,1
4.019791,-2.294,-1.701,-0.951,44.86,39.062,300.598,1
4.026467,-2.648,-1.639,-0.953,45.898,32.104,328.002,1
4.034228,-2.923,-1.575,-0.946,44.555,27.282,352.111,1
4.042809,-3.202,-1.479,-0.958,48.4,20.385,376.464,1
4.049663,-3.51,-1.404,-0.96,55.236,13.916,401.672,1
4.057062,-3.775,-1.332,-0.987,57.189,5.676,427.124,1
4.065404,-4.219,-1.296,-0.989,45.104,-0.793,453.918,1
4.073439,-4.678,-1.22,-0.974,28.747,-7.995,481.811,1
4.081654,-5.156,-1.09,-0.973,38.574,-18.554,515.625,1
4.089796,-5.555,-1.02,-1.034,68.115,-31.127,545.898,1
4.096498,-6.047,-1.001,-1.107,90.209,-46.325,576.965,1
4.104365,-6.861,-0.936,-1.207,94.665,-63.415,608.703,1
4.11216,-7.553,-0.865,-1.302,97.045,-81.665,641.357,1
4.12111,-8.34,-0.789,-1.41,103.515,-107.177,679.321,1
4.129313,-9.257,-0.708,-1.493,111.083,-131.713,712.585,1
4.136311,-10.491,-0.595,-1.598,117.797,-159.973,745.544,1
4.14473,-11.707,-0.48,-1.652,126.342,-195.983,783.691,1
4.152527,-13.183,-0.338,-1.655,133.239,-229.309,815.673,1
4.160689,-14.848,-0.17,-1.58,134.887,-262.695,846.191,1
4.167484,-15.999,0.005,-1.443,112.121,-298.584,883.666,1
4.175497,-15.999,0.242,-1.291,88.623,-322.692,911.254,1
4.183863,-15.999,0.495,-1.109,79.223,-354.492,944.519,1
4.190472,-15.999,0.883,-0.852,103.149,-390.075,975.83,1
4.199186,-15.999,1.249,-0.621,153.686,-437.072,1002.746,1
4.207172,-15.999,1.666,-0.348,244.628,-504.76,1025.573,1
4.215551,-15.999,2.208,-0.033,370.056,-592.773,1033.874,1
4.223428,-15.999,2.583,0.313,490.417,-684.57,1025.146,1
4.231837,-15.999,2.986,0.755,595.52,-788.818,999.45,1
4.239736,-15.999,3.322,1.428,677.978,-916.992,947.57,1
4.246206,-15.999,3.879,2.19,781.188,-1023.864,881.591,1
4.254462,-15.999,4.363,2.843,932.373,-1125.854,789.55,1
4.261415,-15.999,4.926,3.063,1122.436,-1212.951,673.828,1
4.269897,-15.999,5.46,3.635,1447.753,-1321.411,483.337,1
4.276225,-15.999,4.717,3.546,1772.949,-1408.996,225.341,1
4.285724,-15.999,4.095,3.292,1969.299,-1411.376,-75.561,1
4.292339,-15.999,3.149,3.0,1849.792,-1303.527,-422.607,1
4.300659,-15.999,2.185,2.988,1561.34,-1113.525,-646.24,1
4.30758,-15.999,1.537,2.756,1229.553,-936.218,-788.513,1
4.31609,-15.999,1.322,2.875,962.951,-755.004,-867.248,1
4.325068,-15.999,1.041,2.386,767.883,-614.379,-907.409,1
4.33139,-15.999,0.892,2.042,600.402,-478.149,-921.325,1
4.33831,-15.999,0.806,1.803,494.995,-386.352,-918.273,1
4.346579,-15.999,0.779,1.739,453.308,-319.396,-908.691,1
4.354993,-15.612,0.676,1.546,441.345,-241.027,-891.784,1
4.363207,-14.612,0.479,1.415,440.673,-176.147,-872.497,1
4.369989,-13.614,0.242,1.191,417.968,-118.469,-848.571,1
4.377751,-12.662,0.003,1.084,376.281,-62.927,-819.519,1
4.384666,-11.81,-0.189,0.971,312.683,-17.517,-787.17,1
4.392794,-11.221,-0.239,0.965,259.277,21.484,-752.38,1
4.399409,-10.513,-0.229,0.875,231.384,48.889,-719.36,1
4.40811,-9.656,-0.312,0.782,222.167,72.509,-687.133,1
4.414987,-8.861,-0.485,0.655,205.078,91.735,-654.418,1
4.422112,-8.148,-0.63,0.563,178.283,109.863,-622.009,1
4.430234,-7.438,-0.771,0.486,141.052,124.206,-590.026,1
4.437898,-6.801,-0.87,0.435,102.966,134.277,-559.875,1
4.444825,-6.28,-0.915,0.371,84.716,141.174,-530.883,1
4.453035,-5.812,-0.974,0.377,81.848,145.874,-502.868,1
4.460268,-5.332,-1.044,0.314,81.909,148.803,-475.891,1
4.467228,-4.906,-1.116,0.276,78.247,151.794,-449.462,1
4.475042,-4.487,-1.187,0.23,72.57,154.296,-423.4,1
4.483352,-4.129,-1.226,0.191,70.19,155.395,-398.376,1
4.489989,-3.832,-1.272,0.152,69.519,156.677,-377.685,1
4.496868,-3.578,-1.322,0.114,59.875,155.029,-353.393,1
4.504927,-3.175,-1.344,0.082,58.776,155.151,-331.359,1
4.512022,-2.863,-1.429,0.051,56.03,152.832,-308.471,1
4.519841,-2.709,-1.442,0.06,53.833,152.587,-285.339,1
4.528179,-2.557,-1.455,0.05,48.095,148.193,-263.977,1
4.536011,-2.358,-1.469,0.086,44.677,147.155,-243.286,1
4.544434,-2.184,-1.497,0.073,38.146,143.981,-223.327,1
4.550823,-1.986,-1.503,0.119,30.334,143.615,-203.979,1
4.55923,-1.835,-1.491,0.122,21.362,141.052,-182.739,1
4.566004,-1.714,-1.483,0.156,17.639,140.563,-165.771,1
4.574436,-1.613,-1.487,0.147,14.709,139.648,-152.404,1
4.581685,-1.486,-1.499,0.165,10.864,139.587,-136.535,1
4.590369,-1.375,-1.489,0.152,4.882,139.892,-118.53,1
4.59672,-1.3,-1.458,0.156,1.525,139.648,-104.248,1
4.605358,-1.242,-1.424,0.148,-0.915,140.014,-90.698,1
4.6132,-1.151,-1.398,0.138,-3.784,139.953,-77.941,1
4.62109,-1.051,-1.381,0.118,-9.582,139.77,-62.988,1
4.62811,-0.977,-1.352,0.104,-14.892,138.977,-50.659,1
4.636035,-0.94,-1.32,0.098,-19.226,138.061,-38.879,1
4.64518,-0.89,-1.304,0.077,-26.0,137.084,-27.832,1
4.651919,-0.81,-1.282,0.059,-37.292,135.803,-15.808,1
4.65994,-0.738,-1.245,0.033,-42.724,132.446,-6.469,1
4.668683,-0.674,-1.212,0.023,-40.588,128.234,2.624,1
4.675946,-0.599,-1.21,0.008,-33.813,122.863,11.169,1
4.684683,-0.513,-1.223,-0.001,-27.893,116.943,19.714,1
4.691314,-0.402,-1.237,-0.005,-26.245,111.328,27.832,1
4.699259,-0.313,-1.222,0.008,-23.071,104.431,36.987,1
4.706141,-0.262,-1.183,0.041,-15.197,99.243,43.457,1
4.714568,-0.187,-1.167,0.059,-0.671,91.247,51.635,1
4.721053,-0.126,-1.143,0.082,1.403,86.364,57.556,1
4.729338,-0.052,-1.104,0.117,5.065,81.115,64.025,1
4.7372,0.023,-1.065,0.141,5.31,75.378,70.8,1
4.744,0.119,-1.02,0.168,2.685,71.166,76.599,1
4.751221,0.248,-0.96,0.203,2.807,66.406,81.481,1
4.759001,0.351,-0.893,0.242,6.958,62.255,85.327,1
4.76785,0.479,-0.833,0.275,14.038,57.617,89.233,1
4.774604,0.549,-0.763,0.322,23.681,52.429,92.407,1
4.781401,0.613,-0.68,0.355,36.193,47.607,95.275,1
4.788306,0.645,-0.61,0.388,43.518,42.968,97.778,1
4.795044,0.689,-0.547,0.407,48.461,40.222,99.609,1
4.80297,0.702,-0.496,0.42,49.316,36.865,100.83,1
4.810006,0.75,-0.447,0.426,45.593,34.118,101.989,1
4.817865,0.828,-0.401,0.434,38.574,32.592,103.088,1
4.824863,0.876,-0.329,0.451,35.217,31.127,103.759,1
4.833524,0.991,-0.25,0.469,35.644,28.991,104.858,1
4.840621,1.004,-0.164,0.485,42.785,27.221,105.285,1
4.849366,1.0,-0.072,0.495,55.297,24.597,104.431,1
4.856469,0.99,-0.007,0.499,65.917,22.399,103.027,1
4.862975,0.99,0.044,0.493,75.012,20.08,100.585,1
4.869633,1.004,0.074,0.501,82.092,18.615,98.876,1
4.87757,1.012,0.105,0.505,86.853,17.517,95.947,1
4.88433,1.028,0.131,0.514,88.378,17.517,93.383,1
4.8921,1.045,0.153,0.512,87.463,17.7,90.82,1
4.898638,1.075,0.183,0.519,86.486,17.456,88.073,1
4.907173,1.121,0.206,0.529,88.867,17.822,85.327,1
4.913582,1.132,0.248,0.538,95.886,17.883,83.007,1
4.921134,1.136,0.284,0.521,104.431,17.761,80.627,1
4.928055,1.141,0.302,0.511,114.196,17.761,77.636,1
4.93483,1.154,0.314,0.481,120.3,17.822,74.768,1
4.943033,1.159,0.333,0.463,122.192,18.249,71.96,1
4.950291,1.16,0.353,0.454,122.802,18.554,69.885,1
4.956978,1.168,0.374,0.45,123.718,19.104,67.26,1
4.964165,1.172,0.397,0.446,125.305,20.141,64.819,1
4.971013,1.167,0.413,0.446,127.197,20.996,62.133,1
4.978176,1.153,0.426,0.437,129.333,21.789,58.837,1
4.985155,1.134,0.426,0.428,130.126,22.46,56.518,1
4.992283,1.118,0.43,0.423,129.699,23.498,53.833,1
5.000099,1.111,0.422,0.413,128.417,24.536,51.025,1
5.006848,1.114,0.41,0.41,126.892,25.451,49.255,1
5.013882,1.118,0.397,0.405,125.732,26.977,47.302,1
5.02073,1.121,0.401,0.392,126.831,28.137,45.532,1
5.027685,1.11,0.405,0.39,130.798,28.93,43.762,1
5.036093,1.095,0.403,0.381,138.0,29.602,42.175,1
5.043262,1.078,0.399,0.38,145.629,30.151,40.954,1
5.049999,1.046,0.411,0.383,154.113,31.127,39.916,1
5.057428,1.018,0.423,0.369,160.522,31.616,38.879,1
5.06502,0.957,0.438,0.36,166.259,32.653,37.414,1
5.071941,0.924,0.436,0.334,168.151,33.935,35.766,1
5.080025,0.964,0.399,0.323,164.184,35.339,34.729,1
5.086972,0.999,0.383,0.3,160.4,36.621,34.24,1
5.093677,1.023,0.385,0.3,158.386,37.475,34.057,1
5.101917,1.041,0.395,0.309,162.17,39.123,33.386,1
5.108684,1.05,0.413,0.307,171.936,39.733,32.897,1
5.115485,1.062,0.414,0.311,183.776,40.466,32.836,1
5.122689,1.087,0.389,0.294,188.903,40.771,33.752,1
5.130813,1.085,0.413,0.298,193.908,42.114,34.179,1
5.137598,1.064,0.429,0.269,196.533,42.846,33.996,1
5.146307,1.009,0.449,0.267,197.509,44.067,34.24,1
5.152548,0.993,0.445,0.23,194.702,44.677,34.423,1
5.160567,0.983,0.447,0.229,190.917,45.776,34.545,1
5.167296,0.974,0.462,0.218,187.499,47.851,34.851,1
5.175446,0.961,0.472,0.205,184.509,49.499,34.729,1
5.182473,0.961,0.487,0.214,183.593,51.086,34.606,1
5.19082,0.955,0.495,0.214,183.41,51.94,34.423,1
5.19812,0.93,0.502,0.232,182.617,53.405,34.667,1
5.204658,0.898,0.508,0.238,180.725,54.138,34.729,1
5.211601,0.859,0.51,0.242,177.307,55.175,35.156,1
5.219636,0.818,0.516,0.239,171.081,56.396,35.522,1
5.226505,0.8,0.501,0.24,163.269,58.227,36.254,1
5.234455,0.767,0.519,0.26,156.188,60.546,36.987,1
5.241548,0.761,0.542,0.277,156.86,62.683,36.987,1
5.249556,0.721,0.56,0.3,164.672,63.537,36.621,1
5.256394,0.703,0.56,0.318,175.964,65.246,36.499,1
5.264332,0.687,0.533,0.314,185.485,66.894,37.231,1
5.270715,0.682,0.503,0.32,188.293,68.237,38.574,1
5.277654,0.707,0.473,0.324,185.485,70.861,40.954,1
5.285646,0.751,0.453,0.303,177.246,74.218,44.128,1
5.292438,0.758,0.467,0.285,171.752,76.232,47.119,1
5.300688,0.756,0.483,0.245,163.94,77.941,50.415,1
5.30729,0.755,0.509,0.226,154.479,80.139,53.894,1
5.314376,0.747,0.566,0.175,148.925,81.542,57.25,1
5.322709,0.745,0.645,0.152,151.611,81.176,60.546,1
5.329759,0.76,0.699,0.107,161.987,80.566,63.842,1
5.336708,0.745,0.769,0.082,173.645,78.674,65.307,1
5.345006,0.708,0.812,0.064,187.683,77.27,67.749,1
5.352133,0.677,0.894,0.047,197.631,77.026,70.007,1
5.35913,0.628,0.987,-0.011,203.247,76.965,70.556,1
5.367794,0.5,1.124,-0.038,208.129,77.331,70.556,1
5.37481,0.52,1.226,-0.095,210.815,76.721,69.213,1
5.383528,0.483,1.272,-0.123,210.876,76.354,67.687,1
5.390596,0.451,1.328,-0.217,211.059,77.758,65.49,1
5.396705,0.446,1.405,-0.201,213.439,76.232,61.279,1
5.405037,0.44,1.42,-0.236,219.177,76.599,57.189,1
5.411716,0.478,1.416,-0.264,224.548,76.293,53.039,1
5.420671,0.55,1.418,-0.236,225.769,77.392,49.255,1
5.426482,0.609,1.445,-0.21,222.961,78.674,45.654,1
5.433472,0.656,1.459,-0.175,217.041,81.848,41.503,1
5.441197,0.687,1.478,-0.159,212.707,84.289,37.353,1
5.449591,0.712,1.487,-0.138,214.233,86.791,33.264,1
5.45659,0.714,1.502,-0.112,225.891,87.158,29.541,1
5.465284,0.759,1.45,-0.122,238.342,86.669,26.367,1
5.472121,0.769,1.376,-0.069,240.844,88.684,24.23,1
5.478696,0.816,1.332,-0.111,232.666,91.125,22.399,1
5.486757,0.835,1.302,-0.105,216.308,94.909,20.69,1
5.493424,0.89,1.298,-0.132,197.998,99.365,19.287,1
5.500403,0.911,1.333,-0.164,175.781,102.111,16.54,1
5.50855,0.916,1.368,-0.169,162.292,106.201,13.732,1
5.515437,0.918,1.373,-0.195,153.076,108.276,9.765,1
5.522226,0.854,1.387,-0.208,149.475,110.656,6.53,1
5.530168,0.852,1.366,-0.235,151.062,112.487,2.38,1
5.536816,0.847,1.338,-0.258,156.188,114.44,-1.77,1
5.54395,0.846,1.302,-0.305,156.86,115.905,-4.882,1
5.551842,0.854,1.282,-0.358,150.878,117.492,-7.873,1
5.558727,0.863,1.276,-0.398,135.437,118.835,-10.803,1
5.56579,0.814,1.329,-0.44,126.159,120.117,-14.404,1
5.574522,0.831,1.344,-0.479,119.323,120.239,-18.737,1
5.58109,0.821,1.324,-0.528,108.642,120.483,-22.949,1
5.588113,0.726,1.354,-0.566,103.027,120.666,-26.855,1
5.596148,0.726,1.34,-0.589,99.853,119.384,-31.677,1
5.604232,0.693,1.306,-0.632,96.618,118.896,-36.437,1
5.612209,0.684,1.262,-0.678,92.407,116.699,-40.71,1
5.618887,0.701,1.192,-0.71,88.5,115.234,-44.616,1
5.626813,0.72,1.163,-0.757,85.205,112.731,-48.583,1
5.635131,0.732,1.156,-0.784,83.557,110.107,-51.635,1
5.643043,0.73,1.16,-0.816,82.458,106.994,-54.565,1
5.649633,0.748,1.163,-0.841,82.031,103.271,-57.8,1
5.658315,0.749,1.162,-0.836,85.388,99.243,-60.913,1
5.665321,0.753,1.158,-0.833,92.346,94.482,-63.903,1
5.673573,0.766,1.138,-0.822,101.379,89.904,-66.528,1
5.680519,0.761,1.136,-0.827,123.413,86.975,-69.091,1
5.689002,0.755,1.071,-0.782,142.883,78.063,-71.411,1
5.695525,0.746,0.986,-0.779,154.602,75.805,-72.204,1
5.704047,0.733,0.952,-0.774,155.334,71.533,-72.937,1
5.712535,0.717,0.924,-0.722,151.794,69.763,-73.486,1
5.719044,0.694,0.91,-0.713,141.662,66.772,-74.829,1
5.728024,0.703,0.884,-0.675,133.911,65.551,-75.5,1
5.735085,0.695,0.86,-0.663,123.168,63.232,-76.538,1
5.743821,0.67,0.836,-0.633,113.769,62.133,-77.514,1
5.750597,0.669,0.79,-0.616,106.628,60.363,-78.613,1
5.758408,0.651,0.748,-0.583,101.196,58.288,-79.223,1
5.765342,0.642,0.684,-0.566,96.984,56.518,-79.895,1
5.7733,0.636,0.629,-0.548,94.726,54.565,-80.444,1
5.780242,0.649,0.585,-0.534,95.764,52.673,-80.566,1
5.787412,0.678,0.551,-0.522,100.891,50.415,-80.139,1
5.795488,0.689,0.522,-0.517,104.98,48.156,-79.345,1
5.802222,0.7,0.497,-0.52,103.088,46.569,-78.308,1
5.810081,0.705,0.497,-0.516,93.933,45.166,-76.904,1
5.816989,0.706,0.501,-0.52,84.411,44.372,-76.293,1
5.824818,0.675,0.523,-0.536,70.861,42.846,-75.195,1
5.831747,0.656,0.542,-0.558,56.274,41.137,-74.89,1
5.838848,0.661,0.561,-0.583,43.395,39.062,-74.646,1
5.846651,0.668,0.583,-0.609,35.705,35.949,-74.829,1
5.855014,0.676,0.591,-0.635,35.217,32.775,-74.768,1
5.862076,0.673,0.602,-0.65,42.541,28.259,-74.584,1
5.868622,0.672,0.583,-0.66,54.504,23.559,-74.646,1
5.875537,0.672,0.557,-0.659,66.955,18.92,-74.157,1
5.882541,0.685,0.524,-0.648,76.66,15.441,-73.73,1
5.890988,0.7,0.501,-0.63,82.824,12.634,-73.181,1
5.897501,0.712,0.479,-0.604,90.148,10.253,-73.12,1
5.905447,0.723,0.458,-0.578,96.618,8.3,-72.753,1
5.912462,0.726,0.439,-0.55,100.219,7.019,-72.509,1
5.91949,0.727,0.415,-0.537,98.632,6.469,-72.326,1
5.927844,0.748,0.389,-0.536,91.857,6.591,-71.96,1
5.934272,0.758,0.374,-0.534,78.674,7.507,-71.594,1
5.94186,0.768,0.364,-0.527,62.561,8.361,-71.35,1
5.949855,0.805,0.335,-0.535,40.954,9.582,-71.655,1
5.956717,0.796,0.336,-0.527,21.911,9.948,-71.472,1
5.965346,0.791,0.318,-0.53,6.408,9.155,-72.143,1
5.972153,0.838,0.29,-0.527,-6.53,8.789,-72.143,1
5.979389,0.882,0.255,-0.531,-16.601,5.981,-72.204,1
5.988666,0.896,0.241,-0.498,-18.249,4.455,-71.044,1
5.996494,0.925,0.181,-0.502,-24.78,1.403,-70.007,1
6.0044,0.901,0.16,-0.484,-35.583,1.037,-66.406,1
6.011335,0.864,0.087,-0.459,-48.461,1.525,-59.631,1
6.019651,0.874,0.132,-0.46,-52.612,3.723,-55.358,1
6.026591,0.912,0.187,-0.452,-43.701,1.098,-54.077,1
6.03457,0.909,0.241,-0.417,-11.23,-0.793,-54.87,1
6.042508,1.046,0.266,-0.413,33.081,-5.676,-57.739,1
6.049521,1.046,0.253,-0.414,87.524,-11.291,-60.852,1
6.057283,0.991,0.223,-0.407,118.103,-14.221,-62.133,1
6.06438,0.946,0.161,-0.415,139.587,-15.441,-62.255,1
6.072232,0.965,0.116,-0.417,142.517,-15.502,-61.523,1
6.080315,1.005,0.083,-0.406,134.216,-13.854,-60.241,1
6.088995,1.019,0.075,-0.374,122.192,-11.84,-58.349,1
6.095222,1.023,0.081,-0.334,110.656,-8.728,-56.579,1
6.103264,1.022,0.097,-0.311,100.952,-6.164,-54.565,1
6.110496,1.021,0.12,-0.288,92.041,-2.441,-53.71,1
6.118366,0.994,0.14,-0.291,83.74,-0.122,-53.283,1
6.12644,0.953,0.16,-0.305,74.462,0.732,-53.649,1
6.133152,0.963,0.162,-0.326,62.499,1.892,-54.138,1
6.141448,0.964,0.15,-0.346,51.086,1.77,-54.321,1
6.149244,0.956,0.145,-0.343,35.339,2.014,-54.016,1
6.156172,0.944,0.14,-0.331,23.559,2.258,-53.71,1
6.163774,0.929,0.125,-0.298,15.93,2.502,-53.649,1
6.171688,0.906,0.114,-0.27,12.817,2.136,-53.588,1
6.17879,0.854,0.099,-0.222,13.732,2.014,-53.466,1
6.186761,0.813,0.083,-0.193,18.371,1.586,-52.734,1
6.195565,0.74,0.065,-0.148,24.902,1.586,-52.062,1
6.202154,0.674,0.042,-0.11,32.226,1.586,-51.391,1
6.210792,0.607,0.026,-0.066,41.015,2.014,-50.781,1
6.217655,0.555,0.005,-0.032,53.283,2.99,-50.231,1
6.224744,0.527,-0.019,0.0,64.147,4.577,-49.987,1
6.234253,0.511,-0.046,0.019,73.303,6.896,-49.377,1
6.241033,0.484,-0.083,0.037,79.65,9.826,-48.95,1
6.248524,0.457,-0.118,0.035,81.665,14.16,-48.583,1
6.256808,0.45,-0.145,0.037,79.467,19.348,-47.912,1
6.263476,0.438,-0.181,0.029,71.166,25.39,-47.546,1
6.270372,0.406,-0.21,0.02,57.617,32.165,-46.813,1
6.278759,0.348,-0.241,0.013,37.475,38.757,-46.203,1
6.287154,0.289,-0.276,0.006,14.16,45.715,-44.738,1
6.293945,0.22,-0.303,-0.003,-7.629,52.368,-43.334,1
6.300912,0.177,-0.323,-0.028,-29.785,58.654,-41.564,1
6.309459,0.227,-0.325,-0.041,-42.846,63.659,-40.222,1
6.315906,0.216,-0.32,-0.037,-42.053,67.565,-38.696,1
6.324248,0.141,-0.318,-0.045,-31.982,69.946,-37.17,1
6.33084,0.113,-0.338,-0.063,-15.747,72.143,-34.545,1
6.33922,0.106,-0.374,-0.093,0.122,74.096,-31.86,1
6.345906,0.111,-0.418,-0.117,11.779,76.354,-28.747,1
6.354453,0.085,-0.474,-0.151,16.357,79.162,-25.146,1
6.362389,0.044,-0.53,-0.186,14.282,82.336,-21.484,1
6.368692,0.034,-0.568,-0.217,5.493,86.303,-15.441,1
6.377989,0.012,-0.609,-0.244,-5.31,89.843,-10.437,1
6.384704,-0.056,-0.648,-0.256,-19.897,93.749,-5.004,1
6.392527,-0.098,-0.687,-0.273,-37.963,98.388,1.77,1
6.400936,-0.126,-0.715,-0.275,-49.316,101.501,7.324,1
6.408755,-0.162,-0.74,-0.283,-58.593,105.041,14.099,1
6.415419,-0.192,-0.766,-0.279,-66.223,108.886,22.827,1
6.423142,-0.236,-0.776,-0.287,-72.082,112.854,30.456,1
6.431961,-0.3,-0.791,-0.287,-73.913,115.417,38.208,1
6.438222,-0.351,-0.804,-0.277,-72.753,118.774,46.813,1
6.446586,-0.393,-0.811,-0.288,-73.669,121.826,56.091,1
6.453313,-0.45,-0.821,-0.298,-75.5,125.793,65.734,1
6.460853,-0.546,-0.837,-0.316,-84.167,129.211,75.988,1
6.469569,-0.609,-0.84,-0.327,-91.918,132.995,86.303,1
6.476263,-0.68,-0.853,-0.323,-98.205,135.925,95.458,1
6.484809,-0.759,-0.868,-0.332,-111.328,141.113,109.619,1
6.491794,-0.83,-0.892,-0.34,-126.953,146.545,122.314,1
6.50019,-0.906,-0.927,-0.323,-144.409,153.198,135.131,1
6.508994,-0.929,-0.966,-0.323,-157.409,162.658,147.827,1
6.515761,-0.966,-1.018,-0.37,-164.978,171.142,160.644,1
6.522839,-1.094,-1.053,-0.392,-143.554,182.312,176.208,1
6.531347,-1.198,-1.054,-0.426,-109.68,186.279,188.476,1
6.539328,-1.371,-1.081,-0.466,-32.653,189.392,208.74,1
6.546302,-1.496,-1.179,-0.549,31.066,187.805,229.492,1
6.553512,-1.665,-1.264,-0.631,76.599,184.936,252.868,1
6.561421,-1.865,-1.31,-0.686,116.027,181.335,278.564,1
6.569397,-2.053,-1.403,-0.884,148.498,172.973,305.053,1
6.577766,-2.361,-1.46,-0.943,179.382,164.428,333.862,1
6.586199,-2.611,-1.471,-1.083,216.43,148.742,368.835,1
6.594118,-2.914,-1.477,-1.148,251.953,132.141,399.902,1
6.600641,-3.259,-1.473,-1.256,290.832,110.168,431.579,1
6.608979,-3.614,-1.464,-1.296,321.96,84.777,463.378,1
6.617659,-3.976,-1.445,-1.342,340.698,57.25,495.056,1
6.624297,-4.5,-1.36,-1.334,348.693,22.155,531.555,1
6.632123,-4.982,-1.246,-1.336,349.426,-9.582,561.218,1
6.640934,-5.473,-1.128,-1.271,345.825,-42.541,589.111,1
6.648741,-6.013,-1.019,-1.234,334.899,-74.768,615.051,1
6.655481,-6.569,-0.895,-1.184,314.575,-107.299,638.671,1
6.664182,-7.298,-0.711,-1.121,290.161,-137.695,660.522,1
6.671314,-7.948,-0.511,-1.059,264.648,-172.668,683.898,1
6.679861,-8.612,-0.287,-1.017,250.61,-201.66,702.209,1
6.688136,-9.391,-0.028,-0.973,242.919,-231.689,719.116,1
6.695932,-10.143,0.223,-0.931,244.262,-262.451,734.252,1
6.702621,-11.014,0.533,-0.895,266.479,-301.94,749.267,1
6.711262,-11.767,0.917,-0.865,319.763,-343.444,756.835,1
6.719304,-12.467,1.314,-0.747,416.381,-395.996,757.263,1
6.725839,-13.211,1.703,-0.619,535.095,-458.557,748.107,1
6.734175,-13.516,2.045,-0.492,659.362,-531.188,725.524,1
6.74107,-13.66,2.378,-0.256,789.611,-612.426,686.828,1
6.749306,-13.705,2.711,0.058,930.114,-696.166,628.234,1
6.757652,-13.419,2.852,0.479,1059.997,-777.77,547.363,1
6.764667,-12.747,2.681,0.879,1128.418,-843.444,449.89,1
6.77266,-12.141,2.347,1.249,1093.322,-879.272,325.805,1
6.779404,-12.435,2.481,1.575,1026.794,-880.676,214.965,1
6.787499,-12.551,2.871,1.905,1009.155,-865.539,100.708,1
6.79557,-12.599,2.925,1.9,1037.841,-853.942,-8.911,1
6.803341,-12.558,2.597,2.028,1051.147,-829.223,-120.361,1
6.811138,-12.198,2.083,1.957,955.871,-781.982,-223.327,1
6.819867,-11.394,1.639,1.987,769.836,-724.243,-302.124,1
6.826353,-10.332,1.592,2.098,599.182,-655.7,-363.098,1
6.834612,-9.292,1.537,2.072,545.41,-603.759,-399.475,1
6.842668,-8.451,1.43,2.001,547.607,-554.321,-429.809,1
6.849334,-7.791,1.259,1.854,562.316,-506.225,-457.885,1
6.858046,-7.333,1.042,1.69,563.232,-455.81,-482.788,1
6.865083,-6.944,0.831,1.55,534.484,-404.052,-502.624,1
6.873832,-6.562,0.625,1.509,485.351,-350.707,-516.235,1
6.880585,-6.22,0.48,1.481,423.217,-296.997,-523.681,1
6.888889,-5.916,0.386,1.416,350.463,-241.394,-525.695,1
6.897035,-5.808,0.335,1.355,301.269,-201.354,-523.925,1
6.905282,-5.713,0.283,1.297,253.784,-168.457,-519.775,1
6.912297,-5.634,0.237,1.268,234.68,-139.831,-514.953,1
6.920963,-5.42,0.174,1.229,234.313,-111.938,-508.544,1
6.928168,-5.274,0.063,1.189,240.356,-87.646,-502.197,1
6.936304,-5.029,-0.057,1.146,239.074,-63.72,-493.835,1
6.944665,-4.717,-0.175,1.112,240.112,-40.039,-483.52,1
6.950784,-4.282,-0.359,1.034,239.318,-17.395,-471.862,1
6.959137,-3.989,-0.506,0.959,226.806,4.15,-458.374,1
6.967546,-3.643,-0.692,0.852,186.889,25.756,-440.673,1
6.975223,-3.461,-0.784,0.823,146.179,42.968,-424.56,1
6.981965,-3.264,-0.832,0.798,111.267,57.006,-408.569,1
6.988904,-3.122,-0.856,0.794,89.904,67.26,-395.263,1
6.997184,-3.002,-0.871,0.765,70.495,77.27,-379.516,1
7.005471,-2.813,-0.889,0.736,56.091,85.571,-364.135,1
7.011996,-2.619,-0.878,0.713,57.617,91.43,-348.876,1
7.021044,-2.496,-0.946,0.648,58.776,95.092,-330.566,1
7.027748,-2.327,-1.018,0.636,62.744,97.717,-314.575,1
7.034673,-2.155,-1.069,0.608,68.725,100.585,-298.584,1
7.042951,-1.984,-1.138,0.575,75.744,101.867,-284.912,1
7.049594,-1.821,-1.176,0.551,81.909,105.59,-268.493,1
7.056713,-1.679,-1.232,0.5,78.43,107.666,-252.441,1
7.065019,-1.521,-1.264,0.454,66.955,111.572,-236.389,1
7.07222,-1.347,-1.273,0.4,45.715,113.586,-220.947,1
7.07901,-1.162,-1.252,0.395,35.278,115.661,-208.557,1
7.087323,-1.075,-1.213,0.352,21.728,116.149,-191.833,1
7.096055,-0.915,-1.153,0.364,29.113,115.112,-177.673,1
7.10347,-0.813,-1.127,0.324,38.818,114.746,-163.757,1
7.111729,-0.71,-1.068,0.311,48.461,113.22,-150.39,1
7.118644,-0.651,-1.014,0.286,60.974,112.365,-135.437,1
7.125581,-0.548,-0.956,0.256,64.819,111.633,-122.863,1
7.133987,-0.524,-0.896,0.239,64.819,111.267,-112.67,1
7.141067,-0.452,-0.853,0.215,61.218,111.145,-101.501,1
7.147532,-0.44,-0.786,0.204,55.541,111.022,-91.064,1
7.155507,-0.372,-0.738,0.191,49.255,110.839,-81.298,1
7.162408,-0.303,-0.717,0.18,35.888,111.755,-71.716,1
7.170732,-0.252,-0.684,0.165,17.395,112.365,-63.415,1
7.177649,-0.175,-0.651,0.157,5.187,112.731,-56.396,1
7.184574,-0.114,-0.618,0.155,-4.76,112.426,-49.133,1
7.193441,-0.072,-0.587,0.146,-12.084,111.572,-42.968,1
7.2013,-0.011,-0.565,0.127,-15.991,110.961,-36.682,1
7.208129,0.031,-0.537,0.122,-20.263,109.008,-30.029,1
7.215925,0.083,-0.5,0.117,-20.751,108.154,-25.817,1
7.223841,0.088,-0.426,0.129,-15.93,105.407,-20.385,1
7.230811,0.148,-0.397,0.128,-1.403,103.82,-15.747,1
7.238673,0.211,-0.39,0.113,11.291,100.463,-11.23,1
7.247094,0.275,-0.394,0.109,19.714,99.243,-5.737,1
7.253813,0.312,-0.375,0.088,20.324,97.534,-1.037,1
7.262069,0.353,-0.354,0.09,18.554,97.961,2.38,1
7.26909,0.392,-0.34,0.067,13.977,97.351,6.713,1
7.275799,0.391,-0.299,0.071,9.46,96.801,10.192,1
7.283887,0.456,-0.28,0.066,2.014,96.984,13.183,1
7.291751,0.511,-0.276,0.058,-6.53,96.923,16.479,1
7.300212,0.555,-0.256,0.063,-10.742,96.923,18.737,1
7.306916,0.593,-0.236,0.049,-13.061,96.191,20.935,1
7.315091,0.583,-0.207,0.05,-9.643,95.092,22.277,1
7.321749,0.553,-0.188,0.037,-4.15,94.299,23.193,1
7.329614,0.579,-0.167,0.039,3.723,92.651,24.536,1
7.337732,0.634,-0.166,0.05,15.502,91.369,25.634,1
7.344396,0.682,-0.166,0.051,28.564,90.209,26.672,1
7.351402,0.698,-0.179,0.057,35.278,89.965,27.526,1
7.358548,0.725,-0.185,0.062,39.916,90.087,28.869,1
7.366875,0.746,-0.218,0.059,36.499,90.759,30.517,1
7.373906,0.747,-0.241,0.063,27.526,92.346,32.531,1
7.380765,0.774,-0.24,0.056,15.319,94.238,34.362,1
7.389261,0.784,-0.232,0.055,5.249,95.886,35.339,1
7.395882,0.779,-0.247,0.039,-7.812,98.266,36.865,1
7.403933,0.774,-0.242,0.043,-21.118,101.013,38.635,1
7.412329,0.791,-0.232,0.028,-33.813,104.187,40.161,1
7.419034,0.761,-0.229,0.02,-47.973,106.689,41.503,1
7.427747,0.751,-0.219,0.019,-62.011,109.68,42.846,1
7.433544,0.731,-0.204,0.005,-74.829,111.45,43.762,1
7.441676,0.715,-0.19,0.013,-86.059,114.379,45.288,1
7.448219,0.727,-0.166,0.005,-94.421,115.905,46.447,1
7.456442,0.717,-0.153,0.015,-98.876,118.103,46.997,1
7.464965,0.7,-0.145,0.006,-103.637,120.544,48.217,1
7.472406,0.671,-0.131,0.012,-107.116,123.962,49.255,1
7.480645,0.696,-0.124,-0.001,-109.191,126.586,49.682,1
7.486755,0.724,-0.107,0.005,-107.299,129.394,49.377,1
7.496569,0.794,-0.105,-0.007,-98.815,130.371,48.828,1
7.504248,0.826,-0.089,0.025,-80.078,131.53,49.377,1
7.510695,0.815,-0.088,0.024,-56.518,131.958,50.476,1
7.519499,0.76,-0.073,0.043,-27.77,132.141,52.185,1
7.526115,0.714,-0.078,0.03,4.089,131.652,54.443,1
7.532699,0.681,-0.081,0.041,35.522,130.615,57.312,1
7.540999,0.682,-0.096,0.03,63.598,129.821,60.729,1
7.547937,0.682,-0.114,0.028,85.754,129.211,64.697,1
7.554884,0.684,-0.133,0.015,98.388,129.394,68.664,1
7.563165,0.677,-0.145,0.004,105.651,129.638,73.608,1
7.570991,0.649,-0.151,0.0,106.567,130.798,78.857,1
7.578115,0.627,-0.151,-0.015,102.539,131.896,83.679,1
7.58602,0.589,-0.141,-0.029,96.618,133.544,88.623,1
7.593969,0.55,-0.132,-0.036,89.782,135.131,93.078,1
7.601057,0.501,-0.117,-0.035,83.068,137.573,98.205,1
7.608833,0.47,-0.102,-0.044,78.002,139.099,102.355,1
7.617399,0.438,-0.092,-0.046,75.012,141.235,106.384,1
7.624366,0.414,-0.075,-0.055,73.181,143.005,110.168,1
7.631804,0.38,-0.065,-0.057,72.692,145.08,113.464,1
7.640662,0.349,-0.052,-0.066,73.974,146.85,117.309,1
7.646958,0.309,-0.044,-0.065,77.331,148.559,121.276,1
7.65477,0.263,-0.034,-0.073,81.787,149.963,125.244,1
7.661496,0.203,-0.023,-0.077,87.28,150.878,128.54,1
7.670313,0.189,-0.02,-0.082,96.252,151.794,132.995,1
7.677368,0.171,-0.013,-0.087,107.055,152.771,137.939,1
7.685349,0.174,-0.004,-0.093,123.352,154.113,144.47,1
7.692456,0.173,0.0,-0.1,140.136,154.785,150.817,1
7.700595,0.13,0.001,-0.109,158.569,154.724,158.203,1
7.70715,0.12,0.003,-0.127,173.339,154.174,164.916,1
7.714982,0.071,0.006,-0.138,188.293,152.709,173.156,1
7.722175,0.02,0.013,-0.156,200.378,150.512,181.884,1
7.730014,-0.045,0.026,-0.182,206.787,147.338,190.795,1
7.737036,-0.158,0.05,-0.204,208.251,144.226,200.073,1
7.745058,-0.287,0.09,-0.23,205.383,140.502,208.496,1
7.751687,-0.439,0.161,-0.285,199.89,135.681,215.27,1
7.76013,-0.586,0.244,-0.328,192.565,129.943,220.947,1
7.767177,-0.724,0.317,-0.369,181.518,124.511,226.013,1
7.774305,-0.832,0.383,-0.414,165.161,120.3,232.055,1
7.782584,-0.881,0.443,-0.447,145.202,117.065,238.342,1
7.790387,-0.93,0.522,-0.476,123.535,114.746,243.469,1
7.798714,-1.045,0.606,-0.521,97.656,113.403,248.291,1
7.807085,-1.111,0.685,-0.547,68.786,112.365,251.586,1
7.813527,-1.191,0.773,-0.574,40.039,112.67,253.967,1
7.821835,-1.238,0.843,-0.6,16.662,113.403,255.004,1
7.828306,-1.26,0.929,-0.625,3.112,112.731,255.126,1
7.836896,-1.221,1.014,-0.636,6.286,109.558,254.15,1
7.843053,-1.203,1.107,-0.644,27.343,104.248,252.929,1
7.851292,-1.27,1.218,-0.682,52.612,98.205,250.915,1
7.858238,-1.306,1.32,-0.725,70.922,89.66,247.131,1
7.866892,-1.43,1.391,-0.747,84.228,84.167,244.445,1
7.87561,-1.496,1.463,-0.767,83.435,76.11,240.173,1
7.881695,-1.54,1.508,-0.742,83.129,70.617,235.839,1
7.889696,-1.439,1.541,-0.723,93.444,64.453,232.788,1
7.898568,-1.45,1.549,-0.69,101.928,59.997,229.431,1
7.905108,-1.338,1.547,-0.729,97.106,55.297,224.121,1
7.913463,-1.484,1.572,-0.725,68.664,55.419,219.848,1
7.920302,-1.449,1.603,-0.742,28.32,53.894,214.172,1
7.929029,-1.501,1.66,-0.694,-6.835,56.945,207.885,1
7.936018,-1.427,1.682,-0.678,-24.902,56.457,201.477,1
7.944766,-1.325,1.654,-0.616,-19.042,56.762,195.434,1
7.952928,-1.352,1.621,-0.612,-8.3,54.382,190.063,1
7.959607,-1.312,1.593,-0.572,2.075,53.222,186.035,1
7.968415,-1.273,1.544,-0.573,9.704,51.208,182.067,1
7.974713,-1.259,1.509,-0.538,12.268,50.048,178.955,1
7.982589,-1.211,1.48,-0.532,12.451,49.255,175.903,1
7.991509,-1.11,1.483,-0.502,16.174,47.729,172.119,1
8.000181,-1.146,1.454,-0.518,15.319,48.034,168.945,1
8.00735,-1.154,1.462,-0.527,1.403,47.302,165.771,1
8.014546,-1.163,1.501,-0.518,-11.901,48.4,161.01,1
8.022973,-1.083,1.512,-0.5,-3.723,46.142,157.531,1
8.029341,-1.134,1.508,-0.485,6.042,44.86,153.808,1
8.037336,-1.097,1.521,-0.476,24.658,40.161,148.925,1
8.04369,-1.068,1.515,-0.426,55.236,37.292,145.385,1
8.051994,-1.041,1.495,-0.439,81.176,31.921,141.723,1
8.058991,-1.0,1.489,-0.421,96.74,29.479,138.427,1
8.0674,-0.894,1.465,-0.43,114.807,26.367,134.46,1
8.075428,-1.043,1.471,-0.426,111.45,25.939,130.187,1
8.081888,-1.024,1.474,-0.445,94.726,24.902,125.915,1
8.090751,-0.989,1.475,-0.413,76.66,26.367,121.826,1
8.097394,-1.013,1.494,-0.431,56.274,26.855,117.187,1
8.104369,-0.89,1.494,-0.387,50.354,26.794,111.511,1
8.112338,-0.96,1.491,-0.406,40.954,28.93,107.482,1
8.12026,-0.971,1.539,-0.381,41.564,26.306,101.257,1
8.127261,-0.928,1.564,-0.337,50.842,27.099,95.642,1
8.135173,-0.848,1.557,-0.378,55.297,25.451,88.928,1
8.143475,-0.824,1.536,-0.32,53.405,25.329,82.763,1
8.151414,-0.8,1.515,-0.349,46.142,26.489,76.904,1
8.157951,-0.791,1.495,-0.314,35.949,27.221,71.228,1
8.166686,-0.783,1.461,-0.316,26.0,28.991,66.162,1
8.173594,-0.791,1.434,-0.304,15.014,29.296,60.974,1
8.181876,-0.767,1.395,-0.282,10.07,30.944,56.762,1
8.190284,-0.754,1.369,-0.27,7.141,30.7,52.612,1
8.196964,-0.729,1.333,-0.274,2.38,32.714,49.072,1
8.205265,-0.711,1.309,-0.281,-11.718,33.935,44.677,1
8.213503,-0.691,1.295,-0.281,-29.174,36.865,40.954,1
8.220247,-0.698,1.287,-0.285,-48.095,38.635,37.231,1
8.228057,-0.716,1.288,-0.272,-64.147,41.32,33.386,1
8.236555,-0.718,1.284,-0.267,-74.218,42.48,29.541,1
8.244843,-0.699,1.273,-0.251,-75.561,43.273,26.062,1
8.251349,-0.678,1.239,-0.24,-68.359,43.395,22.46,1
8.259282,-0.661,1.197,-0.226,-59.753,43.395,19.836,1
8.266423,-0.648,1.165,-0.229,-55.175,43.823,17.639,1
8.274796,-0.635,1.125,-0.221,-58.166,44.921,15.624,1
8.281691,-0.626,1.093,-0.22,-70.19,47.424,13.671,1
8.289885,-0.624,1.067,-0.214,-90.454,50.964,11.718,1
8.298644,-0.611,1.049,-0.203,-114.44,54.992,9.948,1
8.305315,-0.599,1.04,-0.192,-137.268,59.265,7.385,1
8.313439,-0.585,1.035,-0.176,-154.968,63.049,5.004,1
8.321411,-0.585,1.038,-0.162,-165.832,66.406,2.136,1
8.328273,-0.583,1.039,-0.151,-164.794,68.176,-0.305,1
8.337047,-0.578,1.035,-0.147,-156.066,68.908,-2.868,1
8.344009,-0.573,1.022,-0.138,-142.15,69.213,-5.432,1
8.351856,-0.569,1.004,-0.138,-126.281,68.908,-7.995,1
8.360143,-0.571,0.972,-0.137,-110.046,68.298,-10.253,1
8.368404,-0.558,0.94,-0.131,-91.247,67.565,-12.573,1
8.376471,-0.548,0.902,-0.12,-73.913,66.345,-13.916,1
8.38459,-0.516,0.849,-0.115,-57.983,65.002,-15.014,1
8.3912,-0.508,0.796,-0.101,-43.273,64.453,-15.624,1
8.400291,-0.475,0.712,-0.105,-38.085,63.598,-15.563,1
8.406973,-0.522,0.719,-0.104,-36.01,65.551,-14.892,1
8.415549,-0.596,0.67,-0.114,-42.785,65.979,-14.587,1
8.422542,-0.593,0.602,-0.129,-70.861,70.434,-11.108,1
8.431272,-0.587,0.628,-0.144,-90.576,72.692,-13.0,1
8.438288,-0.729,0.629,-0.1,-111.145,76.049,-14.587,1
8.445545,-0.756,0.682,-0.126,-120.91,77.758,-16.296,1
8.454209,-0.786,0.495,-0.09,-133.361,79.101,-10.742,1
8.462684,-0.797,0.56,-0.122,-139.709,80.871,-11.352,1
8.471105,-0.979,0.527,-0.08,-149.169,80.383,-11.718,1
8.477417,-0.931,0.543,-0.105,-155.517,82.397,-9.399,1
8.485768,-1.007,0.576,-0.092,-155.578,80.322,-9.277,1
8.493764,-1.053,0.62,-0.095,-147.766,81.848,-10.742,1
8.501159,-1.149,0.649,-0.129,-147.094,80.078,-12.084,1
8.510431,-1.237,0.674,-0.164,-155.212,81.237,-13.122,1
8.517307,-1.292,0.703,-0.188,-172.973,79.711,-15.624,1
8.526022,-1.275,0.724,-0.202,-192.321,80.627,-18.371,1
8.534375,-1.222,0.754,-0.198,-210.937,78.552,-22.399,1
8.543043,-1.145,0.755,-0.193,-217.59,77.148,-26.123,1
8.551927,-1.086,0.759,-0.19,-219.055,73.242,-30.517,1
8.558183,-1.027,0.753,-0.181,-215.332,70.251,-34.057,1
8.568347,-0.986,0.738,-0.187,-207.946,65.124,-38.146,1
8.575193,-0.972,0.72,-0.174,-198.12,61.035,-40.71,1
8.58306,-0.955,0.706,-0.191,-186.645,55.175,-42.968,1
8.591248,-0.924,0.682,-0.174,-169.311,49.011,-44.677,1
8.597901,-0.867,0.656,-0.193,-152.771,42.846,-45.776,1
8.606385,-0.827,0.63,-0.179,-135.009,36.926,-46.447,1
8.614563,-0.789,0.611,-0.195,-117.004,30.822,-46.63,1
8.622596,-0.76,0.586,-0.187,-98.999,25.024,-46.386,1
8.629554,-0.753,0.572,-0.201,-78.674,18.127,-46.02,1
8.637886,-0.764,0.567,-0.195,-61.157,12.573,-45.41,1
8.646173,-0.771,0.566,-0.199,-43.457,7.324,-44.799,1
8.653138,-0.775,0.557,-0.196,-23.62,1.647,-44.006,1
8.661284,-0.775,0.541,-0.2,-9.46,-2.441,-43.09,1
8.67007,-0.782,0.534,-0.191,0.427,-6.408,-42.663,1
8.677127,-0.8,0.523,-0.193,7.446,-9.46,-42.358,1
8.683881,-0.808,0.524,-0.191,12.695,-12.695,-41.503,1
8.691629,-0.807,0.529,-0.181,18.371,-15.38,-41.625,1
8.700063,-0.806,0.527,-0.178,23.376,-17.7,-41.442,1
8.706638,-0.801,0.52,-0.175,27.526,-19.897,-41.809,1
8.714565,-0.793,0.512,-0.166,29.418,-21.911,-41.687,1
8.721673,-0.794,0.502,-0.161,30.029,-23.681,-41.87,1
8.72967,-0.799,0.491,-0.16,29.907,-25.329,-42.236,1
8.737573,-0.835,0.487,-0.152,29.907,-26.855,-41.931,1
8.745684,-0.86,0.491,-0.154,31.494,-28.869,-41.687,1
8.753922,-0.865,0.49,-0.142,35.034,-30.395,-41.687,1
8.76234,-0.85,0.48,-0.139,38.33,-32.165,-41.32,1
8.76946,-0.835,0.461,-0.13,41.32,-33.386,-41.198,1
8.776267,-0.828,0.45,-0.131,42.114,-34.667,-40.71,1
8.784825,-0.827,0.437,-0.124,41.809,-35.644,-39.978,1
8.792003,-0.819,0.427,-0.121,42.419,-36.804,-39.062,1
8.800363,-0.83,0.41,-0.119,42.724,-37.902,-37.841,1
8.808614,-0.843,0.406,-0.113,43.945,-39.123,-36.315,1
8.816402,-0.884,0.405,-0.109,46.997,-40.405,-34.301,1
8.823686,-0.898,0.407,-0.102,53.405,-41.809,-32.226,1
8.831794,-0.871,0.402,-0.091,62.866,-43.518,-30.456,1
8.840116,-0.841,0.388,-0.088,73.486,-44.738,-28.564,1
8.846712,-0.812,0.375,-0.083,82.763,-45.898,-26.55,1
8.855052,-0.796,0.364,-0.082,90.576,-46.813,-24.536,1
8.861854,-0.793,0.35,-0.076,96.13,-47.668,-22.521,1
8.869689,-0.793,0.347,-0.075,101.074,-48.034,-20.263,1
8.87844,-0.787,0.346,-0.074,105.102,-48.156,-18.127,1
8.88518,-0.779,0.33,-0.075,107.36,-47.851,-16.174,1
8.892263,-0.742,0.286,-0.09,99.975,-47.058,-13.916,1
8.900902,-0.762,0.284,-0.072,90.759,-45.715,-11.474,1
8.907928,-0.813,0.307,-0.092,83.984,-44.799,-8.972,1
8.916275,-0.822,0.312,-0.086,82.458,-43.457,-6.652,1
8.924466,-0.803,0.309,-0.084,83.251,-42.175,-3.906,1
8.931166,-0.854,0.315,-0.086,85.388,-40.771,-1.342,1
8.93935,-0.87,0.329,-0.092,85.754,-39.428,0.915,1
8.947942,-0.854,0.331,-0.09,84.594,-37.963,3.051,1
8.954292,-0.822,0.34,-0.088,82.275,-36.56,5.065,1
8.962896,-0.78,0.352,-0.083,79.589,-34.912,6.774,1
8.969388,-0.748,0.362,-0.088,76.782,-33.081,8.056,1
8.976293,-0.737,0.366,-0.09,72.692,-31.005,8.85,1
8.983713,-0.744,0.37,-0.097,67.199,-29.418,9.643,1
8.991671,-0.758,0.378,-0.101,59.875,-27.099,10.559,1
8.998544,-0.776,0.383,-0.105,52.734,-25.268,11.474,1
9.006376,-0.8,0.39,-0.105,47.729,-23.925,12.573,1
9.015165,-0.808,0.404,-0.108,46.63,-22.583,13.671,1
9.021752,-0.801,0.4,-0.107,47.607,-21.057,15.014,1
9.030109,-0.79,0.397,-0.111,48.767,-19.897,16.174,1
9.037929,-0.783,0.402,-0.117,49.011,-18.31,17.761,1
9.044528,-0.779,0.396,-0.124,48.767,-17.15,19.348,1
9.051615,-0.772,0.397,-0.125,47.18,-15.747,20.935,1
9.059609,-0.769,0.394,-0.126,45.776,-14.282,22.705,1
9.066919,-0.762,0.393,-0.133,44.372,-13.244,24.597,1
9.075428,-0.752,0.392,-0.134,42.785,-12.084,26.55,1
9.082442,-0.751,0.387,-0.138,41.564,-11.291,28.32,1
9.090762,-0.733,0.388,-0.141,40.527,-10.375,30.517,1
9.097607,-0.721,0.381,-0.141,38.94,-9.887,32.409,1
9.104465,-0.713,0.383,-0.143,35.766,-8.972,34.362,1
9.112932,-0.708,0.382,-0.143,31.982,-8.117,36.376,1
9.11951,-0.738,0.386,-0.146,26.55,-7.324,38.146,1
9.127631,-0.785,0.39,-0.155,21.057,-6.225,40.588,1
9.136403,-0.877,0.401,-0.164,12.512,-5.371,42.724,1
9.143126,-0.933,0.41,-0.172,3.051,-4.638,44.921,1
9.150066,-0.924,0.417,-0.169,-5.187,-3.906,47.119,1
9.158742,-0.899,0.421,-0.165,-11.291,-3.173,49.316,1
9.16573,-0.886,0.42,-0.163,-16.174,-2.624,51.696,1
9.173014,-0.881,0.418,-0.162,-20.08,-1.953,54.199,1
9.180237,-0.915,0.426,-0.167,-25.939,-1.464,56.884,1
9.188218,-0.945,0.443,-0.169,-31.433,-1.159,59.326,1
9.197236,-0.975,0.464,-0.165,-32.47,-1.22,61.95,1
9.203978,-0.976,0.493,-0.156,-26.977,-2.136,64.392,1
9.212331,-0.974,0.509,-0.142,-16.601,-3.234,66.528,1
9.220479,-0.982,0.514,-0.15,-5.004,-4.577,69.274,1
9.227503,-0.993,0.527,-0.154,3.051,-6.042,71.166,1
9.234623,-1.007,0.531,-0.153,8.544,-7.202,72.937,1
9.242443,-1.02,0.543,-0.16,12.023,-8.666,74.707,1
9.251334,-1.023,0.554,-0.16,16.235,-9.704,76.171,1
9.258,-1.054,0.568,-0.164,19.775,-11.108,77.514,1
9.266777,-1.086,0.592,-0.167,23.01,-12.695,78.796,1
9.273172,-1.04,0.604,-0.163,29.479,-14.099,79.406,1
9.28201,-0.993,0.618,-0.157,36.254,-15.93,80.139,1
9.288197,-0.939,0.624,-0.158,42.541,-17.761,80.017,1
9.296522,-0.899,0.625,-0.154,47.912,-19.592,79.589,1
9.304705,-0.872,0.639,-0.153,51.879,-21.24,78.857,1
9.311571,-0.863,0.646,-0.151,53.833,-22.644,77.575,1
9.319728,-0.854,0.653,-0.155,53.894,-24.353,75.866,1
9.326896,-0.842,0.66,-0.143,53.222,-25.329,74.096,1
9.335162,-0.83,0.662,-0.137,52.612,-26.306,72.082,1
9.343853,-0.802,0.649,-0.137,50.109,-27.221,69.702,1
9.352502,-0.683,0.598,-0.138,40.893,-27.465,66.894,1
9.360819,-0.808,0.62,-0.123,30.883,-26.062,66.101,1
9.367451,-0.863,0.647,-0.15,23.559,-27.343,63.476,1
9.375339,-0.894,0.657,-0.123,20.629,-26.733,61.889,1
9.382696,-0.91,0.679,-0.14,19.592,-27.221,59.387,1
9.391064,-0.886,0.687,-0.128,24.475,-27.587,56.945,1
9.397659,-0.879,0.693,-0.12,30.029,-28.442,55.053,1
9.404628,-0.872,0.697,-0.121,35.4,-29.357,52.795,1
9.412642,-0.853,0.69,-0.12,37.475,-29.724,50.903,1
9.419247,-0.833,0.693,-0.123,38.146,-31.066,48.217,1
9.427885,-0.828,0.694,-0.122,38.818,-31.372,45.776,1
9.434542,-0.828,0.706,-0.121,39.855,-32.897,42.663,1
9.441558,-0.829,0.705,-0.12,41.32,-33.63,39.794,1
9.450221,-0.78,0.674,-0.131,40.344,-34.667,37.536,1
9.456878,-0.8,0.674,-0.114,35.583,-35.278,35.034,1
9.463789,-0.795,0.679,-0.132,35.278,-36.193,33.02,1
9.4725,-0.785,0.65,-0.116,37.841,-37.292,31.249,1
9.479546,-0.852,0.6,-0.142,33.508,-37.292,31.066,1
9.487928,-0.837,0.582,-0.145,25.695,-38.513,30.822,1
9.49493,-0.844,0.623,-0.137,24.23,-38.269,29.296,1
9.501743,-0.964,0.656,-0.152,32.287,-40.71,26.855,1
9.510448,-1.033,0.673,-0.129,44.372,-41.32,25.878,1
9.517325,-1.038,0.685,-0.157,55.969,-43.457,24.353,1
9.525946,-1.037,0.687,-0.139,66.894,-44.555,22.46,1
9.533111,-0.976,0.688,-0.155,75.5,-46.02,20.751,1
9.540036,-0.953,0.674,-0.139,80.871,-47.18,18.493,1
9.547883,-0.935,0.669,-0.154,83.007,-47.79,16.662,1
9.556344,-0.941,0.671,-0.141,81.42,-48.706,13.916,1
9.563539,-0.945,0.666,-0.146,80.261,-49.133,11.962,1
9.571937,-0.941,0.67,-0.133,79.65,-49.987,9.338,1
9.581515,-0.914,0.65,-0.133,79.04,-49.56,7.202,1
9.588591,-0.938,0.652,-0.123,78.491,-49.743,5.249,1
9.595175,-0.871,0.529,-0.142,72.082,-49.682,5.065,1
9.603397,-0.768,0.587,-0.096,61.584,-46.386,4.516,1
9.611656,-0.878,0.597,-0.161,59.875,-48.034,1.708,1
9.618328,-0.966,0.604,-0.083,61.584,-46.142,0.915,1
9.625441,-0.968,0.605,-0.152,67.077,-46.569,0.122,1
9.633502,-0.949,0.484,-0.115,65.063,-45.959,1.22,1
9.641845,-0.834,0.551,-0.118,65.734,-42.602,-0.061,1
9.650636,-0.978,0.582,-0.105,72.57,-45.837,-2.868,1
9.657358,-0.944,0.586,-0.114,81.848,-41.442,-4.028,1
9.665526,-0.935,0.606,-0.126,84.533,-43.395,-6.469,1
9.672624,-0.892,0.594,-0.117,87.097,-39.306,-8.728,1
9.680917,-0.851,0.583,-0.123,83.74,-40.344,-10.742,1
9.68791,-0.849,0.579,-0.102,80.749,-36.926,-12.817,1
9.694863,-0.817,0.568,-0.129,76.66,-36.56,-15.197,1
9.702746,-0.829,0.562,-0.102,75.012,-34.118,-17.272,1
9.711409,-0.816,0.547,-0.126,71.899,-33.386,-19.47,1
9.718253,-0.811,0.529,-0.099,70.434,-31.738,-20.996,1
9.724876,-0.816,0.511,-0.124,65.49,-30.151,-22.521,1
9.732025,-0.799,0.479,-0.111,59.814,-29.174,-23.559,1
9.740253,-0.799,0.456,-0.114,51.513,-26.55,-24.047,1
9.74756,-0.835,0.444,-0.112,42.846,-24.902,-24.23,1
9.755297,-0.86,0.435,-0.109,36.376,-22.46,-24.353,1
9.762339,-0.873,0.429,-0.108,30.761,-20.935,-23.803,1
9.770535,-0.854,0.379,-0.105,25.39,-18.615,-22.583,1
9.77803,-0.77,0.354,-0.083,9.643,-16.174,-18.615,1
9.786311,-0.833,0.415,-0.123,5.371,-12.329,-20.08,1
9.792951,-0.955,0.407,-0.096,4.455,-12.207,-20.019,1
9.801451,-0.938,0.386,-0.107,4.516,-7.995,-18.92,1
9.809006,-0.954,0.398,-0.107,1.525,-7.995,-17.944,1
9.815654,-0.971,0.411,-0.097,2.319,-4.272,-17.333,1
9.82419,-0.968,0.411,-0.123,-0.366,-3.479,-16.54,1
9.83222,-0.956,0.406,-0.109,-3.173,-0.122,-16.052,1
9.840741,-0.934,0.402,-0.126,-8.178,0.976,-15.991,1
9.849131,-0.909,0.404,-0.122,-14.526,3.845,-15.991,1
9.856146,-0.881,0.405,-0.126,-20.446,4.821,-15.93,1
9.863121,-0.873,0.404,-0.125,-24.841,6.652,-15.808,1
9.871286,-0.863,0.404,-0.133,-29.113,7.568,-15.991,1
9.879715,-0.866,0.402,-0.129,-31.555,8.85,-16.113,1
9.886135,-0.866,0.402,-0.134,-33.386,9.399,-15.991,1
9.894535,-0.871,0.4,-0.128,-33.752,10.253,-15.93,1
9.901113,-0.872,0.395,-0.137,-33.63,10.559,-15.991,1
9.909458,-0.877,0.395,-0.131,-32.958,11.352,-15.747,1
9.91655,-0.874,0.395,-0.141,-31.372,11.718,-15.869,1
9.923452,-0.881,0.383,-0.132,-29.357,11.901,-15.258,1
9.931334,-0.877,0.383,-0.141,-27.404,12.512,-14.953,1
9.940161,-0.872,0.379,-0.138,-25.573,12.939,-14.648,1
9.946889,-0.866,0.368,-0.145,-23.315,13.488,-13.916,1
9.955162,-0.879,0.368,-0.146,-22.827,13.732,-13.549,1
9.962932,-0.887,0.365,-0.146,-20.935,14.16,-13.122,1
9.971389,-0.892,0.366,-0.144,-18.859,14.038,-12.39,1
9.979157,-0.891,0.363,-0.146,-15.869,14.526,-11.84,1
9.988028,-0.893,0.357,-0.147,-14.038,14.343,-11.474,1
9.994536,-0.862,0.355,-0.149,-11.413,14.282,-10.986,1
