timestamp_s,ax,ay,az,gx,gy,gz,label
0.00403,0.138,0.966,0.224,-1.159,-0.793,-0.244,1
0.012342,0.139,0.967,0.229,0.0,-1.098,-0.427,1
0.019247,0.134,0.968,0.234,0.427,-1.159,-0.427,1
0.027182,0.139,0.969,0.236,1.22,-1.281,-0.671,1
0.034378,0.14,0.97,0.242,2.014,-1.586,-0.61,1
0.042118,0.14,0.974,0.245,2.319,-1.953,-0.488,1
0.049347,0.145,0.968,0.246,1.708,-1.953,-0.427,1
0.057203,0.146,0.962,0.252,-0.183,-2.136,-0.61,1
0.065497,0.148,0.956,0.248,-2.319,-1.892,-0.427,1
0.0735,0.149,0.958,0.251,-4.15,-1.892,-0.488,1
0.081725,0.145,0.961,0.251,-4.455,-1.953,-0.244,1
0.090078,0.149,0.955,0.252,-4.028,-2.197,0.061,1
0.098922,0.142,0.95,0.253,-3.051,-2.685,0.183,1
0.106126,0.145,0.95,0.258,-2.014,-2.502,0.183,1
0.115048,0.146,0.955,0.27,-0.183,-1.892,0.061,1
0.123188,0.144,0.958,0.275,1.403,-2.014,-0.061,1
0.130209,0.145,0.958,0.281,2.197,-1.708,0.0,1
0.138858,0.144,0.958,0.285,3.356,-1.464,0.0,1
0.146098,0.145,0.962,0.282,3.845,-1.22,0.061,1
0.152927,0.139,0.953,0.281,3.845,-1.159,-0.122,1
0.161401,0.136,0.948,0.276,4.211,-0.854,0.366,1
0.168808,0.139,0.946,0.276,4.394,-0.915,0.427,1
0.177276,0.136,0.955,0.276,5.065,-0.671,0.366,1
0.185248,0.134,0.959,0.284,5.859,-0.305,0.366,1
0.192046,0.138,0.962,0.287,5.554,-0.183,0.427,1
0.201235,0.138,0.965,0.289,4.882,0.488,0.305,1
0.207016,0.138,0.967,0.291,3.967,0.671,0.549,1
0.214256,0.142,0.965,0.291,2.99,0.976,0.488,1
0.221686,0.139,0.963,0.284,1.892,1.403,0.549,1
0.230514,0.142,0.959,0.279,1.647,1.77,0.427,1
0.236957,0.142,0.961,0.278,1.586,1.77,0.488,1
0.246759,0.139,0.964,0.28,1.831,2.014,0.305,1
0.254152,0.139,0.964,0.282,2.319,2.136,0.488,1
0.261832,0.145,0.967,0.28,2.563,2.563,0.366,1
0.270479,0.145,0.966,0.281,2.624,2.685,0.183,1
0.278051,0.146,0.966,0.274,2.99,2.807,0.183,1
0.286026,0.139,0.964,0.27,3.234,3.051,-0.061,1
0.294719,0.141,0.967,0.271,3.112,3.173,-0.061,1
0.302901,0.142,0.967,0.272,2.441,3.295,0.0,1
0.31059,0.156,0.965,0.268,1.647,3.54,-0.122,1
0.317909,0.154,0.963,0.266,-0.183,3.417,-0.305,1
0.324933,0.154,0.962,0.26,-1.525,3.54,-0.305,1
0.333954,0.15,0.962,0.253,-2.075,3.54,-0.122,1
0.341736,0.148,0.965,0.25,-1.525,3.234,-0.366,1
0.350429,0.15,0.965,0.247,-0.305,2.868,-0.549,1
0.358555,0.149,0.964,0.249,0.793,2.685,-0.549,1
0.365434,0.141,0.962,0.25,1.586,2.502,-0.488,1
0.37527,0.144,0.969,0.252,1.281,2.624,-0.732,1
0.382154,0.147,0.978,0.256,1.22,2.38,-0.854,1
0.390614,0.146,0.979,0.261,0.915,2.38,-0.793,1
0.397025,0.143,0.979,0.263,-0.427,2.502,-0.793,1
0.406806,0.145,0.983,0.262,-2.014,2.746,-1.22,1
0.415151,0.149,0.987,0.26,-3.295,2.807,-1.342,1
0.423642,0.153,0.984,0.265,-3.784,3.051,-1.586,1
0.431452,0.151,0.976,0.26,-4.455,3.234,-1.525,1
0.439746,0.157,0.963,0.251,-5.432,3.051,-1.464,1
0.447631,0.155,0.962,0.242,-6.408,2.868,-1.342,1
0.454776,0.153,0.965,0.249,-6.103,2.746,-1.342,1
0.463754,0.155,0.973,0.251,-4.638,2.258,-1.403,1
0.471016,0.151,0.974,0.256,-2.99,2.258,-1.708,1
0.478704,0.152,0.979,0.257,-1.464,2.014,-1.831,1
0.487726,0.159,0.977,0.265,0.244,2.197,-2.258,1
0.496474,0.164,0.983,0.275,1.037,2.197,-2.624,1
0.5029,0.163,0.981,0.288,0.061,2.624,-2.99,1
0.51049,0.167,0.982,0.298,-1.098,2.99,-3.112,1
0.519013,0.163,0.973,0.298,-2.624,3.417,-3.356,1
0.527394,0.159,0.975,0.309,-3.417,3.845,-3.784,1
0.535643,0.157,0.969,0.31,-4.333,4.577,-3.967,1
0.542836,0.154,0.957,0.316,-5.493,5.31,-4.089,1
0.550724,0.154,0.955,0.318,-6.652,5.798,-4.272,1
0.560144,0.154,0.948,0.317,-7.385,6.408,-4.333,1
0.568567,0.15,0.942,0.316,-7.934,7.141,-4.211,1
0.578059,0.151,0.938,0.307,-7.812,7.507,-4.211,1
0.586752,0.146,0.933,0.308,-7.08,7.873,-3.906,1
0.593538,0.153,0.92,0.303,-7.202,8.361,-3.54,1
0.601057,0.155,0.911,0.299,-7.446,8.728,-3.051,1
0.609388,0.158,0.901,0.295,-7.934,9.094,-2.319,1
0.615793,0.156,0.893,0.292,-7.934,9.277,-1.708,1
0.623563,0.157,0.887,0.28,-7.873,9.399,-0.915,1
0.63024,0.151,0.889,0.271,-6.896,9.399,-0.183,1
0.637966,0.148,0.891,0.27,-5.187,9.521,0.549,1
0.646051,0.144,0.9,0.269,-2.136,9.399,1.037,1
0.652368,0.139,0.906,0.267,0.976,9.155,1.586,1
0.660925,0.14,0.918,0.266,3.356,9.338,1.647,1
0.667935,0.139,0.922,0.264,5.31,9.216,2.258,1
0.674599,0.138,0.928,0.258,6.164,9.277,2.502,1
0.68291,0.136,0.937,0.259,6.347,9.704,2.99,1
0.68958,0.133,0.948,0.253,5.981,9.582,2.99,1
0.698156,0.137,0.955,0.252,5.065,9.887,3.234,1
0.70487,0.139,0.961,0.24,4.394,9.887,3.662,1
0.712547,0.14,0.965,0.232,4.089,10.009,3.601,1
0.720323,0.138,0.965,0.221,3.54,9.948,3.662,1
0.72796,0.146,0.968,0.218,2.563,9.765,3.54,1
0.73692,0.147,0.972,0.208,1.098,9.887,3.723,1
0.744494,0.151,0.98,0.198,0.549,9.521,3.356,1
0.751347,0.158,0.985,0.192,0.976,8.911,3.295,1
0.759437,0.15,0.991,0.19,1.892,8.483,3.173,1
0.766147,0.15,0.989,0.181,3.234,7.751,2.746,1
0.774484,0.148,0.99,0.182,4.821,7.507,2.563,1
0.78193,0.145,0.989,0.185,5.798,6.408,2.38,1
0.789278,0.143,0.981,0.192,6.347,5.859,2.258,1
0.797057,0.143,0.978,0.198,5.737,5.493,2.014,1
0.806234,0.143,0.978,0.21,4.028,5.31,2.136,1
0.813879,0.146,0.989,0.212,1.647,5.065,1.892,1
0.823466,0.154,0.993,0.207,-0.122,4.821,1.586,1
0.829219,0.156,0.989,0.208,-1.586,4.272,1.159,1
0.837819,0.161,0.989,0.207,-2.807,4.272,0.976,1
0.845705,0.16,0.992,0.206,-2.746,4.028,0.671,1
0.853043,0.161,0.993,0.2,-2.502,3.662,0.671,1
0.86034,0.156,0.991,0.196,-1.831,3.112,0.244,1
0.869419,0.156,0.985,0.197,-0.915,2.563,-0.122,1
0.876576,0.154,0.985,0.202,0.427,2.136,-0.305,1
0.883752,0.154,0.984,0.208,1.708,1.464,-0.549,1
0.891438,0.149,0.979,0.211,2.563,1.098,-0.732,1
0.899367,0.156,0.98,0.217,3.356,0.793,-0.976,1
0.906651,0.156,0.975,0.217,4.272,0.366,-0.976,1
0.915091,0.156,0.975,0.226,4.394,0.122,-1.281,1
0.922568,0.16,0.97,0.24,3.845,0.183,-1.342,1
0.931781,0.161,0.968,0.251,1.22,0.427,-1.403,1
0.939454,0.163,0.966,0.255,-1.586,0.671,-1.342,1
0.947851,0.168,0.963,0.256,-2.746,0.854,-1.403,1
0.956283,0.164,0.962,0.252,-2.624,0.671,-1.342,1
0.963883,0.156,0.966,0.255,-1.892,0.671,-1.22,1
0.971651,0.155,0.959,0.258,-2.502,0.793,-1.159,1
0.979547,0.158,0.955,0.258,-3.845,1.281,-1.159,1
0.98864,0.16,0.958,0.262,-5.676,1.647,-1.342,1
0.996277,0.159,0.962,0.262,-5.981,2.136,-1.159,1
1.003791,0.16,0.969,0.26,-5.004,2.258,-1.22,1
1.012128,0.164,0.962,0.253,-3.54,2.136,-1.22,1
1.019693,0.164,0.956,0.253,-1.464,1.953,-0.915,1
1.027827,0.166,0.953,0.247,-0.122,2.014,-1.037,1
1.036213,0.161,0.949,0.247,1.586,1.77,-0.915,1
1.042336,0.158,0.954,0.261,2.441,1.831,-0.854,1
1.050322,0.156,0.949,0.266,1.953,2.014,-0.671,1
1.056949,0.153,0.949,0.265,1.403,2.319,-0.366,1
1.065357,0.156,0.944,0.267,0.0,2.502,-0.427,1
1.073517,0.158,0.948,0.268,-0.915,3.173,-0.366,1
1.080132,0.166,0.949,0.268,-1.22,3.356,0.0,1
1.088301,0.163,0.949,0.264,-1.464,3.601,-0.305,1
1.096831,0.165,0.947,0.262,-1.342,4.028,0.183,1
1.103877,0.169,0.949,0.262,-0.488,4.272,0.122,1
1.11235,0.168,0.951,0.264,0.0,4.15,0.427,1
1.118756,0.166,0.958,0.267,0.793,4.516,0.244,1
1.127446,0.17,0.954,0.266,1.342,4.699,0.488,1
1.133718,0.171,0.951,0.263,0.976,4.882,0.549,1
1.142432,0.167,0.951,0.265,0.915,5.004,0.488,1
1.148478,0.167,0.953,0.257,0.976,4.943,0.732,1
1.156554,0.17,0.955,0.26,1.342,5.004,0.549,1
1.163186,0.169,0.958,0.256,2.502,5.004,0.61,1
1.171281,0.164,0.958,0.259,3.295,5.126,0.488,1
1.178118,0.164,0.954,0.253,3.479,5.126,0.61,1
1.186207,0.165,0.961,0.257,3.173,5.249,0.732,1
1.192736,0.162,0.958,0.257,2.258,5.187,0.793,1
1.199478,0.161,0.965,0.263,0.61,5.554,0.793,1
1.207297,0.163,0.969,0.265,-1.037,5.92,0.854,1
1.216266,0.165,0.97,0.263,-2.197,6.225,0.732,1
1.222853,0.169,0.965,0.254,-2.746,6.53,0.671,1
1.230936,0.174,0.959,0.248,-2.38,6.835,0.549,1
1.237088,0.169,0.959,0.25,-1.77,6.774,0.61,1
1.245029,0.168,0.959,0.247,-0.854,6.469,0.732,1
1.25196,0.171,0.966,0.246,-0.183,6.774,0.671,1
1.26038,0.168,0.968,0.248,1.037,6.469,0.61,1
1.266812,0.169,0.974,0.25,2.197,6.286,0.488,1
1.27374,0.176,0.977,0.246,3.356,6.347,0.122,1
1.282916,0.175,0.979,0.249,4.699,6.286,0.488,1
1.289896,0.18,0.979,0.253,5.981,6.225,0.305,1
1.298587,0.183,0.979,0.257,6.469,6.408,0.061,1
1.305985,0.193,0.975,0.262,5.859,6.469,-0.122,1
1.313175,0.192,0.976,0.263,4.333,6.774,-0.305,1
1.321426,0.193,0.978,0.269,2.441,7.141,-0.732,1
1.328742,0.191,0.98,0.273,0.183,7.568,-0.549,1
1.337083,0.192,0.977,0.27,-1.586,7.751,-0.915,1
1.345789,0.199,0.974,0.271,-2.868,8.3,-0.976,1
1.353526,0.198,0.966,0.269,-3.601,8.483,-1.342,1
1.360353,0.193,0.959,0.269,-3.295,8.789,-1.403,1
1.368392,0.188,0.959,0.271,-2.502,8.911,-1.647,1
1.377967,0.182,0.953,0.276,-1.281,8.911,-1.708,1
1.38431,0.186,0.95,0.276,0.305,8.85,-1.831,1
1.392545,0.185,0.952,0.283,1.77,9.338,-1.892,1
1.399951,0.185,0.958,0.285,3.723,9.338,-1.647,1
1.407751,0.182,0.958,0.293,5.187,9.46,-2.075,1
1.415083,0.185,0.957,0.302,6.53,10.07,-2.319,1
1.423324,0.183,0.953,0.302,6.896,10.375,-2.258,1
1.43333,0.186,0.948,0.308,6.164,11.047,-2.258,1
1.44026,0.183,0.949,0.309,5.371,11.596,-2.014,1
1.447691,0.181,0.951,0.31,4.699,12.329,-1.708,1
1.457127,0.186,0.944,0.309,4.333,12.817,-1.708,1
1.463548,0.18,0.94,0.313,3.601,13.549,-1.647,1
1.470496,0.175,0.937,0.312,2.502,14.282,-1.403,1
1.478156,0.178,0.942,0.316,1.831,14.709,-1.22,1
1.486699,0.178,0.941,0.311,1.77,15.624,-1.037,1
1.49365,0.174,0.938,0.307,1.525,16.113,-1.037,1
1.500942,0.174,0.937,0.302,1.77,16.845,-0.854,1
1.50968,0.179,0.938,0.297,2.197,17.15,-0.427,1
1.517865,0.178,0.944,0.295,3.173,17.7,-0.305,1
1.525164,0.172,0.941,0.293,4.333,18.066,-0.061,1
1.531569,0.173,0.938,0.29,5.493,18.31,0.122,1
1.539633,0.176,0.939,0.286,6.164,18.676,0.366,1
1.547198,0.173,0.948,0.283,6.713,18.798,0.793,1
1.553852,0.17,0.946,0.282,6.408,19.531,0.793,1
1.562384,0.17,0.946,0.282,5.615,19.775,0.915,1
1.568891,0.173,0.954,0.278,4.577,20.202,0.915,1
1.576707,0.174,0.956,0.275,2.99,20.629,0.915,1
1.584386,0.174,0.958,0.271,2.319,21.118,1.037,1
1.593043,0.177,0.96,0.266,2.319,21.118,0.854,1
1.599934,0.177,0.968,0.261,3.295,21.179,1.098,1
1.606656,0.177,0.97,0.255,4.516,20.996,1.037,1
1.614015,0.172,0.956,0.25,5.432,21.24,1.22,1
1.623082,0.166,0.947,0.245,5.432,21.362,1.831,1
1.630261,0.159,0.938,0.231,5.676,21.24,2.258,1
1.638568,0.153,0.94,0.227,5.615,20.935,2.624,1
1.645794,0.155,0.948,0.231,5.493,20.935,2.685,1
1.654477,0.163,0.957,0.236,5.676,20.507,2.929,1
1.661297,0.172,0.958,0.236,5.615,20.507,3.051,1
1.668866,0.18,0.956,0.235,4.882,20.935,3.112,1
1.678176,0.174,0.958,0.235,4.333,20.935,3.234,1
1.685506,0.178,0.959,0.241,3.784,20.935,3.173,1
1.69289,0.177,0.96,0.237,3.417,20.996,2.868,1
1.699996,0.176,0.964,0.232,4.516,20.935,2.99,1
1.708985,0.174,0.961,0.233,4.638,20.935,3.112,1
1.715369,0.175,0.954,0.23,5.187,20.69,2.807,1
1.722232,0.171,0.95,0.222,5.798,20.629,3.234,1
1.729781,0.172,0.952,0.223,5.676,20.324,3.112,1
1.737102,0.171,0.952,0.223,5.31,20.141,3.295,1
1.744738,0.167,0.95,0.219,5.004,20.202,3.295,1
1.753544,0.17,0.952,0.221,3.723,20.202,3.356,1
1.760053,0.172,0.959,0.216,2.746,19.897,3.173,1
1.768032,0.178,0.966,0.223,2.624,19.47,3.234,1
1.776971,0.181,0.968,0.22,2.685,19.592,3.051,1
1.783927,0.183,0.96,0.215,2.746,19.409,2.868,1
1.793078,0.177,0.955,0.216,2.99,19.042,2.685,1
1.80012,0.18,0.948,0.214,2.136,18.981,2.624,1
1.807057,0.178,0.945,0.214,1.586,18.554,2.807,1
1.814307,0.175,0.947,0.208,0.915,18.249,2.929,1
1.822883,0.172,0.953,0.208,0.427,17.822,3.173,1
1.82973,0.174,0.96,0.208,0.366,17.517,3.112,1
1.83792,0.176,0.966,0.205,1.342,16.906,3.234,1
1.845263,0.174,0.969,0.207,2.807,16.296,3.112,1
1.852923,0.178,0.969,0.205,4.577,15.686,2.746,1
1.860316,0.183,0.971,0.202,5.004,14.953,2.746,1
1.868638,0.187,0.97,0.201,5.554,14.343,2.685,1
1.875724,0.189,0.963,0.201,5.92,13.671,2.929,1
1.884273,0.186,0.959,0.198,5.92,13.183,3.112,1
1.891192,0.18,0.958,0.203,5.92,12.817,3.173,1
1.898014,0.183,0.972,0.208,6.347,12.329,3.051,1
1.9073,0.178,0.991,0.225,6.835,12.084,2.746,1
1.915081,0.189,0.997,0.231,7.202,11.962,2.441,1
1.921529,0.198,1.012,0.228,5.981,11.962,1.953,1
1.930693,0.209,1.028,0.222,5.004,11.962,1.586,1
1.937337,0.222,1.055,0.206,4.516,11.352,0.854,1
1.945846,0.251,1.09,0.187,4.516,11.108,0.061,1
1.952447,0.271,1.134,0.173,4.821,10.559,-0.915,1
1.959762,0.284,1.18,0.168,3.784,10.314,-2.441,1
1.967915,0.302,1.223,0.175,1.892,10.009,-4.455,1
1.975907,0.308,1.269,0.173,-0.915,9.887,-6.774,1
1.985183,0.321,1.297,0.166,-3.234,10.253,-9.338,1
1.991316,0.341,1.326,0.161,-4.516,10.62,-11.535,1
1.999652,0.362,1.373,0.144,-4.455,10.437,-13.977,1
2.007087,0.395,1.418,0.128,-3.54,10.253,-15.991,1
2.01505,0.435,1.477,0.111,-4.15,9.826,-18.798,1
2.02347,0.502,1.546,0.112,-5.371,10.009,-22.155,1
2.03087,0.559,1.604,0.109,-8.239,9.948,-25.512,1
2.039807,0.623,1.657,0.102,-14.282,10.131,-28.991,1
2.047294,0.687,1.702,0.111,-25.268,11.169,-33.63,1
2.056232,0.729,1.726,0.121,-38.391,12.634,-38.085,1
2.064044,0.739,1.706,0.132,-58.41,14.587,-43.212,1
2.071431,0.717,1.677,0.142,-77.209,16.479,-47.241,1
2.08012,0.688,1.672,0.14,-95.275,18.493,-50.903,1
2.086898,0.695,1.669,0.144,-114.685,20.69,-54.931,1
2.09498,0.711,1.665,0.144,-128.845,22.399,-57.861,1
2.102527,0.729,1.656,0.141,-142.639,24.23,-60.913,1
2.110118,0.707,1.655,0.113,-152.893,25.329,-63.964,1
2.118794,0.678,1.665,0.09,-162.048,24.475,-67.871,1
2.127682,0.688,1.716,0.084,-163.574,24.597,-72.937,1
2.136182,0.696,1.739,0.058,-162.597,22.827,-78.796,1
2.143892,0.717,1.77,0.062,-158.813,21.606,-83.74,1
2.152756,0.744,1.822,0.052,-153.747,19.714,-87.402,1
2.159614,0.794,1.903,0.028,-147.094,17.333,-90.759,1
2.16849,0.842,1.978,0.002,-139.892,14.892,-93.688,1
2.177321,0.916,2.092,-0.011,-133.728,12.878,-96.557,1
2.18451,0.998,2.24,-0.019,-125.549,10.803,-101.257,1
2.194988,1.063,2.364,-0.031,-118.53,9.46,-107.727,1
2.202711,1.141,2.398,-0.074,-115.234,9.582,-117.614,1
2.211684,1.065,2.329,-0.074,-120.483,8.728,-126.953,1
2.218707,0.889,2.22,-0.062,-129.028,11.718,-134.704,1
2.227747,0.798,2.075,-0.087,-142.272,10.437,-141.296,1
2.236269,0.66,1.818,-0.121,-151.428,10.437,-145.751,1
2.243783,0.456,1.708,-0.095,-155.029,6.469,-149.169,1
2.253131,0.348,1.606,-0.038,-145.324,3.662,-151.184,1
2.260723,0.277,1.488,0.015,-126.159,-1.037,-152.771,1
2.270245,0.274,1.446,0.048,-94.36,-6.042,-155.151,1
2.277139,0.226,1.365,0.082,-65.063,-11.23,-157.409,1
2.28381,0.228,1.323,0.175,-30.029,-15.014,-159.301,1
2.2927,0.36,1.177,0.223,3.601,-17.089,-161.682,1
2.300405,0.333,1.098,0.167,9.521,-14.343,-162.963,1
2.307746,0.377,1.114,0.129,-13.0,-12.145,-164.978,1
2.316956,0.352,1.062,0.113,-46.447,-6.103,-166.442,1
2.323216,0.376,1.129,0.097,-91.491,-3.479,-168.579,1
2.33254,0.402,1.197,0.131,-114.257,-0.122,-170.104,1
2.341278,0.5,1.184,0.067,-150.39,-4.211,-166.381,1
2.349424,0.52,1.063,0.104,-149.719,-4.638,-170.776,1
2.35663,0.433,1.286,0.071,-132.08,-6.652,-176.208,1
2.36737,0.433,0.875,-0.01,-153.015,-12.207,-169.006,1
2.374417,0.499,1.124,-0.008,-167.297,-13.671,-175.537,1
2.384082,0.384,1.039,0.02,-195.373,-15.502,-175.842,1
2.392387,0.358,0.939,-0.072,-233.276,-18.737,-174.438,1
2.399116,0.33,0.815,-0.085,-273.01,-23.437,-171.813,1
2.409573,0.196,0.754,-0.123,-307.983,-28.991,-168.395,1
2.417306,0.055,0.682,-0.147,-338.928,-37.231,-162.353,1
2.426057,0.004,0.616,-0.15,-351.562,-44.921,-154.479,1
2.434019,-0.032,0.585,-0.141,-337.402,-55.175,-144.775,1
2.442427,-0.138,0.613,-0.061,-294.982,-65.246,-138.671,1
2.450268,-0.185,0.719,0.014,-195.922,-74.218,-138.916,1
2.459464,-0.134,0.804,0.032,-56.274,-85.876,-146.057,1
2.467953,-0.132,0.652,-0.006,65.856,-95.886,-150.451,1
2.476733,-0.163,0.522,-0.022,176.696,-101.562,-151.977,1
2.485301,-0.288,0.426,-0.039,251.831,-105.529,-153.625,1
2.493873,-0.158,0.322,-0.144,300.354,-102.966,-155.456,1
2.502062,-0.492,0.317,-0.018,321.105,-97.351,-156.311,1
2.510399,-0.391,0.285,-0.063,332.214,-91.735,-158.508,1
2.517952,-0.49,0.161,0.076,325.744,-80.993,-162.902,1
2.5272,-0.546,-0.039,0.06,275.695,-65.429,-163.208,1
2.536118,-0.7,-0.145,0.108,187.866,-42.358,-160.583,1
2.54465,-0.567,-0.211,0.165,99.731,-29.785,-159.851,1
2.553272,-0.156,-0.353,0.255,-2.502,-4.821,-156.555,1
2.561319,0.005,-0.355,0.316,-81.237,9.704,-153.015,1
2.570167,0.163,-0.362,0.36,-107.36,21.972,-149.963,1
2.579162,0.074,-0.341,0.415,-101.318,26.611,-147.338,1
2.586635,-0.072,-0.281,0.448,-59.204,31.494,-144.653,1
2.593812,-0.173,-0.263,0.476,-6.164,31.127,-143.737,1
2.60425,-0.242,-0.321,0.491,57.189,34.79,-141.418,1
2.610761,-0.293,-0.424,0.492,97.473,38.696,-136.84,1
2.620264,-0.249,-0.54,0.493,104.797,46.447,-130.615,1
2.629158,-0.156,-0.67,0.449,85.021,54.687,-123.107,1
2.637262,-0.157,-0.817,0.458,47.546,62.377,-115.661,1
2.644076,-0.168,-0.923,0.476,-4.76,73.669,-105.468,1
2.654513,-0.274,-0.982,0.525,-42.419,82.458,-97.045,1
2.663034,-0.372,-1.024,0.553,-63.476,93.688,-86.181,1
2.670118,-0.457,-1.088,0.59,-51.208,102.416,-76.538,1
2.680524,-0.474,-1.196,0.58,-30.09,109.13,-68.603,1
2.6898,-0.462,-1.38,0.572,-11.962,119.445,-57.312,1
2.697575,-0.467,-1.539,0.507,-9.765,130.126,-44.189,1
2.706751,-0.502,-1.639,0.48,-23.193,140.075,-29.296,1
2.715484,-0.502,-1.741,0.415,-39.55,151.489,-13.916,1
2.724045,-0.591,-1.837,0.31,-51.635,162.17,0.732,1
2.733119,-0.691,-1.859,0.308,-60.18,168.884,18.066,1
2.740979,-0.905,-1.901,0.205,-61.706,178.1,34.729,1
2.749771,-1.048,-1.904,0.178,-56.762,182.739,48.706,1
2.756702,-1.196,-1.906,0.061,-43.945,189.086,65.979,1
2.76536,-1.38,-1.913,-0.029,-27.404,192.81,82.946,1
2.773947,-1.576,-1.965,-0.132,-16.357,197.082,99.121,1
2.781719,-1.866,-1.976,-0.234,-14.892,200.683,114.929,1
2.79057,-2.041,-1.957,-0.304,-11.962,204.589,135.62,1
2.799442,-2.217,-1.979,-0.432,-9.338,208.618,157.897,1
2.808688,-2.358,-1.997,-0.539,-22.888,212.89,177.978,1
2.815905,-2.528,-1.994,-0.71,-51.391,220.031,201.599,1
2.825826,-2.755,-1.985,-0.835,-86.914,228.149,224.304,1
2.832539,-2.955,-1.938,-0.932,-109.008,235.046,247.253,1
2.841758,-3.1,-1.868,-1.004,-99.609,238.159,267.15,1
2.848813,-3.325,-1.85,-1.093,-69.641,237.976,288.024,1
2.857094,-3.535,-1.851,-1.148,-26.672,233.032,314.575,1
2.863864,-3.74,-1.867,-1.217,7.08,228.82,340.698,1
2.873861,-4.173,-1.904,-1.312,26.794,222.29,368.041,1
2.880487,-4.506,-1.918,-1.355,47.485,215.759,401.489,1
2.890502,-4.949,-1.965,-1.509,67.26,204.284,433.044,1
2.898273,-5.364,-2.007,-1.54,107.543,187.927,473.388,1
2.907161,-5.942,-1.983,-1.586,163.269,162.658,516.54,1
2.915541,-6.592,-1.937,-1.655,226.196,132.568,562.255,1
2.923404,-7.367,-1.822,-1.67,278.198,93.322,608.276,1
2.932593,-8.075,-1.68,-1.622,321.044,50.231,654.296,1
2.941963,-8.816,-1.513,-1.551,351.562,8.728,692.443,1
2.949023,-9.718,-1.361,-1.446,384.094,-42.968,735.229,1
2.957865,-10.433,-1.22,-1.39,409.484,-91.186,768.798,1
2.967399,-11.487,-1.013,-1.234,426.452,-149.658,805.053,1
2.973881,-12.739,-0.737,-1.152,445.495,-212.524,835.082,1
2.98161,-14.108,-0.395,-1.056,459.289,-269.531,855.163,1
2.992598,-15.287,-0.082,-0.922,482.36,-343.322,870.605,1
2.999749,-15.999,0.262,-0.695,517.028,-420.837,878.051,1
3.008602,-15.999,0.555,-0.487,543.945,-491.332,875.732,1
3.016649,-15.999,0.894,-0.182,560.791,-573.303,865.112,1
3.024037,-15.999,1.272,0.122,591.674,-643.249,846.374,1
3.033352,-15.999,1.578,0.64,651.306,-727.111,814.697,1
3.040566,-15.999,1.758,1.122,707.458,-795.043,777.038,1
3.048162,-15.999,1.89,1.577,769.653,-860.717,723.571,1
3.056154,-15.999,2.339,2.155,894.348,-924.743,636.596,1
3.06484,-15.999,2.555,2.374,1021.24,-980.224,534.729,1
3.072399,-15.999,2.283,2.364,1076.66,-1026.062,394.042,1
3.080304,-15.999,2.115,2.352,1034.973,-1040.649,268.31,1
3.088437,-15.999,2.157,2.377,987.365,-1032.836,143.554,1
3.097084,-15.999,2.007,2.344,937.194,-994.201,2.99,1
3.105784,-15.999,1.778,2.17,841.735,-941.284,-119.628,1
3.114873,-15.368,1.768,2.113,766.479,-891.723,-221.252,1
3.122144,-14.267,1.7,2.309,740.356,-837.28,-295.288,1
3.12989,-13.101,1.434,2.035,740.722,-781.86,-363.159,1
3.138557,-11.86,1.145,2.01,761.779,-720.153,-424.194,1
3.14603,-11.64,0.886,1.759,689.819,-641.174,-481.628,1
3.156655,-11.132,0.698,1.849,531.005,-552.185,-519.47,1
3.163688,-10.375,0.619,1.694,364.685,-482.238,-540.527,1
3.173005,-9.739,0.637,1.807,262.878,-430.664,-547.912,1
3.181076,-9.137,0.643,1.735,219.848,-386.047,-550.109,1
3.191377,-8.596,0.589,1.753,238.525,-347.839,-550.415,1
3.198335,-8.039,0.329,1.633,286.193,-311.828,-552.49,1
3.205501,-8.067,0.176,1.581,276.489,-276.855,-551.025,1
3.213836,-7.711,0.025,1.562,229.919,-237.792,-548.034,1
3.22429,-7.281,-0.117,1.623,192.077,-203.124,-542.663,1
3.231567,-6.719,-0.321,1.585,151.367,-169.799,-534.301,1
3.241803,-6.135,-0.534,1.592,103.759,-137.573,-520.874,1
3.248889,-5.61,-0.694,1.55,65.856,-114.868,-505.798,1
3.257329,-5.221,-0.82,1.613,48.767,-93.078,-487.304,1
3.265711,-4.846,-0.919,1.621,48.583,-79.223,-470.275,1
3.274841,-4.42,-1.062,1.657,63.72,-60.119,-449.89,1
3.281985,-4.003,-1.219,1.674,76.11,-43.518,-428.588,1
3.291464,-3.707,-1.341,1.703,85.998,-26.794,-409.362,1
3.300006,-3.407,-1.476,1.696,88.562,-8.605,-386.962,1
3.30686,-3.078,-1.61,1.729,88.256,9.46,-363.159,1
3.315617,-2.784,-1.721,1.747,86.853,25.39,-341.308,1
3.322995,-2.628,-1.787,1.763,86.242,40.832,-320.129,1
3.330999,-2.392,-1.838,1.768,91.247,55.236,-299.255,1
3.339385,-2.083,-1.884,1.728,91.674,73.974,-274.047,1
3.347098,-2.035,-1.883,1.704,87.28,88.745,-252.807,1
3.35695,-1.901,-1.865,1.629,79.467,105.957,-228.942,1
3.364266,-1.724,-1.855,1.556,69.519,119.384,-208.496,1
3.371366,-1.647,-1.809,1.508,59.509,134.643,-185.485,1
3.379321,-1.561,-1.8,1.413,48.4,145.935,-166.931,1
3.388113,-1.551,-1.748,1.353,39.306,156.982,-149.475,1
3.397487,-1.508,-1.704,1.25,34.912,166.992,-129.943,1
3.403947,-1.421,-1.658,1.163,33.508,175.048,-113.647,1
3.413555,-1.319,-1.617,1.063,24.902,180.908,-95.214,1
3.421874,-1.104,-1.569,0.996,25.39,184.692,-80.078,1
3.428664,-0.804,-1.46,0.917,45.288,186.34,-65.612,1
3.438004,-0.541,-1.537,0.815,47.424,186.523,-48.95,1
3.44556,-0.327,-1.463,0.729,31.249,190.856,-32.653,1
3.454787,-0.165,-1.317,0.655,27.282,190.124,-19.897,1
3.461787,-0.121,-1.197,0.594,39.428,190.246,-5.493,1
3.47097,-0.105,-1.055,0.5,52.429,188.171,6.469,1
3.479747,-0.128,-0.903,0.417,66.284,186.157,19.653,1
3.487884,-0.125,-0.786,0.349,75.012,182.739,31.005,1
3.494995,-0.11,-0.672,0.297,77.27,181.457,39.794,1
3.50364,-0.066,-0.554,0.235,74.279,179.748,47.546,1
3.513211,0.015,-0.441,0.193,68.542,178.649,55.541,1
3.521818,0.091,-0.357,0.151,61.828,177.368,62.316,1
3.529039,0.186,-0.264,0.126,57.861,176.879,67.016,1
3.535984,0.262,-0.192,0.095,53.527,176.33,72.143,1
3.544186,0.307,-0.119,0.069,48.583,175.781,76.354,1
3.551338,0.346,-0.045,0.027,41.564,174.987,79.711,1
3.558765,0.392,0.009,0.012,34.851,174.865,82.336,1
3.566237,0.42,0.077,-0.018,31.921,174.743,84.533,1
3.57473,0.438,0.134,-0.043,31.433,173.889,85.876,1
3.582319,0.487,0.182,-0.082,31.677,173.034,87.28,1
3.590945,0.544,0.206,-0.107,31.555,172.607,87.829,1
3.600879,0.609,0.239,-0.136,31.433,172.18,88.439,1
3.607358,0.664,0.264,-0.143,34.729,171.997,88.928,1
3.615052,0.734,0.289,-0.171,43.09,171.386,89.599,1
3.622493,0.781,0.331,-0.186,55.175,170.288,90.209,1
3.630287,0.746,0.38,-0.208,72.326,169.311,90.942,1
3.639355,0.708,0.436,-0.251,97.9,164.306,92.285,1
3.6461,0.688,0.536,-0.28,121.337,159.545,92.407,1
3.654457,0.717,0.666,-0.366,145.507,149.719,90.454,1
3.66148,0.729,0.793,-0.369,175.781,139.221,87.768,1
3.669545,0.826,0.867,-0.368,205.871,130.737,86.425,1
3.677416,0.943,0.924,-0.376,225.891,124.084,86.059,1
3.684645,1.006,1.01,-0.409,234.68,118.835,84.655,1
3.691865,1.023,1.114,-0.441,236.45,113.342,82.336,1
3.698967,1.034,1.215,-0.438,236.022,109.863,79.284,1
3.706654,1.04,1.303,-0.467,228.21,106.933,75.195,1
3.714491,1.011,1.417,-0.475,214.721,105.285,70.129,1
3.722047,0.973,1.538,-0.479,199.218,103.942,65.063,1
3.729588,0.961,1.663,-0.504,184.692,102.478,57.983,1
3.738079,0.91,1.795,-0.51,175.353,100.83,50.476,1
3.74581,0.833,1.912,-0.534,175.964,97.106,40.527,1
3.753172,0.776,2.015,-0.566,199.645,95.275,31.249,1
3.761023,0.776,2.027,-0.599,232.177,86.73,22.46,1
3.768282,0.682,2.004,-0.611,250.793,83.557,14.465,1
3.777331,0.598,1.963,-0.661,246.52,81.481,6.591,1
3.785791,0.49,1.919,-0.657,217.956,81.42,-2.807,1
3.793181,0.454,1.879,-0.638,184.387,82.397,-12.634,1
3.802267,0.413,1.818,-0.576,170.593,81.665,-20.874,1
3.809913,0.39,1.743,-0.501,172.79,81.176,-28.015,1
3.817875,0.361,1.647,-0.46,180.053,80.261,-34.301,1
3.82544,0.342,1.508,-0.417,182.678,80.749,-39.611,1
3.832707,0.359,1.343,-0.382,172.729,81.97,-44.555,1
3.840396,0.367,1.229,-0.358,153.137,86.181,-48.095,1
3.850048,0.384,1.13,-0.351,120.178,90.393,-52.307,1
3.857349,0.39,1.049,-0.302,96.618,94.97,-55.358,1
3.865002,0.459,0.994,-0.315,84.472,97.839,-58.044,1
3.873762,0.487,0.921,-0.297,80.688,98.693,-60.852,1
3.880719,0.526,0.851,-0.271,89.538,99.06,-62.011,1
3.889527,0.566,0.792,-0.248,106.262,97.839,-62.499,1
3.897374,0.627,0.717,-0.23,119.14,97.106,-61.584,1
3.905125,0.657,0.656,-0.21,122.07,96.313,-60.485,1
3.913093,0.694,0.615,-0.191,120.483,97.106,-58.471,1
3.922621,0.735,0.581,-0.185,116.455,96.801,-56.823,1
3.929887,0.732,0.542,-0.163,110.778,96.984,-54.687,1
3.937413,0.72,0.527,-0.15,108.947,96.252,-53.344,1
3.945153,0.685,0.511,-0.116,112.487,95.581,-51.696,1
3.95481,0.682,0.491,-0.104,121.765,95.52,-49.56,1
3.963119,0.645,0.456,-0.097,127.258,95.153,-48.156,1
3.970609,0.619,0.426,-0.084,126.464,96.496,-46.142,1
3.979159,0.582,0.403,-0.083,118.896,97.839,-44.982,1
3.986708,0.559,0.383,-0.079,105.163,100.402,-43.64,1
3.994542,0.538,0.382,-0.087,86.12,102.905,-43.09,1
4.001698,0.5,0.381,-0.087,63.049,105.957,-43.395,1
4.010142,0.475,0.387,-0.093,38.024,108.947,-44.128,1
4.016952,0.458,0.399,-0.089,23.803,110.717,-45.104,1
4.023915,0.436,0.422,-0.079,19.165,111.938,-46.264,1
4.032863,0.422,0.425,-0.084,22.705,112.487,-47.607,1
4.040074,0.414,0.414,-0.085,30.578,112.426,-48.767,1
4.049306,0.451,0.376,-0.104,38.696,112.487,-49.438,1
4.055988,0.494,0.343,-0.115,43.212,112.609,-49.133,1
4.063815,0.528,0.317,-0.133,44.128,112.67,-48.583,1
4.073861,0.569,0.29,-0.141,43.884,112.67,-47.607,1
4.081836,0.626,0.28,-0.157,44.006,112.915,-45.715,1
4.090052,0.684,0.272,-0.171,49.011,112.304,-43.273,1
4.097772,0.755,0.276,-0.18,58.959,111.511,-40.588,1
4.106884,0.799,0.276,-0.207,73.486,110.168,-37.292,1
4.114043,0.807,0.279,-0.231,84.777,109.13,-33.386,1
4.121732,0.817,0.29,-0.268,91.552,107.849,-29.602,1
4.130772,0.812,0.327,-0.306,98.327,106.628,-25.756,1
4.13811,0.764,0.378,-0.345,107.849,104.736,-21.728,1
4.146981,0.717,0.424,-0.385,117.675,102.478,-18.249,1
4.155194,0.689,0.476,-0.418,127.38,99.975,-14.953,1
4.163397,0.682,0.531,-0.452,139.892,96.984,-11.657,1
4.169902,0.667,0.597,-0.488,153.442,93.383,-8.178,1
4.179195,0.669,0.646,-0.509,163.757,91.003,-6.042,1
4.187356,0.659,0.709,-0.543,176.513,87.524,-3.112,1
4.194694,0.651,0.764,-0.582,185.424,84.106,-0.549,1
4.203534,0.662,0.825,-0.614,190.795,81.542,1.403,1
4.212477,0.661,0.902,-0.656,195.129,78.125,3.173,1
4.220016,0.65,0.972,-0.684,198.486,74.707,4.394,1
4.22711,0.643,1.061,-0.715,204.956,70.434,5.493,1
4.235728,0.626,1.125,-0.736,210.021,66.101,5.493,1
4.243203,0.617,1.197,-0.743,215.087,62.316,5.432,1
4.25176,0.611,1.262,-0.736,220.581,58.532,5.065,1
4.261223,0.606,1.316,-0.713,226.928,54.87,3.845,1
4.267555,0.614,1.366,-0.7,231.689,51.818,2.319,1
4.27515,0.623,1.382,-0.669,236.206,49.011,0.732,1
4.284127,0.646,1.403,-0.658,235.351,47.973,-0.854,1
4.292249,0.648,1.425,-0.648,225.463,47.058,-2.929,1
4.299754,0.648,1.45,-0.635,208.618,47.485,-5.126,1
4.306908,0.658,1.491,-0.628,186.95,47.607,-8.178,1
4.315103,0.653,1.546,-0.592,173.461,46.997,-11.047,1
4.323395,0.649,1.587,-0.558,166.687,47.18,-14.77,1
4.330781,0.644,1.606,-0.539,161.926,46.752,-18.859,1
4.339602,0.653,1.619,-0.504,158.813,46.936,-23.62,1
4.347615,0.682,1.622,-0.487,159.851,46.569,-28.198,1
4.355279,0.719,1.62,-0.479,156.677,46.813,-32.165,1
4.364145,0.776,1.611,-0.483,147.949,47.058,-35.949,1
4.372415,0.823,1.615,-0.471,134.582,47.302,-39.672,1
4.379403,0.857,1.632,-0.454,118.835,47.241,-44.189,1
4.389478,0.863,1.647,-0.426,111.816,46.813,-48.217,1
4.395411,0.879,1.657,-0.406,112.731,44.982,-53.039,1
4.404102,0.865,1.611,-0.381,112.548,43.029,-56.945,1
4.412474,0.84,1.639,-0.357,122.497,42.297,-60.546,1
4.421309,0.806,1.611,-0.346,135.925,38.635,-64.88,1
4.428107,0.886,1.616,-0.329,145.019,36.682,-68.786,1
4.437766,0.807,1.573,-0.31,148.193,34.667,-71.899,1
4.444602,0.796,1.563,-0.302,143.127,34.545,-75.439,1
4.452259,0.785,1.493,-0.257,129.821,33.142,-77.88,1
4.46144,0.838,1.502,-0.207,132.629,33.63,-83.19,1
4.468955,0.765,1.547,-0.178,132.202,34.484,-86.242,1
4.477254,0.801,1.566,-0.162,134.46,34.912,-88.317,1
4.484191,0.839,1.499,-0.213,125.061,36.743,-92.102,1
4.493298,0.797,1.462,-0.191,123.596,39.306,-98.144,1
4.500024,0.874,1.542,-0.266,117.431,46.569,-102.05,1
4.509401,0.868,1.436,-0.27,96.252,40.588,-107.543,1
4.516498,0.837,1.44,-0.124,96.984,48.583,-109.863,1
4.523201,0.786,1.391,-0.189,104.248,42.846,-115.356,1
4.532041,0.737,1.317,-0.105,105.102,46.813,-117.614,1
4.540942,0.774,1.272,-0.186,101.074,43.884,-121.337,1
4.54978,0.753,1.233,-0.114,98.815,45.532,-123.535,1
4.557438,0.755,1.201,-0.179,96.496,43.884,-126.464,1
4.564301,0.707,1.16,-0.133,96.618,42.968,-128.662,1
4.574163,0.709,1.109,-0.166,99.121,41.625,-130.432,1
4.581117,0.674,1.063,-0.145,108.947,38.024,-133.178,1
4.590584,0.638,0.981,-0.174,120.727,36.621,-134.094,1
4.597222,0.604,0.916,-0.186,127.197,32.958,-134.521,1
4.605728,0.649,0.833,-0.205,135.192,31.249,-134.765,1
4.613458,0.636,0.744,-0.215,140.136,26.916,-133.972,1
4.622761,0.605,0.664,-0.205,139.465,26.0,-132.324,1
4.631247,0.587,0.601,-0.236,129.333,24.353,-130.126,1
4.639491,0.529,0.54,-0.245,110.778,24.841,-127.624,1
4.647275,0.458,0.503,-0.271,89.355,25.268,-125.488,1
4.655114,0.374,0.471,-0.278,62.377,26.367,-124.084,1
4.663942,0.372,0.447,-0.289,42.48,27.465,-122.985,1
4.670908,0.409,0.421,-0.317,22.033,28.076,-121.826,1
4.678941,0.442,0.393,-0.334,8.3,28.381,-120.3,1
4.687518,0.457,0.365,-0.358,-3.051,28.747,-119.14,1
4.695763,0.443,0.313,-0.362,-16.418,29.724,-117.614,1
4.705016,0.446,0.268,-0.375,-30.09,31.127,-115.905,1
4.711244,0.45,0.243,-0.381,-46.63,31.616,-113.891,1
4.720461,0.463,0.229,-0.369,-55.114,31.433,-112.121,1
4.726949,0.482,0.221,-0.363,-57.495,29.907,-110.534,1
4.737287,0.488,0.214,-0.355,-52.368,27.343,-108.703,1
4.745233,0.495,0.201,-0.331,-37.902,23.132,-106.384,1
4.754014,0.509,0.18,-0.312,-17.15,18.92,-104.187,1
4.761687,0.536,0.161,-0.3,2.807,15.991,-102.355,1
4.770816,0.558,0.138,-0.295,27.465,11.535,-99.853,1
4.778647,0.56,0.124,-0.29,43.212,8.911,-98.205,1
4.785921,0.544,0.109,-0.278,57.8,6.591,-96.069,1
4.793456,0.523,0.113,-0.258,72.692,4.821,-94.299,1
4.802456,0.515,0.123,-0.238,91.308,4.577,-92.834,1
4.811167,0.509,0.127,-0.245,110.046,3.112,-91.491,1
4.818601,0.518,0.123,-0.237,129.394,2.929,-90.454,1
4.824715,0.523,0.11,-0.241,140.563,2.868,-89.904,1
4.833291,0.516,0.102,-0.232,145.141,3.295,-89.721,1
4.842106,0.511,0.096,-0.215,145.69,4.089,-89.355,1
4.849051,0.498,0.088,-0.195,140.93,6.042,-88.928,1
4.857917,0.454,0.085,-0.168,130.798,8.361,-88.928,1
4.866731,0.426,0.099,-0.149,120.849,10.742,-89.355,1
4.873755,0.45,0.097,-0.136,114.501,12.207,-89.904,1
4.881725,0.483,0.067,-0.128,108.825,13.916,-90.759,1
4.889051,0.499,0.025,-0.145,98.754,15.624,-90.942,1
4.898121,0.525,-0.013,-0.145,88.012,17.639,-90.576,1
4.905879,0.615,-0.053,-0.166,65.368,20.69,-89.904,1
4.91491,0.708,-0.091,-0.175,35.949,23.803,-88.806,1
4.923487,0.77,-0.11,-0.202,10.253,25.939,-88.439,1
4.931977,0.788,-0.111,-0.216,-14.526,28.198,-87.585,1
4.940965,0.848,-0.104,-0.242,-29.418,28.808,-86.914,1
4.949987,0.917,-0.092,-0.27,-33.752,27.465,-86.303,1
4.956649,0.971,-0.084,-0.284,-28.381,25.512,-85.388,1
4.966208,1.01,-0.087,-0.3,-17.028,23.376,-84.838,1
4.973539,1.023,-0.093,-0.3,-3.295,20.935,-84.411,1
4.981295,1.002,-0.109,-0.302,12.268,18.737,-83.374,1
4.990153,1.002,-0.128,-0.299,20.385,17.7,-82.702,1
4.998014,1.003,-0.155,-0.295,24.291,17.15,-81.726,1
5.005224,1.002,-0.163,-0.298,24.047,17.578,-80.871,1
5.014219,1.0,-0.174,-0.298,22.399,17.822,-79.956,1
5.021793,1.018,-0.174,-0.312,20.446,18.493,-78.735,1
5.029701,0.988,-0.168,-0.319,21.911,18.859,-77.697,1
5.038844,0.935,-0.162,-0.334,26.123,18.371,-77.026,1
5.049863,0.916,-0.172,-0.339,30.334,17.456,-76.477,1
5.057527,0.887,-0.186,-0.342,34.484,16.967,-76.477,1
5.066223,0.888,-0.214,-0.35,37.658,15.93,-76.843,1
5.072994,0.884,-0.247,-0.345,38.696,15.502,-77.27,1
5.080807,0.878,-0.287,-0.347,38.879,15.319,-77.453,1
5.089504,0.875,-0.329,-0.344,38.208,14.892,-77.331,1
5.098593,0.89,-0.358,-0.333,36.193,15.258,-76.782,1
5.108086,0.885,-0.385,-0.326,31.799,15.563,-76.049,1
5.115588,0.86,-0.413,-0.321,23.071,16.052,-75.134,1
5.124206,0.834,-0.444,-0.298,7.446,17.211,-74.768,1
5.132909,0.818,-0.467,-0.276,-9.521,18.92,-74.035,1
5.14183,0.761,-0.51,-0.23,-27.343,21.118,-73.486,1
5.150439,0.733,-0.558,-0.177,-42.602,23.681,-72.326,1
5.1578,0.701,-0.5,-0.112,-35.217,25.634,-70.983,1
5.167164,0.726,-0.537,-0.054,-6.713,25.146,-72.509,1
5.174563,0.666,-0.625,0.033,21.301,25.573,-71.777,1
5.182195,0.621,-0.7,0.081,57.312,26.855,-70.861,1
5.191143,0.57,-0.774,0.122,86.547,26.977,-70.373,1
5.198434,0.271,-0.862,0.181,106.262,28.076,-68.054,1
5.207534,0.2,-0.931,0.179,122.009,32.043,-66.284,1
5.216466,0.232,-1.059,0.175,125.244,35.217,-63.537,1
5.22377,0.247,-1.19,0.139,110.473,42.724,-59.082,1
5.231785,0.269,-1.295,0.075,68.481,51.879,-53.71,1
5.240126,0.222,-1.381,0.02,17.272,60.729,-49.011,1
5.248326,0.175,-1.426,0.016,-25.207,67.443,-43.64,1
5.257251,0.095,-1.454,0.039,-44.738,75.195,-36.315,1
5.265773,0.004,-1.494,0.039,-41.198,78.063,-29.724,1
5.273479,-0.073,-1.552,0.054,-26.428,81.42,-20.568,1
5.283142,-0.109,-1.634,0.022,-19.348,84.106,-11.169,1
5.290554,-0.125,-1.72,0.004,-23.01,88.684,1.281,1
5.298833,-0.182,-1.787,-0.035,-35.583,92.59,14.16,1
5.3063,-0.289,-1.832,-0.033,-44.067,97.167,26.0,1
5.314786,-0.385,-1.864,-0.058,-49.804,101.562,38.208,1
5.322633,-0.457,-1.88,-0.058,-54.382,106.384,53.405,1
5.33136,-0.55,-1.894,-0.081,-55.053,110.778,67.138,1
5.339212,-0.658,-1.881,-0.103,-53.71,115.295,82.946,1
5.347914,-0.774,-1.862,-0.145,-50.598,119.323,97.106,1
5.355661,-0.889,-1.822,-0.172,-44.006,121.887,113.586,1
5.363896,-1.056,-1.766,-0.183,-33.142,124.389,129.15,1
5.373319,-1.108,-1.724,-0.231,-16.723,127.624,147.644,1
5.380453,-1.245,-1.734,-0.343,-14.892,128.356,162.475,1
5.389165,-1.453,-1.712,-0.342,-20.812,128.417,181.579,1
5.398993,-1.624,-1.693,-0.396,-6.347,130.065,202.27,1
5.405926,-1.807,-1.735,-0.46,0.732,128.906,223.205,1
5.415046,-2.055,-1.779,-0.535,-8.483,130.92,242.553,1
5.423921,-2.386,-1.74,-0.58,-13.732,129.638,265.258,1
5.433107,-2.764,-1.653,-0.642,9.521,127.441,288.879,1
5.441142,-3.094,-1.598,-0.702,38.574,120.605,309.692,1
5.450136,-3.382,-1.604,-0.85,65.551,112.915,339.843,1
5.458749,-3.683,-1.627,-0.921,63.232,105.285,363.281,1
5.46633,-4.014,-1.709,-1.034,47.302,99.609,393.493,1
5.474569,-4.315,-1.731,-1.113,19.958,94.055,420.532,1
5.483514,-4.719,-1.705,-1.208,-2.624,87.829,454.406,1
5.491133,-5.137,-1.715,-1.277,-8.422,78.308,488.708,1
5.500397,-5.705,-1.677,-1.348,-8.789,70.129,519.592,1
5.508135,-6.33,-1.517,-1.361,28.991,54.504,555.236,1
5.517027,-6.975,-1.676,-1.546,83.129,36.071,594.055,1
5.524706,-7.764,-1.651,-1.679,135.864,11.901,629.882,1
5.533096,-8.904,-1.554,-1.772,209.167,-29.113,671.264,1
5.540651,-10.042,-1.579,-1.835,249.633,-76.782,712.463,1
5.548806,-11.099,-1.52,-1.872,266.479,-120.422,748.84,1
5.557946,-12.227,-1.384,-1.854,286.438,-169.616,783.508,1
5.565912,-13.702,-1.143,-1.728,324.401,-232.788,821.105,1
5.572659,-14.995,-0.886,-1.581,368.469,-293.457,849.975,1
5.581566,-15.999,-0.589,-1.424,421.63,-361.022,874.694,1
5.588642,-15.999,-0.234,-1.214,486.511,-439.147,890.563,1
5.597118,-15.999,0.125,-0.93,550.903,-523.01,897.399,1
5.604218,-15.999,0.56,-0.548,606.14,-625.366,889.221,1
5.613222,-15.999,0.897,-0.17,631.347,-713.928,869.995,1
5.619851,-15.999,1.373,0.358,651.55,-800.659,837.89,1
5.62719,-15.999,1.677,0.722,680.602,-885.864,792.175,1
5.635344,-15.999,2.211,1.13,734.68,-972.717,733.581,1
5.642786,-15.999,2.42,1.496,827.331,-1054.87,655.761,1
5.651708,-15.999,2.556,2.006,933.227,-1134.155,558.166,1
5.662032,-15.999,2.778,2.459,1117.065,-1216.064,385.986,1
5.668912,-15.999,2.713,2.749,1295.654,-1258.117,184.57,1
5.678155,-15.999,2.488,2.666,1372.863,-1250.488,-10.864,1
5.686827,-15.999,1.952,2.664,1271.85,-1203.125,-196.35,1
5.693601,-15.999,1.657,2.856,1003.173,-1093.627,-362.915,1
5.702201,-15.999,1.58,2.942,753.112,-980.712,-476.379,1
5.711095,-15.999,1.545,2.87,698.181,-891.784,-543.762,1
5.718387,-15.999,1.31,2.685,731.872,-796.752,-610.9,1
5.727097,-15.999,0.85,2.491,734.802,-706.42,-659.973,1
5.735729,-15.948,0.418,2.334,620.056,-590.515,-699.157,1
5.744385,-14.715,0.162,2.125,463.684,-502.319,-713.195,1
5.752017,-13.765,0.164,2.224,342.346,-421.142,-710.998,1
5.760875,-12.742,0.122,2.209,333.496,-363.403,-704.345,1
5.767402,-11.843,-0.025,2.254,380.798,-300.476,-695.129,1
5.77676,-11.187,-0.24,2.105,429.199,-245.056,-685.302,1
5.785097,-10.54,-0.46,2.004,479.309,-180.847,-671.936,1
5.791999,-9.855,-0.702,1.862,506.957,-121.948,-657.165,1
5.800411,-8.884,-1.004,1.662,512.756,-52.124,-631.713,1
5.808159,-8.242,-1.291,1.435,480.041,0.732,-605.896,1
5.817042,-7.56,-1.59,1.278,409.606,51.452,-575.073,1
5.824712,-7.027,-1.793,1.12,316.284,94.177,-543.884,1
5.833744,-6.417,-1.859,1.051,225.708,134.277,-506.042,1
5.841789,-5.966,-1.888,0.904,174.072,162.353,-469.909,1
5.849043,-5.547,-1.926,0.826,159.606,180.908,-439.208,1
5.858566,-5.211,-2.013,0.698,153.015,199.035,-403.137,1
5.865178,-4.849,-2.088,0.605,138.427,211.547,-373.046,1
5.873949,-4.363,-2.177,0.47,115.539,225.28,-338.745,1
5.882276,-3.977,-2.228,0.366,91.918,233.764,-310.119,1
5.890009,-3.636,-2.238,0.244,72.204,241.088,-282.959,1
5.898975,-3.384,-2.216,0.082,58.593,244.384,-251.403,1
5.907689,-3.229,-2.158,0.117,38.33,245.239,-226.501,1
5.913945,-3.023,-2.134,-0.101,29.785,243.164,-197.082,1
5.922796,-2.829,-2.012,0.046,25.146,240.112,-174.682,1
5.932818,-2.59,-1.881,-0.137,32.348,235.473,-150.024,1
5.941357,-2.353,-1.846,-0.031,33.63,228.515,-125.671,1
5.950007,-2.105,-1.748,-0.175,39.55,225.524,-103.088,1
5.959045,-1.881,-1.711,-0.135,35.034,220.397,-81.726,1
5.964998,-1.702,-1.64,-0.194,24.047,216.857,-64.636,1
5.974256,-1.503,-1.552,-0.175,12.39,212.524,-46.508,1
5.982159,-1.3,-1.467,-0.216,0.244,208.129,-29.968,1
5.991856,-1.132,-1.351,-0.195,-6.408,203.735,-17.028,1
6.000954,-0.929,-1.245,-0.231,-8.117,198.608,-3.356,1
6.008162,-0.746,-1.146,-0.226,-11.413,193.481,9.704,1
6.017622,-0.581,-1.029,-0.253,-16.174,188.72,21.667,1
6.025084,-0.415,-0.934,-0.238,-22.094,185.363,30.334,1
6.033914,-0.333,-0.837,-0.3,-34.301,181.579,40.222,1
6.042205,-0.276,-0.708,-0.267,-43.762,178.039,47.241,1
6.050543,-0.153,-0.562,-0.304,-46.813,172.607,54.443,1
6.058279,-0.071,-0.469,-0.279,-47.363,168.823,59.02,1
6.066783,0.023,-0.381,-0.317,-46.874,165.1,62.805,1
6.074037,0.111,-0.293,-0.315,-45.41,159.851,65.185,1
6.081876,0.226,-0.207,-0.331,-39.062,155.212,67.077,1
6.089702,0.304,-0.136,-0.334,-28.991,149.292,67.016,1
6.100442,0.374,-0.083,-0.323,-12.39,144.531,67.016,1
6.106791,0.457,-0.048,-0.318,7.934,138.0,66.528,1
6.115314,0.56,-0.034,-0.326,28.259,133.789,67.016,1
6.122958,0.651,0.009,-0.328,46.325,127.868,67.81,1
6.131785,0.681,0.046,-0.308,66.406,124.328,69.152,1
6.140039,0.712,0.086,-0.334,83.129,119.689,70.434,1
6.146964,0.707,0.13,-0.34,88.317,117.187,71.838,1
6.155764,0.771,0.209,-0.379,95.153,115.661,72.509,1
6.163618,0.757,0.255,-0.361,94.482,111.999,72.814,1
6.170234,0.753,0.331,-0.374,93.322,111.999,72.509,1
6.179744,0.701,0.378,-0.353,85.693,110.412,71.105,1
6.187453,0.719,0.415,-0.35,76.843,111.206,69.519,1
6.19405,0.752,0.401,-0.342,63.598,110.534,66.772,1
6.202937,0.881,0.402,-0.353,45.166,113.83,63.842,1
6.210614,0.935,0.437,-0.368,27.893,115.051,59.997,1
6.218738,0.903,0.504,-0.376,27.648,115.295,56.884,1
6.228068,0.929,0.562,-0.408,41.992,112.67,53.588,1
6.235866,0.903,0.622,-0.423,72.509,108.276,50.17,1
6.243448,0.886,0.663,-0.448,101.379,103.515,47.973,1
6.251212,0.895,0.688,-0.476,122.009,99.731,46.386,1
6.258619,0.913,0.71,-0.5,128.54,96.679,45.043,1
6.267366,0.9,0.748,-0.522,123.413,94.116,43.457,1
6.274826,0.847,0.82,-0.532,119.995,92.468,42.297,1
6.282313,0.815,0.881,-0.532,120.727,89.477,39.55,1
6.290182,0.762,0.926,-0.535,124.755,86.791,36.987,1
6.297577,0.703,0.969,-0.54,130.981,82.702,34.362,1
6.305035,0.693,1.0,-0.529,146.728,78.796,31.188,1
6.313971,0.704,1.004,-0.527,158.081,75.561,29.113,1
6.322031,0.735,0.991,-0.512,169.921,71.899,26.55,1
6.329596,0.764,0.994,-0.502,174.926,70.007,24.536,1
6.336618,0.766,0.976,-0.493,173.461,68.237,22.338,1
6.345485,0.772,0.953,-0.471,165.466,68.237,20.874,1
6.352185,0.78,0.913,-0.458,146.057,69.396,18.371,1
6.359678,0.764,0.886,-0.455,119.018,72.448,16.418,1
6.368104,0.743,0.873,-0.458,89.477,75.073,14.099,1
6.376838,0.726,0.872,-0.436,70.129,76.782,11.535,1
6.384038,0.751,0.877,-0.435,70.19,76.66,9.399,1
6.390496,0.775,0.875,-0.412,89.416,74.462,7.324,1
6.398415,0.806,0.858,-0.408,119.812,71.777,5.859,1
6.407175,0.832,0.839,-0.4,149.353,69.03,5.249,1
6.415499,0.763,0.822,-0.4,167.541,68.054,4.638,1
6.4238,0.744,0.804,-0.393,165.832,68.542,4.333,1
6.431432,0.756,0.805,-0.374,155.7,71.044,4.089,1
6.439364,0.741,0.827,-0.373,138.61,74.157,3.234,1
6.448331,0.727,0.851,-0.366,121.52,77.514,2.136,1
6.455437,0.717,0.867,-0.379,103.759,80.444,0.61,1
6.463465,0.731,0.889,-0.37,90.698,83.068,-0.854,1
6.471616,0.734,0.901,-0.373,80.261,85.205,-2.014,1
6.479132,0.719,0.924,-0.375,70.861,86.914,-2.99,1
6.487268,0.683,0.979,-0.371,70.861,88.256,-4.089,1
6.494779,0.654,1.009,-0.381,75.866,88.378,-5.615,1
6.503664,0.641,1.05,-0.38,81.542,88.867,-7.141,1
6.511472,0.607,1.073,-0.38,94.726,87.768,-8.911,1
6.518204,0.589,1.083,-0.384,106.506,87.402,-10.375,1
6.525883,0.574,1.089,-0.398,114.135,86.914,-11.474,1
6.534821,0.551,1.095,-0.405,114.44,87.463,-12.634,1
6.543251,0.539,1.111,-0.421,106.872,87.768,-13.854,1
6.551261,0.516,1.125,-0.425,96.618,88.623,-15.258,1
6.558493,0.497,1.145,-0.424,87.585,89.66,-16.967,1
6.567684,0.484,1.17,-0.426,84.167,89.843,-19.287,1
6.575071,0.479,1.185,-0.426,87.707,89.05,-21.24,1
6.583696,0.492,1.194,-0.426,97.167,88.134,-23.376,1
6.590945,0.507,1.191,-0.431,104.431,87.646,-24.841,1
6.598951,0.519,1.187,-0.437,108.886,86.975,-26.489,1
6.609094,0.52,1.197,-0.442,108.703,87.219,-27.709,1
6.616236,0.523,1.207,-0.435,107.116,87.28,-29.602,1
6.625599,0.516,1.21,-0.427,108.215,87.524,-31.005,1
6.633003,0.501,1.214,-0.424,110.107,87.219,-32.775,1
6.640623,0.494,1.205,-0.415,111.572,87.097,-34.423,1
6.648593,0.491,1.202,-0.406,113.769,87.524,-35.827,1
6.65676,0.489,1.191,-0.402,114.562,87.402,-37.841,1
6.664865,0.492,1.175,-0.399,114.624,87.585,-39.123,1
6.671776,0.491,1.153,-0.4,112.792,87.829,-40.405,1
6.680846,0.49,1.143,-0.402,108.398,88.378,-41.931,1
6.687942,0.481,1.139,-0.396,102.294,88.745,-43.457,1
6.695032,0.47,1.144,-0.389,100.28,89.05,-44.433,1
6.704309,0.455,1.151,-0.374,104.492,88.745,-45.837,1
6.712094,0.438,1.146,-0.365,112.548,88.317,-46.874,1
6.719725,0.433,1.129,-0.36,119.628,88.5,-48.034,1
6.727692,0.441,1.113,-0.357,120.666,89.294,-48.889,1
6.734886,0.435,1.103,-0.358,116.21,90.332,-49.621,1
6.742555,0.439,1.095,-0.356,109.619,91.979,-50.537,1
6.751899,0.457,1.084,-0.356,103.088,93.322,-51.208,1
6.759533,0.471,1.07,-0.367,100.219,94.299,-52.001,1
6.766652,0.483,1.052,-0.364,99.121,94.543,-52.429,1
6.774202,0.496,1.037,-0.372,99.67,94.97,-52.673,1
6.78278,0.505,1.02,-0.374,100.341,94.604,-53.283,1
6.790045,0.509,0.999,-0.375,100.83,94.177,-53.039,1
6.799322,0.497,0.987,-0.374,101.318,93.872,-53.1,1
6.807397,0.476,0.978,-0.37,99.731,93.933,-52.856,1
6.815118,0.454,0.986,-0.378,96.557,93.688,-52.917,1
6.823137,0.427,1.009,-0.377,94.177,93.139,-53.344,1
6.830659,0.426,1.02,-0.384,95.031,92.346,-54.26,1
6.839346,0.426,1.032,-0.394,97.045,91.247,-55.175,1
6.848536,0.44,1.032,-0.4,100.463,90.148,-56.518,1
6.857392,0.451,1.015,-0.41,103.088,88.195,-57.739,1
6.864315,0.479,1.005,-0.403,104.248,87.707,-58.532,1
6.874884,0.499,0.999,-0.407,102.111,87.158,-59.143,1
6.881648,0.496,0.993,-0.408,96.984,87.158,-59.631,1
6.891481,0.493,1.0,-0.404,92.468,87.036,-60.607,1
6.899915,0.487,1.012,-0.391,90.087,87.036,-61.218,1
6.906881,0.469,1.007,-0.394,89.477,86.853,-62.072,1
6.915679,0.48,1.003,-0.395,88.073,87.402,-62.805,1
6.922672,0.474,0.993,-0.405,86.181,87.036,-63.537,1
6.930419,0.47,0.99,-0.411,85.083,87.219,-64.147,1
6.938938,0.47,0.99,-0.416,84.167,87.097,-64.697,1
6.945918,0.467,0.992,-0.429,81.237,87.036,-65.124,1
6.954894,0.459,1.007,-0.436,77.575,86.791,-65.734,1
6.963057,0.454,1.016,-0.442,74.218,86.059,-66.467,1
6.970216,0.449,1.019,-0.444,72.937,85.388,-67.321,1
6.978675,0.451,1.027,-0.452,72.204,84.411,-68.237,1
6.987332,0.453,1.027,-0.461,70.129,83.74,-69.152,1
6.99478,0.452,1.035,-0.475,69.58,82.824,-70.007,1
7.004056,0.473,1.044,-0.481,72.631,80.871,-71.105,1
7.011602,0.497,1.051,-0.483,80.444,78.613,-71.96,1
7.018961,0.521,1.052,-0.483,88.684,76.232,-72.753,1
7.027512,0.533,1.047,-0.479,96.008,74.523,-73.547,1
7.034811,0.545,1.026,-0.475,99.121,73.059,-73.974,1
7.044327,0.557,1.021,-0.466,97.351,72.875,-74.584,1
7.051288,0.552,1.018,-0.469,92.041,72.509,-75.195,1
7.061574,0.552,1.019,-0.461,85.266,72.631,-76.049,1
7.06824,0.548,1.015,-0.468,79.284,71.96,-77.087,1
7.077577,0.552,1.016,-0.475,75.073,71.472,-78.002,1
7.083917,0.566,1.02,-0.474,73.547,70.495,-78.857,1
7.09151,0.578,1.023,-0.474,76.904,68.847,-79.895,1
7.099001,0.605,1.026,-0.459,87.646,66.65,-80.505,1
7.10635,0.617,1.018,-0.458,98.571,64.88,-81.481,1
7.116218,0.607,1.006,-0.455,105.102,63.537,-81.909,1
7.122485,0.599,1.0,-0.456,108.459,62.683,-82.519,1
7.129982,0.603,0.994,-0.454,104.37,62.377,-83.129,1
7.138866,0.594,0.987,-0.45,96.923,62.499,-84.106,1
7.146164,0.585,0.988,-0.443,89.05,62.377,-85.144,1
7.15505,0.594,0.992,-0.433,81.848,62.499,-86.853,1
7.163818,0.593,0.978,-0.426,79.589,61.889,-88.195,1
7.171418,0.602,0.967,-0.429,78.369,60.485,-89.782,1
7.178959,0.637,0.952,-0.418,78.979,59.57,-91.064,1
7.185676,0.642,0.94,-0.422,81.726,58.105,-92.59,1
7.19316,0.636,0.919,-0.422,84.716,56.701,-93.688,1
7.202113,0.662,0.901,-0.43,87.402,54.87,-95.092,1
7.209483,0.683,0.888,-0.428,92.468,53.161,-95.703,1
7.216371,0.682,0.873,-0.437,97.656,50.964,-96.496,1
7.224921,0.678,0.86,-0.431,102.905,48.828,-97.229,1
7.232993,0.675,0.844,-0.436,108.337,46.386,-98.022,1
7.241717,0.675,0.831,-0.425,112.548,44.311,-98.449,1
7.250136,0.672,0.811,-0.412,117.309,42.724,-98.999,1
7.256792,0.668,0.791,-0.409,119.018,41.748,-99.487,1
7.264418,0.674,0.767,-0.41,116.882,41.198,-99.853,1
7.274023,0.686,0.741,-0.412,111.877,41.015,-100.341,1
7.281299,0.696,0.715,-0.408,104.858,40.893,-100.585,1
7.288731,0.696,0.683,-0.411,92.834,41.32,-101.135,1
7.298236,0.674,0.656,-0.405,80.139,42.053,-101.44,1
7.305753,0.671,0.653,-0.409,75.378,40.466,-101.562,1
7.313349,0.705,0.638,-0.392,78.613,39.672,-101.867,1
7.322369,0.706,0.611,-0.406,80.81,38.452,-101.745,1
7.329924,0.689,0.587,-0.403,78.796,36.987,-101.379,1
7.339579,0.683,0.569,-0.399,76.416,36.315,-101.135,1
7.347067,0.683,0.551,-0.393,73.913,34.973,-100.952,1
7.355362,0.674,0.522,-0.393,71.105,34.667,-100.463,1
7.362468,0.678,0.537,-0.392,75.805,32.47,-100.097,1
7.370957,0.649,0.495,-0.384,74.951,31.799,-99.609,1
7.37878,0.686,0.434,-0.397,63.72,31.494,-99.304,1
7.388363,0.696,0.403,-0.389,52.429,30.7,-98.754,1
7.39573,0.708,0.37,-0.379,41.442,30.395,-97.9,1
7.404584,0.712,0.347,-0.386,33.02,29.296,-96.984,1
7.412722,0.724,0.326,-0.394,25.878,27.832,-95.703,1
7.420724,0.711,0.319,-0.387,24.414,25.146,-93.994,1
7.427463,0.688,0.314,-0.392,27.16,22.705,-92.651,1
7.435905,0.69,0.319,-0.397,33.63,20.08,-91.43,1
7.442803,0.717,0.328,-0.399,45.654,16.845,-90.393,1
7.450163,0.723,0.336,-0.406,61.645,12.817,-89.294,1
7.45969,0.714,0.34,-0.408,79.895,9.155,-88.195,1
7.466697,0.708,0.341,-0.421,98.937,5.371,-86.975,1
7.474474,0.708,0.339,-0.429,111.633,2.502,-85.815,1
7.482378,0.701,0.333,-0.44,118.041,-0.061,-84.655,1
7.491734,0.69,0.322,-0.447,113.647,-0.976,-82.824,1
7.4997,0.686,0.308,-0.457,100.219,-1.525,-81.237,1
7.508097,0.747,0.334,-0.49,74.829,0.366,-78.674,1
7.51367,0.775,0.355,-0.507,50.476,1.098,-77.758,1
7.523028,0.866,0.308,-0.541,25.268,2.99,-76.354,1
7.530018,0.848,0.348,-0.578,-0.549,4.76,-75.561,1
7.537926,0.839,0.358,-0.547,-9.765,3.906,-74.951,1
7.546847,0.849,0.39,-0.534,6.958,3.54,-74.279,1
7.553863,0.852,0.404,-0.519,36.071,-0.305,-74.218,1
7.56267,0.845,0.395,-0.515,70.068,-1.586,-73.608,1
7.571735,0.832,0.376,-0.532,95.031,-3.784,-72.937,1
7.579358,0.815,0.362,-0.537,106.567,-3.967,-72.143,1
7.589093,0.799,0.347,-0.541,106.262,-3.967,-71.533,1
7.597362,0.771,0.34,-0.531,95.458,-2.685,-71.472,1
7.605696,0.733,0.348,-0.523,80.383,-0.976,-71.289,1
7.612266,0.703,0.36,-0.51,69.152,0.244,-71.533,1
7.620296,0.702,0.354,-0.515,60.668,1.159,-72.631,1
7.628485,0.785,0.34,-0.512,52.612,2.075,-73.608,1
7.636015,0.814,0.339,-0.515,44.982,2.929,-74.89,1
7.643617,0.832,0.343,-0.509,40.588,3.295,-76.11,1
7.651911,0.841,0.333,-0.51,41.381,2.746,-77.88,1
7.660719,0.845,0.326,-0.482,47.058,2.746,-80.2,1
7.66755,0.845,0.29,-0.478,52.124,2.258,-82.153,1
7.676436,0.819,0.263,-0.441,55.175,2.502,-83.496,1
7.684953,0.807,0.218,-0.424,54.626,2.746,-85.327,1
7.693178,0.797,0.172,-0.406,46.447,3.662,-86.975,1
7.699867,0.802,0.136,-0.384,32.226,5.187,-88.073,1
7.70758,0.805,0.102,-0.357,19.348,5.981,-89.355,1
7.716672,0.82,0.077,-0.333,7.995,7.324,-90.087,1
7.725096,0.818,0.059,-0.313,-0.854,8.056,-90.759,1
7.732185,0.819,0.04,-0.288,-5.676,8.605,-91.003,1
7.740497,0.821,0.022,-0.268,-6.713,8.483,-91.43,1
7.749263,0.807,0.013,-0.251,-4.577,8.3,-91.369,1
7.75633,0.792,0.0,-0.229,-1.403,8.483,-91.064,1
7.767366,0.771,-0.005,-0.21,3.234,8.789,-90.576,1
7.774852,0.754,-0.017,-0.192,7.995,8.605,-89.965,1
7.783727,0.746,-0.024,-0.18,11.23,9.033,-88.989,1
7.791893,0.729,-0.031,-0.172,13.122,8.666,-88.806,1
7.80064,0.674,-0.038,-0.164,13.549,9.216,-87.768,1
7.807899,0.696,-0.047,-0.159,12.573,9.704,-86.547,1
7.815773,0.711,-0.066,-0.158,8.056,10.559,-85.144,1
7.824887,0.743,-0.083,-0.165,0.122,11.596,-83.862,1
7.833649,0.767,-0.096,-0.175,-13.061,12.817,-82.397,1
7.841732,0.812,-0.108,-0.188,-28.625,13.427,-81.237,1
7.849586,0.831,-0.121,-0.192,-43.395,13.61,-80.139,1
7.858839,0.833,-0.107,-0.186,-52.49,13.549,-79.101,1
7.865008,0.826,-0.1,-0.183,-56.64,13.061,-78.125,1
7.87421,0.819,-0.096,-0.176,-53.649,12.451,-77.88,1
7.883852,0.821,-0.082,-0.168,-40.71,11.352,-77.758,1
7.891405,0.825,-0.087,-0.171,-27.099,10.62,-77.758,1
7.901355,0.845,-0.091,-0.173,-10.131,9.765,-78.125,1
7.90896,0.861,-0.104,-0.184,6.164,9.46,-78.552,1
7.917519,0.863,-0.115,-0.187,17.761,8.789,-79.04,1
7.925044,0.839,-0.118,-0.196,27.709,8.85,-79.589,1
7.932219,0.807,-0.137,-0.21,29.113,8.483,-80.139,1
7.941747,0.812,-0.148,-0.199,23.925,9.338,-80.749,1
7.94813,0.802,-0.161,-0.2,15.624,10.681,-81.481,1
7.956544,0.808,-0.165,-0.195,5.981,12.451,-82.519,1
7.964529,0.821,-0.163,-0.192,-2.319,13.916,-84.106,1
7.974069,0.801,-0.147,-0.167,-4.699,14.648,-85.632,1
7.980772,0.77,-0.127,-0.125,3.112,15.502,-87.28,1
7.989882,0.752,-0.138,-0.126,11.108,15.319,-89.538,1
7.999794,0.75,-0.152,-0.09,16.967,17.333,-91.918,1
8.007767,0.728,-0.18,-0.106,16.845,19.897,-94.299,1
8.015659,0.7,-0.208,-0.108,7.446,23.62,-97.229,1
8.025379,0.679,-0.243,-0.125,-12.084,28.32,-99.609,1
8.033116,0.654,-0.267,-0.132,-34.667,32.104,-102.05,1
8.040977,0.609,-0.278,-0.136,-59.326,35.644,-104.125,1
8.050475,0.55,-0.283,-0.13,-76.232,37.719,-106.75,1
8.056896,0.498,-0.292,-0.121,-81.237,38.879,-109.191,1
8.06631,0.402,-0.306,-0.106,-79.772,39.184,-111.572,1
8.074659,0.32,-0.335,-0.115,-78.735,39.855,-113.83,1
8.082421,0.174,-0.431,-0.091,-74.951,39.916,-115.905,1
8.089409,0.284,-0.452,-0.05,-64.331,39.794,-119.14,1
8.097108,0.204,-0.536,-0.032,-55.297,40.344,-120.91,1
8.10584,0.13,-0.639,0.005,-42.541,41.32,-121.887,1
8.11369,0.082,-0.744,0.03,-31.799,41.931,-122.436,1
8.120604,0.096,-0.897,0.068,-23.864,44.189,-122.253,1
8.128599,0.084,-1.044,0.084,-25.573,48.156,-119.873,1
8.136866,0.038,-1.132,0.104,-30.761,51.757,-116.821,1
8.145727,0.039,-1.208,0.123,-35.217,56.03,-112.731,1
8.152974,-0.053,-1.291,0.136,-34.484,58.959,-108.154,1
8.161705,-0.1,-1.369,0.145,-31.433,62.866,-101.379,1
8.168674,-0.122,-1.461,0.123,-26.123,66.65,-93.933,1
8.176496,-0.177,-1.54,0.121,-17.333,68.969,-86.364,1
8.185015,-0.239,-1.621,0.123,-2.929,72.998,-76.293,1
8.194329,-0.314,-1.725,0.113,6.53,77.209,-65.185,1
8.20195,-0.374,-1.799,0.086,9.094,82.946,-54.016,1
8.209086,-0.445,-1.885,0.084,13.793,86.853,-41.992,1
8.217661,-0.588,-1.955,0.078,6.652,92.712,-27.282,1
8.225621,-0.717,-2.084,0.045,-26.245,97.29,-13.244,1
8.233554,-0.797,-2.1,0.07,-53.649,107.788,2.868,1
8.242144,-0.813,-2.087,0.14,-57.006,110.839,16.296,1
8.249503,-0.907,-2.136,0.136,-38.757,116.943,32.226,1
8.258124,-0.952,-2.164,0.129,-9.887,117.858,50.659,1
8.267302,-1.057,-2.243,0.08,19.165,122.07,69.03,1
8.274104,-1.183,-2.328,0.053,27.221,123.168,87.829,1
8.28348,-1.303,-2.367,0.029,3.051,129.516,110.717,1
8.290302,-1.415,-2.377,0.026,2.502,133.605,131.53,1
8.297916,-1.595,-2.342,0.02,32.836,138.61,157.47,1
8.30546,-1.764,-2.371,-0.022,37.78,140.197,179.199,1
8.314321,-1.894,-2.39,-0.071,51.33,143.92,203.43,1
8.323253,-2.23,-2.439,-0.076,23.498,145.935,231.262,1
8.330732,-2.421,-2.454,-0.271,15.319,156.921,258.3,1
8.339586,-2.691,-2.438,-0.215,16.235,156.494,287.475,1
8.347073,-2.999,-2.436,-0.35,60.241,159.545,315.979,1
8.354805,-3.319,-2.508,-0.452,98.022,153.198,346.252,1
8.362166,-3.781,-2.565,-0.655,127.258,150.329,384.216,1
8.371225,-4.217,-2.596,-0.782,133.911,142.7,412.414,1
8.377992,-4.76,-2.571,-0.921,156.799,135.131,454.284,1
8.386983,-5.267,-2.558,-1.114,190.063,118.896,492.248,1
8.394451,-5.914,-2.559,-1.243,229.614,102.416,531.921,1
8.402796,-6.716,-2.584,-1.509,259.033,73.669,580.322,1
8.4114,-7.632,-2.542,-1.609,260.742,48.828,622.253,1
8.418755,-8.514,-2.438,-1.696,251.159,20.08,664.55,1
8.426268,-9.527,-2.289,-1.669,234.313,-12.939,713.989,1
8.43516,-10.91,-1.987,-1.678,228.332,-44.128,755.676,1
8.443228,-12.284,-1.752,-1.588,213.012,-83.984,801.452,1
8.450364,-13.69,-1.477,-1.524,206.848,-116.699,839.599,1
8.458895,-15.096,-1.252,-1.474,203.674,-156.433,875.427,1
8.466923,-15.999,-0.935,-1.365,220.642,-204.345,915.1,1
8.474985,-15.999,-0.588,-1.201,265.686,-265.93,951.11,1
8.484513,-15.999,-0.291,-1.025,318.359,-324.34,978.088,1
8.492211,-15.999,0.067,-0.775,370.788,-392.7,999.145,1
8.500815,-15.999,0.465,-0.479,424.987,-476.928,1018.737,1
8.508926,-15.999,0.801,-0.217,461.914,-571.35,1024.841,1
8.51627,-15.999,1.293,0.235,494.384,-652.526,1023.681,1
8.52549,-15.999,1.566,0.501,528.93,-757.873,1006.103,1
8.533667,-15.999,1.891,1.021,537.719,-860.778,979.858,1
8.542495,-15.999,2.136,1.437,539.55,-947.082,950.927,1
8.549592,-15.999,2.488,2.088,517.456,-1011.535,919.494,1
8.557848,-15.999,3.079,2.694,534.484,-1062.927,883.056,1
8.566151,-15.999,3.795,3.337,735.534,-1124.572,807.434,1
8.573343,-15.999,4.288,3.455,993.286,-1190.185,685.974,1
8.581151,-15.999,4.063,3.483,1236.206,-1270.019,485.9,1
8.58971,-15.999,3.599,3.612,1312.072,-1292.907,281.86,1
8.598818,-15.999,3.007,3.547,1196.533,-1263.061,48.095,1
8.606226,-15.999,2.724,3.748,1023.315,-1190.002,-119.384,1
8.615038,-15.999,2.289,3.578,931.03,-1096.557,-276.062,1
8.623971,-15.999,1.736,3.401,911.254,-991.21,-403.259,1
8.631427,-15.999,1.265,3.126,875.183,-891.723,-493.896,1
8.638639,-15.999,0.878,2.759,810.974,-791.137,-565.246,1
8.646675,-15.814,0.577,2.447,719.299,-689.514,-617.553,1
8.655127,-14.527,0.371,2.27,595.581,-580.2,-655.09,1
8.664119,-13.543,0.194,2.113,497.192,-495.056,-670.471,1
8.671195,-12.671,0.031,2.001,409.24,-424.011,-673.583,1
8.678594,-11.668,-0.06,1.999,334.106,-348.083,-667.175,1
8.687575,-11.054,-0.142,1.921,283.325,-299.133,-656.494,1
8.696467,-10.185,-0.31,1.89,248.84,-240.539,-641.418,1
8.704312,-9.25,-0.5,1.804,218.322,-200.134,-620.483,1
8.713841,-8.247,-0.741,1.811,204.711,-159.973,-599.304,1
8.72227,-7.518,-0.914,1.759,190.429,-121.276,-572.57,1
8.730584,-6.54,-1.063,1.695,192.138,-80.383,-545.959,1
8.739566,-5.76,-1.25,1.558,192.199,-52.307,-525.146,1
8.746075,-5.013,-1.521,1.431,172.485,-15.747,-498.229,1
8.755218,-4.479,-1.659,1.306,142.028,8.789,-473.815,1
8.763935,-4.157,-1.68,1.236,120.239,34.667,-443.664,1
8.772981,-3.884,-1.655,1.142,126.77,51.025,-418.212,1
8.780962,-3.822,-1.648,1.103,135.253,67.321,-385.803,1
8.789625,-3.49,-1.707,0.988,152.099,84.35,-354.736,1
8.797468,-3.212,-1.75,0.916,127.075,100.585,-322.814,1
8.805773,-2.921,-1.746,0.784,94.726,113.525,-296.936,1
8.812731,-2.677,-1.798,0.668,40.039,123.413,-268.554,1
8.821685,-2.373,-1.684,0.729,0.549,130.676,-247.192,1
8.831863,-2.079,-1.565,0.684,6.958,134.399,-223.51,1
8.841,-1.802,-1.564,0.625,32.714,139.587,-200.317,1
8.848726,-1.64,-1.549,0.567,34.606,142.272,-177.49,1
8.858043,-1.487,-1.453,0.517,20.324,148.193,-155.822,1
8.865601,-1.383,-1.359,0.5,7.385,151.062,-136.474,1
8.873773,-1.237,-1.273,0.437,-3.417,154.479,-118.225,1
8.882445,-1.116,-1.171,0.4,-13.122,155.761,-104.187,1
8.890926,-1.02,-1.084,0.349,-18.981,156.372,-88.928,1
8.898328,-0.937,-0.994,0.34,-20.324,155.944,-77.392,1
8.907953,-0.837,-0.899,0.291,-18.493,155.334,-65.002,1
8.915665,-0.744,-0.813,0.253,-18.127,154.235,-54.443,1
8.924375,-0.662,-0.745,0.194,-21.362,153.381,-46.447,1
8.931954,-0.595,-0.686,0.161,-26.977,151.977,-38.024,1
8.941145,-0.492,-0.62,0.113,-29.541,150.512,-31.249,1
8.950008,-0.387,-0.554,0.08,-28.076,147.827,-22.705,1
8.958589,-0.311,-0.505,0.055,-24.108,145.568,-17.028,1
8.966933,-0.203,-0.458,0.018,-20.141,143.005,-10.62,1
8.976203,-0.088,-0.42,-0.01,-18.005,140.808,-5.249,1
8.982993,-0.005,-0.369,-0.03,-15.686,138.0,-0.122,1
8.991431,0.108,-0.326,-0.03,-9.765,136.718,3.906,1
8.998291,0.167,-0.301,-0.087,-12.634,132.934,7.873,1
9.007471,0.197,-0.249,-0.063,-12.939,131.042,11.962,1
9.015004,0.3,-0.197,-0.106,-11.108,126.464,15.869,1
9.025712,0.383,-0.171,-0.097,-9.277,123.107,18.92,1
9.033318,0.479,-0.135,-0.126,-8.056,117.98,21.911,1
9.040726,0.5,-0.116,-0.121,-7.934,113.098,24.23,1
9.048006,0.494,-0.099,-0.126,-13.427,109.741,25.634,1
9.056277,0.548,-0.084,-0.128,-19.836,105.59,26.794,1
9.065112,0.587,-0.04,-0.109,-12.634,101.623,27.526,1
9.072384,0.619,-0.025,-0.1,1.708,96.74,28.259,1
9.081238,0.568,-0.015,-0.094,21.301,93.139,29.418,1
9.088483,0.573,-0.041,-0.086,31.677,86.486,30.517,1
9.097378,0.567,-0.043,-0.086,38.208,83.618,32.104,1
9.104638,0.574,-0.048,-0.069,42.358,79.162,33.081,1
9.112909,0.552,-0.051,-0.064,46.997,76.66,34.667,1
9.119605,0.563,-0.06,-0.065,46.325,73.913,35.522,1
9.128824,0.595,-0.072,-0.054,43.945,73.608,36.804,1
9.139012,0.602,-0.078,-0.072,35.034,71.411,37.841,1
9.14562,0.606,-0.083,-0.076,24.963,70.739,39.001,1
9.154345,0.594,-0.084,-0.08,14.038,68.542,39.611,1
9.161665,0.601,-0.087,-0.077,3.356,68.298,40.832,1
9.170806,0.61,-0.086,-0.081,-4.15,66.772,42.175,1
9.179253,0.603,-0.078,-0.08,-8.483,66.162,43.945,1
9.188181,0.587,-0.067,-0.088,-11.474,62.927,45.593,1
9.196907,0.534,-0.059,-0.062,-4.333,62.683,47.546,1
9.204806,0.54,-0.051,-0.08,-5.187,56.945,47.973,1
9.213176,0.546,-0.024,-0.02,4.516,57.312,48.828,1
9.220796,0.567,-0.026,-0.044,22.949,54.626,50.048,1
9.227995,0.568,-0.02,-0.011,40.222,54.687,50.781,1
9.236897,0.597,-0.026,-0.02,57.128,54.748,51.818,1
9.243333,0.641,-0.035,-0.025,72.631,55.297,52.795,1
9.25157,0.656,-0.052,-0.057,87.463,53.833,55.053,1
9.259075,0.721,-0.052,-0.046,99.609,53.039,56.396,1
9.26775,0.751,-0.076,-0.057,108.581,53.344,58.105,1
9.275225,0.781,-0.1,-0.071,114.074,52.062,60.974,1
9.283021,0.763,-0.111,-0.067,116.516,51.391,64.27,1
9.290771,0.784,-0.119,-0.066,116.088,51.696,66.589,1
9.299901,0.777,-0.14,-0.069,111.816,52.185,69.152,1
9.306572,0.797,-0.158,-0.059,105.59,53.71,72.57,1
9.315797,0.806,-0.167,-0.058,94.909,56.213,76.477,1
9.322494,0.8,-0.172,-0.05,85.571,58.837,80.566,1
9.330692,0.775,-0.178,-0.029,77.697,62.805,83.923,1
9.339702,0.8,-0.172,-0.086,66.101,63.415,88.562,1
9.347552,0.74,-0.157,-0.032,59.814,67.626,92.163,1
9.354893,0.747,-0.159,-0.091,50.964,69.213,95.458,1
9.363877,0.693,-0.149,-0.055,45.471,71.899,98.144,1
9.371851,0.625,-0.153,-0.078,41.137,73.425,100.83,1
9.379838,0.534,-0.138,-0.05,39.794,75.683,103.759,1
9.387368,0.464,-0.132,-0.062,40.344,77.148,105.895,1
9.395812,0.394,-0.136,-0.037,42.358,79.711,109.252,1
9.404348,0.387,-0.158,-0.049,43.457,80.932,112.792,1
9.41175,0.375,-0.167,-0.034,47.424,83.251,117.37,1
9.419699,0.48,-0.179,-0.019,57.006,85.998,123.779,1
9.427839,0.651,-0.184,0.021,74.462,91.552,128.356,1
9.4357,0.732,-0.147,-0.023,100.402,94.116,138.366,1
9.443283,0.666,-0.15,0.037,126.098,99.121,145.507,1
9.452132,0.596,-0.126,-0.075,144.653,102.111,154.296,1
9.459389,0.526,-0.116,-0.038,154.235,104.675,161.865,1
9.468111,0.433,-0.113,-0.106,160.217,106.933,170.532,1
9.475978,0.328,-0.083,-0.1,164.55,106.628,179.443,1
9.483413,0.244,-0.056,-0.133,172.729,106.994,190.246,1
9.490994,0.123,-0.025,-0.147,178.222,105.041,197.204,1
9.498021,-0.031,0.022,-0.164,188.415,103.759,208.19,1
9.506929,-0.212,0.075,-0.198,192.565,99.853,216.979,1
9.513916,-0.481,0.18,-0.222,191.04,97.167,226.928,1
9.522046,-0.713,0.334,-0.268,182.739,92.651,232.177,1
9.529628,-0.949,0.493,-0.278,169.921,89.294,235.9,1
9.538539,-1.129,0.6,-0.333,142.089,87.036,238.586,1
9.545279,-1.196,0.725,-0.369,88.195,86.914,241.882,1
9.552902,-1.117,0.882,-0.421,46.936,87.707,242.919,1
9.561707,-1.084,1.064,-0.458,0.366,88.806,241.516,1
9.57007,-1.107,1.27,-0.489,-16.662,87.768,238.586,1
9.577124,-1.162,1.502,-0.507,-4.821,84.045,234.13,1
9.58581,-1.229,1.656,-0.531,34.729,76.721,228.393,1
9.593377,-1.275,1.775,-0.556,77.026,67.382,222.106,1
9.603757,-1.252,1.822,-0.55,101.867,60.18,216.308,1
9.610604,-1.194,1.812,-0.536,109.619,53.771,210.144,1
9.619143,-1.088,1.773,-0.502,100.28,51.086,205.383,1
9.627596,-0.98,1.739,-0.478,80.81,50.048,200.439,1
9.636318,-0.883,1.708,-0.459,59.265,50.537,196.777,1
9.645272,-0.843,1.701,-0.462,27.038,52.307,192.199,1
9.652049,-0.818,1.728,-0.447,-0.732,53.71,187.255,1
9.660061,-0.816,1.771,-0.431,-13.061,54.687,182.739,1
9.668321,-0.843,1.803,-0.422,-18.371,54.748,177.917,1
9.676621,-0.835,1.806,-0.41,-16.601,54.565,171.752,1
9.685472,-0.841,1.778,-0.4,-6.347,52.917,166.137,1
9.693701,-0.856,1.743,-0.382,5.859,50.598,161.926,1
9.700969,-0.856,1.71,-0.37,17.578,48.156,157.958,1
9.709624,-0.845,1.684,-0.353,24.23,46.02,154.296,1
9.717404,-0.836,1.671,-0.369,17.089,45.227,150.268,1
9.72546,-0.849,1.668,-0.351,4.028,44.738,146.24,1
9.732687,-0.841,1.675,-0.333,-4.516,44.006,141.906,1
9.741528,-0.799,1.671,-0.293,-1.647,42.48,137.207,1
9.749208,-0.757,1.643,-0.269,13.244,41.198,132.934,1
9.756602,-0.72,1.608,-0.246,28.015,39.489,129.455,1
9.763461,-0.685,1.55,-0.245,36.376,40.039,126.403,1
9.774204,-0.664,1.5,-0.244,32.409,40.344,123.413,1
9.781458,-0.606,1.45,-0.229,20.324,42.175,119.995,1
9.790434,-0.652,1.424,-0.225,10.864,43.762,117.065,1
9.79795,-0.658,1.412,-0.22,5.126,44.372,113.83,1
9.805608,-0.655,1.409,-0.21,3.417,45.104,111.816,1
9.814725,-0.643,1.397,-0.21,-0.488,46.325,108.337,1
9.822614,-0.629,1.375,-0.209,-5.126,46.691,105.468,1
9.8315,-0.621,1.342,-0.196,-8.789,48.034,102.172,1
9.839213,-0.595,1.31,-0.184,-8.117,48.522,99.853,1
9.848195,-0.576,1.297,-0.17,1.159,49.194,97.656,1
9.856387,-0.567,1.271,-0.162,13.0,49.438,96.069,1
9.864811,-0.566,1.233,-0.162,20.935,50.598,94.543,1
9.872656,-0.572,1.203,-0.179,17.456,52.307,93.444,1
9.879767,-0.579,1.18,-0.187,2.807,55.419,91.918,1
9.890564,-0.539,1.181,-0.189,-11.901,58.288,90.026,1
9.89824,-0.606,1.16,-0.196,-28.442,62.072,88.562,1
9.907282,-0.611,1.164,-0.204,-38.513,64.208,86.975,1
9.914259,-0.615,1.16,-0.189,-39.428,66.223,85.754,1
9.92325,-0.619,1.15,-0.201,-36.621,67.016,84.533,1
9.931065,-0.619,1.136,-0.187,-31.372,67.993,83.557,1
9.940591,-0.618,1.12,-0.186,-21.667,68.481,82.458,1
9.948282,-0.625,1.104,-0.189,-15.808,69.091,81.726,1
9.957782,-0.623,1.09,-0.196,-13.061,69.58,81.054,1
9.965629,-0.653,1.079,-0.208,-15.869,71.105,80.261,1
9.974544,-0.69,1.074,-0.217,-23.864,72.265,79.589,1
9.981701,-0.734,1.086,-0.213,-30.395,73.364,78.918,1
9.989712,-0.78,1.109,-0.211,-38.208,74.462,77.514,1
9.99918,-0.801,1.122,-0.207,-43.212,75.683,75.927,1
