timestamp_s,ax,ay,az,gx,gy,gz,label
0.007396,-0.624,1.12,-0.253,-6.713,-0.732,-72.143,1
0.014082,-0.621,1.133,-0.267,-9.155,-1.831,-73.547,1
0.023187,-0.62,1.152,-0.273,-9.46,-3.784,-74.768,1
0.030222,-0.62,1.166,-0.27,-5.371,-5.92,-76.477,1
0.038501,-0.628,1.172,-0.28,-0.671,-7.934,-78.247,1
0.045305,-0.628,1.173,-0.273,4.882,-10.07,-79.772,1
0.053745,-0.62,1.18,-0.274,11.718,-11.84,-81.237,1
0.061681,-0.624,1.177,-0.277,17.272,-13.061,-83.068,1
0.068466,-0.626,1.182,-0.291,19.714,-14.404,-84.594,1
0.076714,-0.623,1.194,-0.301,17.7,-15.197,-86.547,1
0.083662,-0.63,1.212,-0.314,10.62,-16.174,-88.745,1
0.091949,-0.632,1.238,-0.322,1.342,-16.784,-90.942,1
0.098908,-0.634,1.277,-0.33,-7.385,-17.822,-93.383,1
0.107714,-0.634,1.298,-0.334,-16.54,-18.737,-96.374,1
0.11439,-0.64,1.312,-0.334,-22.094,-20.08,-99.365,1
0.122692,-0.646,1.333,-0.328,-23.376,-21.911,-101.684,1
0.131329,-0.663,1.341,-0.332,-20.385,-24.291,-104.248,1
0.137949,-0.667,1.345,-0.327,-12.878,-26.428,-106.506,1
0.146488,-0.654,1.333,-0.329,-2.319,-28.93,-108.581,1
0.154878,-0.649,1.323,-0.34,9.399,-31.799,-110.534,1
0.163234,-0.649,1.303,-0.339,18.31,-33.996,-112.67,1
0.169856,-0.645,1.283,-0.337,23.803,-35.888,-114.135,1
0.178117,-0.629,1.255,-0.327,27.526,-37.048,-115.295,1
0.18645,-0.617,1.235,-0.325,28.686,-37.963,-116.333,1
0.194843,-0.607,1.214,-0.313,28.076,-38.452,-117.309,1
0.201697,-0.584,1.196,-0.301,25.451,-38.269,-118.164,1
0.21106,-0.576,1.183,-0.291,21.911,-37.719,-119.323,1
0.219507,-0.557,1.178,-0.293,16.479,-36.743,-120.239,1
0.226192,-0.54,1.193,-0.308,9.033,-36.315,-120.91,1
0.234578,-0.532,1.221,-0.326,1.892,-36.315,-121.887,1
0.241166,-0.527,1.248,-0.341,-2.319,-37.231,-122.924,1
0.249084,-0.53,1.267,-0.352,-4.455,-38.208,-124.328,1
0.25741,-0.527,1.286,-0.358,-4.76,-39.489,-125.915,1
0.265377,-0.507,1.299,-0.36,-2.563,-41.32,-127.197,1
0.273694,-0.499,1.321,-0.364,-1.892,-42.541,-128.601,1
0.280604,-0.484,1.35,-0.354,0.0,-43.762,-129.943,1
0.289119,-0.463,1.373,-0.346,4.333,-44.677,-131.652,1
0.295775,-0.459,1.382,-0.336,8.789,-45.104,-133.728,1
0.304098,-0.444,1.377,-0.33,9.216,-45.043,-135.742,1
0.312195,-0.419,1.375,-0.325,2.746,-43.945,-138.488,1
0.318855,-0.403,1.371,-0.329,-7.934,-42.541,-140.991,1
0.329152,-0.398,1.364,-0.327,-21.667,-41.137,-142.883,1
0.335323,-0.377,1.355,-0.334,-38.696,-39.489,-144.775,1
0.343264,-0.363,1.361,-0.333,-59.509,-38.085,-146.911,1
0.352017,-0.348,1.378,-0.336,-73.791,-37.475,-148.132,1
0.360028,-0.34,1.409,-0.347,-81.542,-37.963,-149.719,1
0.367974,-0.333,1.429,-0.346,-77.88,-39.672,-150.939,1
0.376293,-0.314,1.436,-0.355,-67.565,-41.381,-152.099,1
0.383407,-0.313,1.437,-0.375,-53.527,-44.311,-153.381,1
0.391912,-0.322,1.44,-0.4,-46.447,-46.142,-154.663,1
0.398641,-0.324,1.436,-0.416,-43.09,-47.668,-156.188,1
0.406752,-0.309,1.435,-0.426,-40.039,-49.377,-157.226,1
0.415094,-0.296,1.432,-0.449,-37.963,-51.147,-158.935,1
0.421607,-0.293,1.424,-0.461,-37.292,-53.161,-160.095,1
0.430041,-0.282,1.407,-0.466,-39.306,-54.382,-161.621,1
0.438048,-0.26,1.383,-0.487,-44.982,-55.419,-162.78,1
0.44521,-0.211,1.336,-0.568,-59.753,-53.344,-164.306,1
0.453521,-0.24,1.292,-0.504,-83.74,-54.138,-166.076,1
0.46048,-0.205,1.214,-0.602,-108.032,-49.011,-166.992,1
0.468042,-0.184,1.227,-0.604,-135.375,-52.978,-168.884,1
0.476686,-0.172,1.205,-0.537,-144.409,-48.828,-168.823,1
0.482999,-0.176,1.18,-0.583,-148.986,-52.307,-169.677,1
0.490993,-0.213,1.127,-0.539,-151.184,-51.696,-170.593,1
0.499559,-0.201,1.106,-0.586,-158.752,-53.222,-170.837,1
0.507191,-0.172,1.108,-0.558,-162.719,-54.382,-170.898,1
0.513863,-0.13,1.107,-0.606,-165.588,-56.518,-170.715,1
0.522205,-0.149,1.109,-0.648,-177.551,-58.776,-170.532,1
0.530043,-0.125,1.117,-0.71,-196.594,-61.889,-169.921,1
0.538623,-0.165,1.139,-0.742,-213.012,-66.711,-168.762,1
0.545889,-0.217,1.145,-0.746,-212.341,-74.584,-166.809,1
0.554098,-0.243,1.082,-0.702,-200.683,-81.848,-165.344,1
0.561627,-0.25,0.964,-0.658,-189.27,-87.951,-162.963,1
0.568785,-0.29,0.858,-0.581,-177.917,-92.468,-161.254,1
0.577581,-0.326,0.75,-0.509,-165.771,-94.97,-159.79,1
0.585529,-0.337,0.629,-0.428,-153.442,-96.74,-158.752,1
0.593943,-0.317,0.528,-0.37,-146.362,-96.618,-157.47,1
0.600615,-0.287,0.44,-0.294,-143.005,-97.167,-155.822,1
0.609083,-0.271,0.364,-0.242,-138.0,-96.984,-152.099,1
0.616027,-0.269,0.302,-0.2,-132.934,-97.229,-148.437,1
0.623727,-0.244,0.244,-0.17,-128.173,-97.045,-143.737,1
0.632023,-0.194,0.205,-0.147,-125.183,-96.557,-138.305,1
0.640527,-0.145,0.173,-0.14,-123.107,-95.947,-132.446,1
0.648524,-0.082,0.146,-0.129,-121.215,-95.581,-126.159,1
0.655412,-0.032,0.121,-0.129,-119.14,-95.092,-120.117,1
0.66341,0.018,0.102,-0.119,-114.196,-94.726,-113.342,1
0.671378,0.09,0.076,-0.119,-107.299,-93.688,-107.421,1
0.679677,0.218,0.057,-0.108,-99.426,-93.078,-101.684,1
0.686597,0.312,0.04,-0.095,-88.378,-92.102,-96.008,1
0.695241,0.37,0.026,-0.07,-76.782,-91.613,-90.27,1
0.701824,0.458,0.023,-0.056,-64.697,-90.148,-83.068,1
0.708957,0.498,0.027,-0.029,-53.405,-89.05,-76.477,1
0.717062,0.519,0.035,0.003,-44.128,-88.928,-71.594,1
0.723766,0.541,0.033,0.039,-35.4,-87.89,-66.65,1
0.732101,0.578,0.041,0.08,-28.625,-87.158,-61.95,1
0.740379,0.587,0.05,0.125,-24.047,-84.594,-57.678,1
0.746964,0.538,0.058,0.156,-21.545,-82.336,-54.26,1
0.755448,0.604,0.062,0.2,-18.92,-78.735,-50.659,1
0.763491,0.693,0.05,0.215,-20.996,-75.561,-48.034,1
0.771264,0.701,0.046,0.251,-29.968,-71.35,-45.837,1
0.777766,0.695,0.044,0.266,-46.691,-66.65,-43.762,1
0.787016,0.675,0.044,0.283,-74.035,-60.607,-39.978,1
0.794205,0.682,0.071,0.278,-101.074,-55.358,-36.682,1
0.802157,0.678,0.119,0.273,-130.615,-50.292,-33.386,1
0.808604,0.672,0.218,0.271,-158.081,-46.264,-30.639,1
0.81694,0.695,0.384,0.28,-171.508,-44.189,-29.968,1
0.824996,0.745,0.52,0.287,-163.269,-45.593,-30.029,1
0.831862,0.819,0.659,0.278,-132.202,-46.02,-32.287,1
0.840315,0.785,0.743,0.266,-92.468,-47.851,-35.339,1
0.847326,0.779,0.787,0.211,-59.387,-48.217,-40.1,1
0.855903,0.721,0.781,0.162,-49.011,-47.18,-46.142,1
0.861984,0.629,0.762,0.097,-64.575,-43.701,-52.612,1
0.870059,0.569,0.767,0.058,-92.163,-40.954,-59.326,1
0.876662,0.467,0.765,0.008,-116.577,-38.818,-65.979,1
0.88502,0.447,0.769,-0.027,-128.784,-38.818,-72.265,1
0.893528,0.446,0.755,-0.081,-127.136,-40.771,-78.613,1
0.900384,0.429,0.723,-0.131,-117.004,-44.616,-84.777,1
0.908621,0.406,0.659,-0.173,-101.745,-49.804,-91.552,1
0.915693,0.425,0.59,-0.208,-92.59,-54.077,-96.862,1
0.923824,0.462,0.522,-0.246,-89.477,-57.8,-101.867,1
0.930734,0.445,0.452,-0.28,-93.933,-61.645,-106.628,1
0.938529,0.362,0.403,-0.306,-102.661,-65.002,-110.717,1
0.946828,0.243,0.372,-0.313,-108.032,-70.312,-114.501,1
0.955543,0.136,0.327,-0.319,-103.942,-75.927,-117.797,1
0.963578,0.066,0.277,-0.331,-92.651,-83.435,-121.398,1
0.970146,0.0,0.212,-0.355,-83.496,-90.026,-124.328,1
0.978638,-0.074,0.146,-0.394,-78.186,-96.679,-126.831,1
0.986204,-0.18,0.062,-0.416,-76.477,-103.027,-128.723,1
0.994684,-0.317,-0.017,-0.436,-80.627,-108.825,-130.004,1
1.00256,-0.43,-0.134,-0.446,-95.153,-115.112,-129.821,1
1.012315,-0.507,-0.239,-0.435,-115.295,-119.323,-128.479,1
1.019188,-0.596,-0.312,-0.423,-144.226,-124.084,-125.366,1
1.028431,-0.691,-0.385,-0.395,-168.334,-129.211,-121.765,1
1.035343,-0.798,-0.44,-0.371,-185.241,-136.962,-115.356,1
1.043948,-0.879,-0.505,-0.341,-184.387,-144.836,-109.313,1
1.052641,-0.95,-0.596,-0.325,-173.95,-155.761,-101.501,1
1.059158,-0.955,-0.728,-0.305,-161.804,-164.123,-92.651,1
1.068529,-0.97,-0.819,-0.28,-150.817,-172.546,-83.068,1
1.076801,-1.015,-0.939,-0.289,-139.709,-182.128,-71.594,1
1.08358,-1.037,-1.005,-0.267,-130.432,-190.307,-61.523,1
1.092394,-1.135,-1.099,-0.269,-113.037,-200.256,-48.828,1
1.100463,-1.199,-1.198,-0.243,-97.839,-209.838,-36.621,1
1.108262,-1.23,-1.324,-0.238,-85.876,-218.383,-23.62,1
1.116253,-1.325,-1.467,-0.206,-80.444,-229.248,-7.446,1
1.125126,-1.402,-1.57,-0.157,-80.322,-237.426,8.178,1
1.131504,-1.541,-1.68,-0.117,-88.195,-244.934,25.451,1
1.140206,-1.661,-1.84,-0.097,-108.886,-252.929,46.081,1
1.147984,-1.707,-1.981,0.037,-134.643,-260.742,72.998,1
1.156154,-1.899,-2.048,0.135,-151.245,-266.967,98.083,1
1.162394,-2.133,-2.085,0.291,-158.935,-273.559,124.694,1
1.170702,-2.359,-2.132,0.451,-166.564,-276.855,153.076,1
1.179642,-2.627,-2.158,0.573,-168.823,-281.738,181.518,1
1.188144,-3.09,-2.096,0.719,-160.644,-283.386,210.815,1
1.196387,-3.304,-2.152,0.816,-167.907,-288.33,246.643,1
1.20299,-3.531,-2.145,0.952,-185.485,-284.301,286.438,1
1.210829,-3.86,-2.056,1.062,-197.631,-281.86,322.265,1
1.218775,-4.216,-1.963,1.222,-204.528,-273.559,358.581,1
1.225823,-4.675,-1.8,1.299,-213.378,-267.822,397.155,1
1.234136,-5.07,-1.702,1.487,-202.514,-254.333,437.622,1
1.242078,-5.49,-1.618,1.652,-186.889,-242.797,483.764,1
1.250457,-5.985,-1.523,1.788,-174.072,-225.83,523.864,1
1.258055,-6.519,-1.403,1.904,-175.048,-208.312,563.049,1
1.266375,-7.031,-1.304,2.011,-189.88,-184.02,602.294,1
1.273769,-7.64,-1.116,2.075,-208.801,-156.005,641.357,1
1.281638,-8.307,-0.956,2.112,-234.313,-123.046,681.274,1
1.288694,-9.182,-0.703,2.053,-279.846,-77.087,726.989,1
1.297001,-9.919,-0.416,2.004,-327.27,-30.761,764.892,1
1.305244,-10.715,-0.038,1.889,-361.938,22.155,800.964,1
1.312916,-11.557,0.371,1.731,-372.558,72.937,832.336,1
1.319504,-12.39,0.683,1.602,-368.286,127.441,859.069,1
1.326691,-13.375,1.065,1.453,-359.13,177.368,880.981,1
1.333615,-14.358,1.456,1.415,-337.463,217.956,894.775,1
1.341455,-15.333,1.773,1.329,-304.931,262.573,908.142,1
1.349237,-15.99,2.004,1.337,-278.686,304.504,916.748,1
1.356122,-15.999,2.258,1.307,-265.014,348.266,921.874,1
1.364195,-15.999,2.482,1.251,-274.23,392.028,922.424,1
1.372013,-15.999,2.642,1.165,-308.654,442.993,917.297,1
1.379025,-15.999,2.794,1.013,-354.309,497.314,906.799,1
1.385654,-15.999,2.909,0.875,-404.235,556.274,890.441,1
1.39497,-15.999,2.931,0.67,-455.505,621.704,869.079,1
1.401614,-15.999,3.027,0.421,-509.948,692.993,841.064,1
1.410127,-15.999,3.129,0.085,-557.617,761.596,805.053,1
1.417346,-15.999,3.06,-0.372,-636.535,831.97,761.901,1
1.425101,-15.999,3.093,-0.74,-729.37,898.01,698.73,1
1.431822,-15.999,3.195,-1.092,-804.016,962.89,617.37,1
1.440026,-15.999,3.316,-1.537,-838.134,1010.925,518.188,1
1.448156,-15.999,3.248,-2.037,-851.623,1042.175,408.142,1
1.456216,-15.999,2.866,-2.485,-909.24,1056.518,271.972,1
1.464317,-15.999,2.41,-2.656,-1002.197,1060.363,149.23,1
1.471611,-15.999,2.106,-2.791,-1084.655,1045.471,20.751,1
1.479935,-15.474,1.798,-2.514,-1086.792,998.962,-128.967,1
1.488107,-14.195,1.612,-2.243,-986.022,945.312,-237.67,1
1.496222,-12.969,1.374,-2.21,-849.548,871.52,-321.96,1
1.503487,-11.736,1.028,-2.075,-715.209,796.691,-382.934,1
1.510793,-10.762,0.678,-2.072,-616.088,727.477,-425.476,1
1.517449,-10.108,0.463,-2.132,-553.466,662.353,-455.505,1
1.526565,-9.434,0.253,-2.183,-509.887,600.708,-477.966,1
1.533729,-8.729,-0.019,-2.167,-484.924,541.259,-494.934,1
1.541503,-8.006,-0.308,-2.072,-467.102,479.797,-507.385,1
1.549436,-7.326,-0.568,-2.06,-459.289,429.321,-513.732,1
1.558111,-6.774,-0.782,-1.95,-454.589,381.469,-515.991,1
1.565655,-6.188,-0.955,-1.869,-450.744,337.829,-512.573,1
1.574114,-5.698,-1.022,-1.758,-438.293,291.137,-505.859,1
1.581337,-5.293,-1.045,-1.642,-394.042,243.591,-493.713,1
1.58955,-4.927,-1.067,-1.575,-352.844,202.941,-479.492,1
1.59766,-4.375,-1.079,-1.469,-307.006,166.381,-463.256,1
1.605785,-3.919,-1.105,-1.398,-249.389,127.319,-442.687,1
1.614017,-3.467,-1.104,-1.283,-207.702,99.609,-423.95,1
1.62232,-3.102,-1.086,-1.194,-173.583,72.998,-402.343,1
1.630048,-2.855,-1.03,-1.062,-150.695,54.26,-384.582,1
1.637705,-2.593,-0.957,-0.955,-132.08,37.841,-367.492,1
1.645378,-2.408,-0.901,-0.859,-117.553,23.62,-352.111,1
1.65243,-2.288,-0.854,-0.785,-110.168,10.009,-335.632,1
1.660274,-2.18,-0.818,-0.709,-108.52,-0.122,-322.143,1
1.670861,-2.081,-0.776,-0.645,-106.628,-9.826,-309.265,1
1.678723,-1.987,-0.74,-0.573,-95.642,-20.751,-294.799,1
1.685789,-1.91,-0.741,-0.526,-76.11,-29.907,-282.897,1
1.693633,-1.751,-0.754,-0.468,-53.344,-37.841,-271.179,1
1.703419,-1.638,-0.773,-0.423,-16.723,-44.433,-257.812,1
1.710657,-1.559,-0.857,-0.427,1.77,-48.522,-244.689,1
1.719082,-1.445,-0.922,-0.429,3.479,-49.316,-233.337,1
1.727341,-1.334,-0.962,-0.421,-2.746,-49.621,-221.801,1
1.733999,-1.163,-0.967,-0.41,-10.925,-49.926,-208.801,1
1.742214,-1.085,-0.958,-0.391,-13.977,-49.316,-199.096,1
1.750227,-1.036,-0.956,-0.404,-18.493,-49.499,-186.157,1
1.757671,-0.983,-0.952,-0.381,-24.047,-49.255,-175.292,1
1.766343,-0.914,-0.938,-0.378,-29.357,-48.339,-164.916,1
1.773343,-0.847,-0.918,-0.358,-34.851,-47.363,-153.625,1
1.781546,-0.809,-0.889,-0.346,-37.597,-46.02,-144.592,1
1.790067,-0.772,-0.868,-0.329,-38.452,-45.41,-136.047,1
1.798295,-0.718,-0.865,-0.308,-36.01,-43.762,-127.624,1
1.805972,-0.64,-0.868,-0.298,-28.259,-42.114,-117.431,1
1.814225,-0.603,-0.878,-0.297,-22.155,-40.527,-110.351,1
1.822485,-0.533,-0.906,-0.302,-21.484,-38.208,-103.027,1
1.831077,-0.474,-0.936,-0.312,-26.428,-35.095,-95.275,1
1.839712,-0.364,-0.962,-0.318,-32.409,-32.714,-88.256,1
1.848178,-0.291,-0.964,-0.33,-37.902,-30.151,-80.261,1
1.855164,-0.224,-0.957,-0.331,-41.748,-28.381,-73.242,1
1.862193,-0.175,-0.939,-0.343,-43.64,-26.611,-66.528,1
1.870692,-0.148,-0.922,-0.343,-43.029,-25.512,-60.119,1
1.877477,-0.114,-0.915,-0.352,-39.001,-24.23,-53.833,1
1.887525,-0.081,-0.872,-0.345,-31.433,-23.803,-47.851,1
1.894694,-0.011,-0.859,-0.356,-16.052,-22.155,-41.625,1
1.903381,-0.015,-0.885,-0.37,-13.549,-20.996,-36.499,1
1.910544,0.038,-0.896,-0.4,-22.827,-17.517,-31.738,1
1.919032,0.077,-0.874,-0.413,-31.921,-15.686,-27.404,1
1.926043,0.11,-0.854,-0.423,-34.545,-13.427,-23.742,1
1.933142,0.146,-0.841,-0.436,-34.606,-11.779,-19.409,1
1.943076,0.182,-0.836,-0.451,-36.56,-9.399,-15.747,1
1.9509,0.209,-0.799,-0.473,-40.71,-7.629,-11.657,1
1.957753,0.227,-0.77,-0.493,-42.053,-5.798,-8.789,1
1.966338,0.25,-0.739,-0.517,-42.419,-4.333,-6.347,1
1.973004,0.276,-0.715,-0.535,-42.297,-3.051,-3.967,1
1.981043,0.283,-0.692,-0.554,-41.076,-1.892,-1.892,1
1.988968,0.3,-0.679,-0.581,-40.344,-0.854,0.183,1
1.995601,0.333,-0.676,-0.588,-40.161,0.244,2.258,1
2.004075,0.345,-0.678,-0.605,-41.198,1.098,4.333,1
2.012517,0.39,-0.68,-0.614,-41.809,2.075,6.347,1
2.019642,0.439,-0.675,-0.631,-40.283,2.929,8.544,1
2.026624,0.456,-0.675,-0.652,-37.963,3.54,10.925,1
2.034582,0.477,-0.672,-0.669,-36.621,3.784,13.0,1
2.042032,0.502,-0.67,-0.682,-34.301,4.089,14.587,1
2.049016,0.511,-0.66,-0.697,-29.602,3.723,16.723,1
2.057672,0.514,-0.645,-0.701,-22.338,3.784,18.676,1
2.064693,0.524,-0.625,-0.704,-14.892,3.173,20.935,1
2.071225,0.501,-0.609,-0.71,-9.155,3.845,22.583,1
2.080846,0.483,-0.602,-0.728,-6.469,4.15,24.23,1
2.087399,0.484,-0.602,-0.746,-7.751,4.821,25.634,1
2.095171,0.505,-0.601,-0.759,-11.901,5.615,26.794,1
2.102286,0.513,-0.598,-0.776,-16.479,5.92,28.198,1
2.110446,0.512,-0.588,-0.796,-18.676,6.286,29.174,1
2.11714,0.518,-0.582,-0.803,-16.967,5.615,30.822,1
2.125385,0.522,-0.579,-0.8,-12.268,4.699,32.104,1
2.133757,0.522,-0.578,-0.801,-6.469,4.272,33.691,1
2.140821,0.509,-0.579,-0.797,-3.234,3.356,35.339,1
2.147863,0.5,-0.567,-0.786,-2.197,3.356,37.292,1
2.156329,0.503,-0.55,-0.771,-2.258,3.417,38.879,1
2.163714,0.497,-0.53,-0.763,-2.99,3.662,40.649,1
2.170268,0.481,-0.519,-0.749,-5.615,4.333,42.114,1
2.178674,0.476,-0.501,-0.74,-11.291,5.31,43.701,1
2.185418,0.468,-0.485,-0.728,-18.981,6.53,45.288,1
2.192372,0.461,-0.462,-0.72,-26.184,7.507,46.63,1
2.200296,0.447,-0.447,-0.724,-29.785,8.3,47.668,1
2.208352,0.434,-0.429,-0.729,-31.982,8.666,48.706,1
2.215228,0.423,-0.417,-0.737,-32.348,8.85,49.499,1
2.222322,0.424,-0.415,-0.74,-32.165,8.422,49.987,1
2.230683,0.425,-0.408,-0.743,-29.846,8.056,50.659,1
2.239412,0.421,-0.408,-0.734,-25.268,7.202,51.818,1
2.245658,0.408,-0.411,-0.731,-20.568,6.408,52.551,1
2.254335,0.393,-0.412,-0.717,-15.808,5.676,53.649,1
2.262226,0.378,-0.41,-0.705,-10.986,5.31,54.687,1
2.269006,0.363,-0.417,-0.688,-6.225,4.821,56.091,1
2.277882,0.359,-0.414,-0.668,-2.868,4.638,57.739,1
2.284465,0.347,-0.422,-0.655,-2.075,5.31,58.959,1
2.292999,0.341,-0.422,-0.634,-4.882,5.92,60.18,1
2.301363,0.335,-0.428,-0.631,-13.244,7.568,62.011,1
2.309644,0.328,-0.439,-0.624,-23.681,8.666,63.293,1
2.317447,0.338,-0.445,-0.615,-33.447,10.498,64.697,1
2.324574,0.351,-0.453,-0.616,-41.564,11.779,66.772,1
2.332541,0.366,-0.458,-0.603,-43.151,12.634,68.42,1
2.341104,0.378,-0.464,-0.596,-40.649,13.061,70.556,1
2.347879,0.386,-0.469,-0.593,-35.156,13.183,73.12,1
2.354658,0.392,-0.477,-0.588,-28.503,13.61,75.683,1
2.362625,0.386,-0.479,-0.576,-21.484,13.671,78.552,1
2.371095,0.382,-0.478,-0.57,-15.258,14.404,81.665,1
2.378908,0.383,-0.476,-0.568,-10.986,15.014,84.716,1
2.386122,0.396,-0.47,-0.576,-8.789,15.869,87.463,1
2.394747,0.4,-0.459,-0.585,-10.62,17.15,90.576,1
2.401483,0.383,-0.453,-0.599,-16.601,18.127,92.773,1
2.409286,0.355,-0.448,-0.61,-25.39,19.409,94.665,1
2.417627,0.341,-0.443,-0.619,-34.179,20.996,97.29,1
2.424687,0.333,-0.441,-0.619,-41.381,22.155,99.548,1
2.431738,0.329,-0.443,-0.616,-47.241,23.254,101.989,1
2.439513,0.317,-0.441,-0.615,-48.767,24.353,104.919,1
2.448288,0.322,-0.436,-0.617,-45.715,25.634,108.215,1
2.456223,0.332,-0.426,-0.628,-42.785,25.939,110.717,1
2.464642,0.335,-0.416,-0.652,-41.687,27.404,114.379,1
2.473021,0.358,-0.413,-0.675,-47.607,28.381,117.492,1
2.480201,0.38,-0.397,-0.703,-58.532,30.761,121.093,1
2.48869,0.428,-0.379,-0.731,-66.284,31.738,123.718,1
2.496581,0.485,-0.364,-0.763,-68.054,32.287,126.77,1
2.504905,0.556,-0.353,-0.798,-61.157,31.249,130.249,1
2.511176,0.588,-0.346,-0.818,-50.476,30.151,132.629,1
2.518014,0.586,-0.346,-0.83,-41.809,29.663,134.948,1
2.525082,0.568,-0.341,-0.844,-36.376,28.991,137.817,1
2.53293,0.527,-0.322,-0.846,-34.912,28.991,140.625,1
2.540826,0.515,-0.298,-0.869,-35.888,29.113,143.676,1
2.548807,0.494,-0.266,-0.88,-36.56,28.991,146.545,1
2.557435,0.459,-0.229,-0.903,-36.926,28.869,149.047,1
2.564334,0.389,-0.195,-0.926,-38.024,28.503,151.0,1
2.572533,0.327,-0.175,-0.945,-40.161,27.832,152.404,1
2.579056,0.269,-0.142,-0.959,-43.884,26.611,153.869,1
2.588392,0.216,-0.13,-0.964,-43.823,25.146,154.418,1
2.595248,0.211,-0.137,-0.967,-45.532,23.437,155.212,1
2.603673,0.2,-0.124,-0.953,-42.968,22.033,155.639,1
2.612064,0.178,-0.139,-0.957,-40.71,20.507,156.982,1
2.618956,0.17,-0.151,-0.956,-41.931,19.714,157.836,1
2.626048,0.121,-0.142,-0.953,-43.579,19.47,159.179,1
2.634277,0.083,-0.143,-0.964,-46.325,19.836,160.4,1
2.641267,0.039,-0.132,-0.983,-49.011,20.202,161.865,1
2.649734,-0.006,-0.094,-0.999,-50.048,20.629,163.146,1
2.658694,-0.032,-0.079,-1.015,-46.081,20.507,164.245,1
2.665654,0.0,-0.101,-1.05,-50.415,20.69,164.978,1
2.674029,0.012,-0.097,-1.05,-67.199,21.972,166.076,1
2.682135,0.099,-0.072,-1.038,-80.871,23.315,167.114,1
2.688904,0.181,-0.03,-1.006,-88.928,23.986,168.518,1
2.696951,0.288,0.013,-0.976,-91.674,24.597,170.288,1
2.703819,0.319,0.071,-0.958,-78.674,25.634,172.119,1
2.712121,0.355,0.139,-0.992,-56.701,24.902,174.011,1
2.718872,0.36,0.209,-1.011,-30.456,24.047,175.048,1
2.727197,0.333,0.254,-1.053,-7.263,22.094,175.781,1
2.734417,0.361,0.304,-1.034,11.291,19.531,176.94,1
2.74124,0.382,0.348,-1.021,27.099,17.272,178.771,1
2.748198,0.367,0.406,-0.99,36.804,13.549,180.175,1
2.756949,0.356,0.445,-0.97,45.471,10.559,181.945,1
2.763493,0.345,0.49,-0.96,49.499,5.676,183.532,1
2.771726,0.347,0.541,-0.945,50.72,2.197,184.631,1
2.777937,0.364,0.553,-0.965,44.86,-0.854,184.997,1
2.786208,0.386,0.565,-1.002,24.536,-2.38,184.692,1
2.793343,0.384,0.58,-1.052,-8.666,-0.976,183.837,1
2.7999,0.325,0.609,-1.104,-41.503,-0.305,182.617,1
2.807891,0.238,0.638,-1.109,-77.88,1.464,181.64,1
2.814827,0.151,0.674,-1.12,-104.003,3.295,180.114,1
2.82187,0.088,0.71,-1.11,-115.051,4.699,178.405,1
2.831223,0.056,0.73,-1.101,-113.525,4.943,176.574,1
2.840129,0.044,0.731,-1.073,-103.82,4.455,174.194,1
2.846676,0.061,0.711,-1.025,-86.303,2.258,171.997,1
2.853698,0.093,0.688,-0.978,-70.922,0.61,169.982,1
2.861557,0.125,0.705,-0.914,-50.903,-2.746,168.457,1
2.86846,0.164,0.71,-0.898,-28.564,-3.54,166.687,1
2.876877,0.176,0.699,-0.938,-15.624,-6.103,165.039,1
2.883878,0.159,0.693,-0.948,-6.835,-7.69,162.231,1
2.892374,0.19,0.68,-0.984,-7.446,-7.202,160.156,1
2.899087,0.242,0.677,-1.043,-18.066,-7.019,157.47,1
2.907605,0.262,0.725,-1.104,-32.653,-6.103,155.029,1
2.914542,0.265,0.782,-1.101,-39.489,-7.263,152.343,1
2.921161,0.267,0.823,-1.086,-35.156,-8.605,150.268,1
2.929896,0.253,0.832,-1.073,-26.245,-11.352,147.583,1
2.936569,0.218,0.82,-1.047,-17.7,-13.854,144.897,1
2.94349,0.201,0.802,-1.02,-11.901,-16.235,142.272,1
2.950638,0.224,0.792,-0.966,-7.263,-18.92,139.648,1
2.959083,0.232,0.793,-0.903,-0.122,-22.033,137.146,1
2.966117,0.272,0.765,-0.867,7.019,-23.193,134.643,1
2.973816,0.283,0.738,-0.874,6.652,-25.512,131.896,1
2.982167,0.273,0.715,-0.866,1.525,-25.329,129.394,1
2.990495,0.248,0.695,-0.903,-10.253,-24.963,127.075,1
2.997031,0.299,0.68,-0.943,-27.465,-24.047,124.45,1
3.005037,0.296,0.666,-0.94,-45.715,-24.047,121.826,1
3.011919,0.256,0.71,-0.901,-49.987,-22.888,120.361,1
3.018842,0.358,0.733,-0.887,-40.588,-24.78,118.835,1
3.027186,0.389,0.732,-0.851,-24.841,-26.55,117.858,1
3.035578,0.378,0.693,-0.854,-5.493,-29.174,116.638,1
3.042431,0.369,0.644,-0.832,0.549,-30.273,115.6,1
3.050853,0.382,0.61,-0.803,-1.831,-30.639,114.624,1
3.057493,0.351,0.638,-0.732,-1.708,-32.165,113.708,1
3.06608,0.372,0.603,-0.751,-4.333,-27.893,113.159,1
3.072856,0.413,0.625,-0.791,-13.854,-29.357,112.182,1
3.080008,0.412,0.669,-0.782,-15.808,-27.77,111.511,1
3.088273,0.457,0.718,-0.812,-12.817,-28.747,110.961,1
3.094799,0.469,0.755,-0.807,-4.394,-29.968,109.924,1
3.102608,0.463,0.777,-0.813,3.967,-31.738,109.436,1
3.11069,0.363,0.749,-0.81,5.065,-32.897,108.093,1
3.117814,0.452,0.761,-0.742,-2.38,-33.386,106.811,1
3.124756,0.463,0.787,-0.737,-1.403,-33.63,106.201,1
3.13254,0.479,0.806,-0.716,6.408,-35.156,105.102,1
3.139695,0.467,0.812,-0.715,18.859,-36.56,104.187,1
3.147691,0.474,0.819,-0.74,28.442,-38.635,102.416,1
3.154659,0.432,0.814,-0.745,34.24,-39.55,100.769,1
3.163444,0.487,0.809,-0.744,34.79,-41.137,98.937,1
3.171912,0.463,0.818,-0.741,35.034,-42.053,97.229,1
3.180137,0.49,0.842,-0.723,37.963,-43.884,95.275,1
3.186234,0.463,0.85,-0.724,44.128,-45.593,92.956,1
3.194903,0.432,0.851,-0.718,45.41,-47.058,90.576,1
3.202034,0.422,0.853,-0.703,41.809,-47.485,88.317,1
3.210722,0.414,0.855,-0.682,35.339,-47.546,85.815,1
3.219823,0.406,0.875,-0.675,29.846,-47.546,83.007,1
3.225936,0.401,0.902,-0.671,29.907,-47.729,79.956,1
3.23418,0.386,0.925,-0.673,36.437,-48.889,76.843,1
3.242998,0.361,0.941,-0.679,48.522,-50.476,73.608,1
3.249812,0.35,0.941,-0.676,64.697,-52.734,69.763,1
3.258237,0.338,0.925,-0.669,75.805,-54.26,66.162,1
3.264859,0.326,0.901,-0.654,80.688,-55.847,63.354,1
3.271782,0.3,0.885,-0.63,80.81,-56.152,60.607,1
3.279736,0.331,0.874,-0.604,79.223,-55.725,57.617,1
3.286727,0.352,0.861,-0.57,76.293,-55.48,54.809,1
3.293747,0.36,0.841,-0.542,71.594,-54.443,52.734,1
3.302388,0.359,0.816,-0.522,63.537,-53.588,50.903,1
3.309218,0.362,0.796,-0.504,53.283,-51.33,49.56,1
3.315692,0.362,0.79,-0.5,45.104,-50.231,48.828,1
3.323851,0.364,0.795,-0.493,40.039,-48.278,47.485,1
3.330344,0.362,0.791,-0.496,40.405,-47.241,46.325,1
3.338807,0.328,0.773,-0.497,43.945,-46.813,45.837,1
3.345281,0.312,0.766,-0.484,47.851,-46.447,45.41,1
3.353498,0.334,0.751,-0.469,49.987,-45.227,45.227,1
3.359901,0.345,0.744,-0.456,49.072,-44.433,45.043,1
3.368807,0.348,0.741,-0.438,45.349,-42.846,45.166,1
3.374903,0.349,0.743,-0.432,39.672,-41.259,45.043,1
3.38479,0.35,0.757,-0.422,33.752,-39.916,45.166,1
3.391259,0.352,0.76,-0.417,29.357,-38.513,45.166,1
3.399044,0.334,0.759,-0.412,27.648,-37.597,44.921,1
3.407811,0.325,0.746,-0.413,27.465,-37.17,45.227,1
3.414169,0.306,0.746,-0.404,30.151,-37.475,45.532,1
3.42206,0.298,0.735,-0.38,32.287,-37.048,46.02,1
3.428673,0.311,0.727,-0.363,32.653,-35.949,46.386,1
3.435915,0.314,0.727,-0.348,30.883,-34.851,46.936,1
3.444316,0.31,0.724,-0.337,27.282,-33.386,47.485,1
3.450972,0.32,0.743,-0.332,25.39,-31.738,47.973,1
3.459274,0.313,0.753,-0.329,26.489,-30.639,48.217,1
3.46636,0.307,0.762,-0.324,31.005,-29.724,48.339,1
3.474324,0.309,0.761,-0.331,36.193,-28.991,48.4,1
3.482572,0.295,0.745,-0.335,38.085,-28.808,48.583,1
3.489232,0.318,0.749,-0.337,41.931,-27.954,49.072,1
3.497951,0.293,0.769,-0.335,50.842,-28.686,49.621,1
3.505789,0.299,0.788,-0.325,61.767,-29.846,50.109,1
3.512785,0.302,0.778,-0.318,72.631,-30.273,50.903,1
3.520801,0.291,0.772,-0.32,75.134,-30.212,51.818,1
3.529238,0.309,0.777,-0.314,72.082,-29.357,52.368,1
3.535826,0.296,0.792,-0.312,65.979,-28.625,52.795,1
3.544006,0.283,0.814,-0.313,60.913,-28.137,53.344,1
3.551013,0.289,0.842,-0.308,60.974,-28.076,53.588,1
3.559493,0.277,0.856,-0.306,67.26,-28.625,53.771,1
3.566539,0.256,0.872,-0.307,76.904,-29.296,53.649,1
3.574987,0.228,0.882,-0.307,88.989,-30.7,53.222,1
3.583678,0.228,0.887,-0.299,102.05,-32.836,52.856,1
3.590449,0.199,0.888,-0.27,116.821,-34.423,52.429,1
3.597622,0.218,0.875,-0.239,122.131,-34.851,52.001,1
3.605618,0.251,0.876,-0.19,118.652,-34.057,51.635,1
3.614155,0.242,0.894,-0.164,108.52,-31.982,51.269,1
3.62039,0.294,0.941,-0.152,95.092,-29.418,50.72,1
3.627814,0.252,0.982,-0.133,87.463,-29.052,50.842,1
3.636477,0.234,1.029,-0.14,82.946,-27.099,50.415,1
3.643311,0.234,1.074,-0.135,78.979,-26.916,49.499,1
3.650391,0.243,1.094,-0.129,76.904,-25.39,48.156,1
3.658151,0.236,1.11,-0.126,74.096,-25.085,46.936,1
3.66704,0.219,1.126,-0.125,71.533,-24.291,45.41,1
3.674017,0.206,1.138,-0.118,67.382,-23.742,43.823,1
3.68107,0.193,1.151,-0.099,61.706,-22.277,42.419,1
3.687773,0.193,1.157,-0.088,52.307,-20.629,41.015,1
3.696119,0.202,1.166,-0.079,43.945,-19.226,39.489,1
3.702778,0.198,1.17,-0.063,36.56,-17.333,38.146,1
3.710959,0.185,1.178,-0.058,33.081,-15.991,35.949,1
3.718151,0.174,1.188,-0.048,33.569,-15.319,34.729,1
3.726147,0.177,1.187,-0.053,34.667,-14.221,33.508,1
3.732507,0.154,1.165,-0.06,36.01,-14.038,32.043,1
3.740477,0.156,1.168,-0.049,36.682,-13.244,30.883,1
3.747615,0.163,1.158,-0.052,37.536,-12.878,29.541,1
3.755764,0.166,1.155,-0.056,36.987,-12.573,28.747,1
3.762454,0.174,1.147,-0.056,35.4,-12.207,27.465,1
3.769161,0.17,1.142,-0.062,32.104,-11.413,26.367,1
3.777015,0.162,1.13,-0.056,27.954,-10.803,25.512,1
3.78506,0.166,1.117,-0.046,21.667,-9.704,24.414,1
3.791717,0.18,1.11,-0.041,15.197,-8.3,23.681,1
3.799701,0.174,1.107,-0.036,9.582,-6.835,22.583,1
3.806555,0.169,1.105,-0.039,5.859,-5.676,21.545,1
3.815085,0.161,1.116,-0.039,4.577,-4.577,20.996,1
3.822189,0.161,1.118,-0.048,4.943,-3.54,19.47,1
3.829913,0.148,1.119,-0.062,6.408,-2.746,18.31,1
3.837323,0.148,1.115,-0.078,8.056,-2.502,17.272,1
3.84386,0.145,1.113,-0.088,10.864,-2.319,16.235,1
3.852164,0.145,1.1,-0.097,13.732,-2.075,15.075,1
3.859223,0.148,1.093,-0.114,15.991,-2.075,14.099,1
3.866159,0.151,1.083,-0.125,16.54,-1.831,12.817,1
3.874475,0.161,1.078,-0.131,16.479,-1.77,12.39,1
3.882948,0.167,1.078,-0.142,15.563,-1.525,11.718,1
3.889554,0.18,1.075,-0.148,13.732,-1.159,11.108,1
3.897462,0.183,1.069,-0.159,10.742,-0.793,10.437,1
3.904175,0.187,1.071,-0.167,7.995,-0.366,9.948,1
3.912065,0.196,1.064,-0.174,7.202,-0.244,9.521,1
3.920254,0.188,1.057,-0.176,5.92,0.183,8.911,1
3.926893,0.199,1.055,-0.199,2.38,0.549,8.728,1
3.933873,0.202,1.067,-0.216,-1.831,0.549,8.3,1
3.942179,0.207,1.081,-0.231,-4.455,0.976,7.934,1
3.948794,0.218,1.093,-0.243,-5.615,0.976,7.629,1
3.957449,0.228,1.105,-0.256,-4.821,0.732,7.324,1
3.963925,0.248,1.112,-0.28,-5.371,0.854,7.08,1
3.972457,0.27,1.113,-0.304,-11.291,0.732,6.713,1
3.978712,0.278,1.113,-0.3,-27.343,0.854,6.53,1
3.986804,0.248,1.141,-0.336,-47.729,3.906,6.225,1
3.994935,0.254,1.182,-0.362,-61.462,4.028,5.31,1
4.003227,0.251,1.22,-0.398,-69.274,5.371,4.15,1
4.009904,0.229,1.27,-0.445,-72.509,4.211,3.173,1
4.01676,0.21,1.312,-0.488,-67.626,4.028,2.075,1
4.025332,0.225,1.355,-0.528,-58.105,1.831,0.427,1
4.032339,0.236,1.393,-0.576,-47.424,0.0,-1.403,1
4.039305,0.242,1.421,-0.607,-39.611,-2.014,-3.662,1
4.047868,0.242,1.433,-0.631,-36.01,-3.234,-5.859,1
4.054999,0.244,1.459,-0.658,-37.597,-4.394,-7.995,1
4.062111,0.229,1.5,-0.685,-40.466,-5.676,-10.009,1
4.069307,0.213,1.558,-0.716,-42.846,-6.652,-12.878,1
4.077692,0.211,1.596,-0.756,-43.457,-8.483,-15.991,1
4.084478,0.214,1.635,-0.799,-46.203,-10.437,-19.348,1
4.092491,0.2,1.681,-0.861,-53.466,-12.329,-23.254,1
4.09941,0.175,1.725,-0.909,-64.575,-14.343,-27.526,1
4.108157,0.159,1.773,-0.939,-74.829,-16.723,-31.738,1
4.115178,0.167,1.811,-0.961,-79.284,-19.775,-36.315,1
4.122158,0.177,1.836,-0.968,-78.186,-23.132,-41.198,1
4.130557,0.184,1.843,-0.967,-73.974,-26.489,-45.715,1
4.137199,0.191,1.848,-0.985,-70.678,-29.968,-50.659,1
4.145046,0.176,1.86,-0.986,-67.687,-33.203,-55.114,1
4.152158,0.18,1.866,-0.986,-62.622,-36.621,-60.241,1
4.160158,0.187,1.862,-0.977,-57.25,-39.855,-64.208,1
4.168479,0.188,1.84,-0.951,-50.781,-43.945,-69.641,1
4.176216,0.2,1.796,-0.917,-47.241,-47.729,-74.584,1
4.184911,0.207,1.743,-0.874,-46.081,-49.926,-77.819,1
4.191533,0.207,1.69,-0.815,-42.846,-52.062,-81.787,1
4.198518,0.212,1.634,-0.75,-37.902,-53.71,-84.289,1
4.206897,0.23,1.593,-0.685,-30.944,-55.053,-86.059,1
4.215785,0.236,1.55,-0.638,-25.512,-56.091,-88.256,1
4.222407,0.213,1.5,-0.581,-23.925,-56.396,-90.026,1
4.229468,0.192,1.468,-0.54,-26.123,-56.64,-91.43,1
4.23772,0.174,1.432,-0.511,-32.409,-56.64,-92.895,1
4.244407,0.135,1.402,-0.486,-43.395,-56.64,-94.299,1
4.251446,0.098,1.37,-0.468,-58.105,-56.823,-95.703,1
4.259259,0.074,1.326,-0.441,-73.181,-57.128,-96.862,1
4.267505,0.069,1.274,-0.415,-86.547,-57.8,-97.534,1
4.274622,0.071,1.216,-0.383,-97.9,-58.227,-97.9,1
4.282856,0.079,1.182,-0.37,-105.651,-58.654,-97.717,1
4.290653,0.073,1.146,-0.354,-114.074,-60.119,-97.351,1
4.297661,0.059,1.113,-0.339,-118.408,-61.096,-96.74,1
4.306078,0.055,1.078,-0.328,-122.619,-61.645,-96.191,1
4.312562,0.042,1.052,-0.328,-127.441,-62.255,-95.397,1
4.320471,0.042,1.033,-0.322,-131.225,-62.988,-94.665,1
4.328799,0.046,1.005,-0.32,-135.009,-63.659,-93.933,1
4.336841,0.047,0.964,-0.308,-137.023,-64.331,-92.956,1
4.344854,0.069,0.927,-0.291,-138.488,-65.612,-91.613,1
4.352446,0.079,0.899,-0.267,-137.329,-66.345,-89.782,1
4.360681,0.121,0.85,-0.247,-134.277,-67.199,-87.951,1
4.367654,0.117,0.816,-0.228,-130.493,-67.81,-85.937,1
4.37643,0.144,0.791,-0.219,-125.61,-68.847,-83.801,1
4.383154,0.159,0.749,-0.206,-120.666,-68.725,-81.42,1
4.390112,0.187,0.71,-0.198,-117.309,-69.519,-79.162,1
4.399321,0.201,0.676,-0.192,-114.746,-69.335,-76.965,1
4.407328,0.21,0.658,-0.182,-107.849,-70.8,-74.218,1
4.415552,0.203,0.65,-0.177,-93.139,-72.021,-71.533,1
4.423598,0.181,0.624,-0.148,-67.138,-74.401,-68.908,1
4.431615,0.177,0.6,-0.142,-42.541,-75.805,-67.016,1
4.439257,0.162,0.577,-0.116,-19.775,-77.819,-65.185,1
4.447356,0.167,0.562,-0.1,-0.671,-78.186,-63.659,1
4.454211,0.202,0.537,-0.076,11.901,-78.308,-62.499,1
4.462642,0.241,0.52,-0.046,20.507,-77.636,-61.523,1
4.469095,0.279,0.489,-0.023,24.047,-77.209,-60.974,1
4.477733,0.28,0.443,-0.013,21.911,-76.293,-60.241,1
4.484779,0.264,0.407,-0.006,14.709,-73.73,-59.448,1
4.492603,0.262,0.373,-0.005,1.403,-71.411,-58.959,1
4.499177,0.288,0.354,0.0,-15.38,-67.81,-57.8,1
4.50701,0.32,0.346,-0.023,-37.78,-63.781,-57.25,1
4.51574,0.344,0.334,-0.042,-65.917,-58.471,-56.335,1
4.522789,0.359,0.356,-0.062,-89.294,-53.039,-55.908,1
4.531568,0.388,0.372,-0.085,-108.032,-48.645,-56.64,1
4.538322,0.437,0.366,-0.079,-123.229,-43.823,-57.312,1
4.546738,0.488,0.371,-0.077,-136.413,-39.428,-57.067,1
4.555148,0.544,0.374,-0.063,-147.277,-36.01,-56.213,1
4.563334,0.606,0.402,-0.052,-154.174,-33.142,-54.504,1
4.569901,0.622,0.427,-0.062,-153.076,-31.555,-53.161,1
4.576968,0.668,0.442,-0.059,-147.888,-31.249,-51.269,1
4.585657,0.698,0.472,-0.079,-141.235,-31.005,-49.682,1
4.592845,0.699,0.51,-0.105,-137.512,-31.188,-49.011,1
4.599399,0.658,0.547,-0.127,-138.122,-30.883,-48.217,1
4.607704,0.626,0.573,-0.148,-142.517,-30.029,-48.217,1
4.615701,0.646,0.603,-0.167,-147.766,-29.296,-48.706,1
4.622475,0.691,0.631,-0.185,-151.367,-27.832,-48.95,1
4.629904,0.732,0.675,-0.198,-153.076,-26.855,-49.499,1
4.638779,0.712,0.74,-0.236,-148.742,-25.756,-51.513,1
4.645558,0.67,0.781,-0.276,-142.15,-25.756,-54.26,1
4.653652,0.655,0.795,-0.326,-138.549,-25.634,-56.884,1
4.66001,0.628,0.804,-0.381,-141.296,-26.123,-59.875,1
4.667911,0.725,0.81,-0.422,-145.874,-24.902,-62.866,1
4.676113,0.661,0.834,-0.504,-156.555,-25.573,-66.406,1
4.684077,0.573,0.866,-0.519,-171.325,-26.672,-71.411,1
4.69185,0.581,0.887,-0.534,-175.781,-29.418,-75.622,1
4.698941,0.563,0.903,-0.525,-169.006,-33.203,-80.078,1
4.708588,0.463,0.89,-0.504,-153.442,-37.902,-84.838,1
4.714663,0.492,0.874,-0.458,-125.244,-43.579,-91.003,1
4.723188,0.486,0.773,-0.475,-101.806,-47.058,-96.313,1
4.731765,0.385,0.68,-0.454,-89.843,-51.208,-101.745,1
4.738496,0.329,0.599,-0.438,-82.519,-52.185,-106.323,1
4.747379,0.333,0.508,-0.425,-79.223,-55.297,-111.206,1
4.754114,0.308,0.428,-0.421,-75.927,-57.495,-115.783,1
4.762882,0.159,0.364,-0.395,-72.143,-60.974,-118.53,1
4.76932,0.299,0.309,-0.389,-62.194,-63.598,-120.727,1
4.778126,0.317,0.227,-0.437,-62.194,-67.077,-124.023,1
4.784893,0.167,0.188,-0.411,-68.115,-70.922,-126.831,1
4.792736,0.082,0.149,-0.423,-72.265,-73.974,-129.272,1
4.799349,0.053,0.088,-0.43,-81.42,-78.369,-131.652,1
4.807666,0.003,0.037,-0.444,-91.674,-81.726,-133.178,1
4.814897,-0.059,0.001,-0.457,-99.914,-87.097,-135.07,1
4.823299,-0.098,-0.048,-0.461,-101.928,-92.102,-135.986,1
4.830069,-0.158,-0.097,-0.472,-99.975,-99.121,-136.596,1
4.838332,-0.239,-0.152,-0.477,-94.238,-105.712,-136.413,1
4.846397,-0.307,-0.209,-0.48,-85.937,-113.586,-135.742,1
4.854863,-0.384,-0.269,-0.468,-76.538,-120.788,-134.948,1
4.862677,-0.479,-0.326,-0.476,-68.298,-129.699,-133.605,1
4.87247,-0.56,-0.374,-0.462,-59.875,-138.488,-132.446,1
4.880163,-0.658,-0.403,-0.456,-53.771,-146.484,-131.347,1
4.888879,-0.807,-0.501,-0.469,-50.109,-153.869,-129.394,1
4.896706,-0.858,-0.586,-0.482,-55.297,-162.658,-124.938,1
4.904875,-0.908,-0.68,-0.473,-70.922,-170.227,-119.628,1
4.915072,-0.958,-0.743,-0.475,-88.623,-176.452,-113.464,1
4.922119,-1.04,-0.789,-0.466,-110.351,-185.058,-104.797,1
4.930045,-1.136,-0.839,-0.46,-127.014,-194.824,-95.214,1
4.938594,-1.18,-0.882,-0.451,-140.808,-202.453,-85.021,1
4.946403,-1.242,-0.912,-0.45,-162.536,-213.317,-71.899,1
4.955154,-1.382,-0.937,-0.429,-178.039,-222.473,-59.692,1
4.964401,-1.543,-0.966,-0.398,-198.669,-234.069,-43.151,1
4.972548,-1.682,-0.99,-0.39,-208.557,-248.229,-25.329,1
4.980367,-1.749,-1.037,-0.33,-209.045,-260.437,-8.178,1
4.988241,-1.99,-1.052,-0.294,-215.881,-273.193,10.07,1
4.996545,-2.105,-1.055,-0.202,-208.435,-289.794,32.897,1
5.004783,-2.226,-1.069,-0.097,-187.133,-303.405,55.175,1
5.012998,-2.399,-1.144,-0.015,-155.883,-320.983,82.763,1
5.019212,-2.607,-1.191,0.094,-130.31,-333.801,106.872,1
5.027549,-2.871,-1.261,0.164,-106.933,-347.167,131.958,1
5.036099,-3.178,-1.42,0.281,-98.449,-358.337,159.484,1
5.044187,-3.447,-1.567,0.395,-116.21,-367.309,194.641,1
5.051167,-3.789,-1.661,0.53,-143.798,-372.192,227.844,1
5.059223,-4.233,-1.729,0.712,-176.452,-374.816,265.014,1
5.067394,-4.793,-1.826,0.927,-225.83,-371.948,307.189,1
5.075712,-5.291,-1.861,1.048,-299.438,-361.938,361.083,1
5.083064,-5.661,-1.767,1.423,-333.435,-342.651,415.771,1
5.092907,-6.115,-1.764,1.556,-343.261,-329.711,472.045,1
5.098988,-6.834,-1.744,1.873,-356.14,-296.997,539.855,1
5.107657,-7.335,-1.718,2.071,-364.807,-270.08,599.67,1
5.116118,-8.25,-1.541,2.274,-379.15,-227.905,660.339,1
5.123936,-9.167,-1.358,2.461,-376.831,-189.514,720.397,1
5.13206,-10.189,-1.172,2.524,-364.99,-129.577,789.794,1
5.140063,-11.352,-0.855,2.495,-361.206,-82.153,845.886,1
5.146668,-12.798,-0.393,2.409,-354.797,-16.479,908.996,1
5.154561,-14.13,0.049,2.285,-346.618,27.404,950.073,1
5.161238,-15.602,0.457,2.142,-343.933,85.693,995.849,1
5.168873,-15.999,0.822,1.943,-362.548,144.226,1035.888,1
5.176993,-15.999,1.336,1.773,-390.747,208.679,1067.993,1
5.183701,-15.999,1.909,1.581,-401.672,271.789,1089.965,1
5.192595,-15.999,2.421,1.447,-386.657,330.627,1102.6,1
5.199278,-15.999,2.891,1.334,-335.388,383.422,1108.154,1
5.206241,-15.999,3.252,1.241,-269.226,430.114,1108.642,1
5.213256,-15.999,3.437,1.116,-220.52,464.233,1108.398,1
5.221467,-15.999,3.534,0.916,-207.092,504.089,1108.032,1
5.228268,-15.999,3.502,0.774,-264.343,551.757,1105.285,1
5.235217,-15.999,3.601,0.602,-367.736,621.643,1092.773,1
5.243377,-15.999,3.745,0.297,-432.434,697.631,1076.355,1
5.250111,-15.999,3.784,-0.113,-485.656,760.314,1051.879,1
5.258599,-15.999,3.799,-0.499,-572.082,841.979,1010.986,1
5.265233,-15.999,3.754,-1.158,-699.462,924.316,951.11,1
5.273604,-15.999,3.958,-1.698,-864.257,1023.193,845.214,1
5.28038,-15.999,4.188,-2.292,-962.707,1086.364,742.797,1
5.28879,-15.999,3.854,-2.924,-1057.861,1144.592,595.397,1
5.297694,-15.999,3.131,-3.459,-1243.774,1214.172,395.69,1
5.30542,-15.999,2.633,-4.101,-1421.264,1232.605,197.814,1
5.313984,-15.999,2.088,-3.443,-1476.989,1218.139,-11.779,1
5.32054,-15.999,1.8,-3.142,-1313.293,1136.84,-222.045,1
5.329166,-15.999,1.485,-2.571,-1070.495,1033.874,-358.459,1
5.336977,-15.618,0.888,-2.559,-831.359,940.856,-447.692,1
5.345295,-14.15,0.104,-2.828,-692.321,841.796,-507.141,1
5.351952,-13.264,-0.538,-2.857,-641.235,750.244,-550.293,1
5.361421,-12.391,-0.797,-2.758,-619.018,665.466,-575.195,1
5.36966,-10.89,-1.056,-2.478,-531.738,578.308,-592.285,1
5.376415,-9.746,-1.397,-2.435,-461.425,506.286,-595.764,1
5.384925,-8.872,-1.691,-2.418,-418.701,447.692,-590.515,1
5.393211,-7.954,-2.01,-2.588,-412.414,389.404,-580.261,1
5.39934,-7.142,-2.256,-2.595,-421.508,335.754,-567.077,1
5.407682,-6.404,-2.3,-2.538,-427.551,283.691,-551.635,1
5.414487,-5.666,-2.225,-2.283,-387.023,231.14,-535.156,1
5.422385,-5.019,-2.261,-2.142,-374.45,186.218,-514.648,1
5.431053,-4.423,-2.132,-1.929,-378.54,138.549,-486.816,1
5.438104,-3.887,-1.93,-1.693,-336.669,95.092,-462.829,1
5.446539,-3.411,-1.747,-1.376,-254.455,58.471,-439.025,1
5.454285,-3.056,-1.691,-1.197,-184.143,28.808,-414.123,1
5.46262,-2.677,-1.621,-1.023,-125.976,2.99,-386.108,1
5.471274,-2.383,-1.541,-0.882,-93.872,-13.977,-363.342,1
5.479375,-2.241,-1.499,-0.751,-71.716,-28.93,-338.073,1
5.486508,-2.093,-1.446,-0.687,-61.34,-39.978,-317.443,1
5.494451,-1.949,-1.393,-0.606,-49.743,-49.499,-297.119,1
5.501447,-1.795,-1.395,-0.575,-40.588,-57.189,-277.648,1
5.509751,-1.589,-1.35,-0.553,-36.865,-64.575,-259.094,1
5.517836,-1.519,-1.341,-0.505,-20.324,-73.059,-238.098,1
5.525735,-1.559,-1.238,-0.508,8.789,-79.101,-221.252,1
5.532702,-1.33,-1.333,-0.504,19.836,-85.021,-206.054,1
5.540615,-1.374,-1.318,-0.482,9.46,-85.815,-190.795,1
5.548751,-1.375,-1.246,-0.439,7.446,-89.111,-176.818,1
5.558906,-1.382,-1.205,-0.369,13.366,-88.378,-163.818,1
5.565674,-1.282,-1.171,-0.334,20.69,-89.477,-150.207,1
5.573644,-1.218,-1.153,-0.284,11.901,-86.12,-136.84,1
5.58157,-1.101,-1.132,-0.27,0.915,-85.205,-126.281,1
5.588141,-1.042,-1.068,-0.212,-7.324,-82.275,-115.844,1
5.59645,-0.962,-1.003,-0.186,-3.112,-82.763,-106.018,1
5.604589,-0.881,-0.984,-0.153,10.437,-82.885,-96.557,1
5.613108,-0.794,-0.976,-0.156,19.958,-83.129,-87.158,1
5.619381,-0.744,-0.962,-0.14,22.888,-81.787,-78.613,1
5.627646,-0.696,-0.96,-0.141,18.737,-79.956,-70.007,1
5.635627,-0.631,-0.967,-0.134,4.882,-76.66,-60.058,1
5.644309,-0.538,-0.927,-0.113,-4.211,-73.059,-51.208,1
5.652666,-0.542,-0.895,-0.144,10.375,-70.556,-42.297,1
5.661178,-0.539,-0.921,-0.115,5.187,-66.101,-32.897,1
5.667955,-0.47,-0.931,-0.178,-2.99,-62.805,-25.878,1
5.676771,-0.46,-0.91,-0.155,-2.014,-58.959,-18.981,1
5.684878,-0.412,-0.907,-0.177,2.685,-56.213,-13.0,1
5.691345,-0.386,-0.919,-0.189,5.493,-54.26,-7.08,1
5.700062,-0.345,-0.917,-0.215,4.028,-50.476,-1.464,1
5.70834,-0.303,-0.936,-0.233,-9.765,-46.325,4.699,1
5.716429,-0.258,-0.917,-0.239,-25.329,-42.114,10.375,1
5.723519,-0.205,-0.892,-0.262,-39.916,-38.452,16.052,1
5.730453,-0.159,-0.867,-0.278,-48.95,-35.644,20.141,1
5.738688,-0.116,-0.827,-0.306,-57.983,-32.897,24.719,1
5.747208,-0.095,-0.777,-0.312,-58.288,-30.822,29.479,1
5.75367,-0.048,-0.711,-0.315,-37.963,-30.273,34.057,1
5.761777,-0.02,-0.671,-0.308,-6.469,-30.517,37.963,1
5.770045,-0.026,-0.676,-0.304,23.62,-30.029,41.625,1
5.778343,-0.054,-0.702,-0.306,44.86,-27.526,45.776,1
5.786452,-0.073,-0.72,-0.291,49.194,-23.315,49.011,1
5.794486,-0.01,-0.736,-0.275,41.748,-17.639,52.612,1
5.801475,-0.001,-0.664,-0.265,32.47,-11.535,55.969,1
5.808722,0.103,-0.685,-0.301,23.315,-6.835,59.875,1
5.81696,0.196,-0.687,-0.305,6.469,-0.671,63.598,1
5.825197,0.237,-0.67,-0.333,-12.878,5.004,67.26,1
5.832032,0.27,-0.65,-0.344,-30.151,11.108,71.533,1
5.839861,0.29,-0.628,-0.373,-40.344,16.174,74.89,1
5.848109,0.286,-0.602,-0.39,-47.485,19.836,78.491,1
5.856484,0.27,-0.568,-0.403,-49.865,23.925,82.153,1
5.864205,0.268,-0.542,-0.431,-46.752,27.099,86.486,1
5.871195,0.288,-0.518,-0.458,-39.672,29.296,90.332,1
5.878211,0.315,-0.51,-0.495,-32.592,30.639,93.994,1
5.8861,0.337,-0.522,-0.537,-31.799,32.104,96.984,1
5.894429,0.357,-0.538,-0.577,-39.733,34.423,100.402,1
5.901651,0.386,-0.543,-0.623,-54.382,37.292,104.125,1
5.908597,0.413,-0.538,-0.661,-69.58,40.71,107.788,1
5.917001,0.437,-0.517,-0.699,-82.153,43.518,111.572,1
5.923662,0.437,-0.483,-0.734,-91.796,46.325,114.868,1
5.931606,0.418,-0.441,-0.761,-98.449,48.339,118.347,1
5.938062,0.387,-0.386,-0.789,-102.416,50.292,121.398,1
5.945988,0.366,-0.331,-0.819,-101.135,51.147,123.779,1
5.953783,0.347,-0.27,-0.835,-92.529,51.025,126.403,1
5.962288,0.33,-0.22,-0.865,-77.88,49.56,128.54,1
5.970384,0.356,-0.197,-0.899,-57.312,46.874,130.432,1
5.977209,0.396,-0.201,-0.96,-40.222,43.701,132.446,1
5.985961,0.423,-0.228,-1.0,-34.667,40.405,135.192,1
5.99427,0.486,-0.242,-1.039,-40.1,38.574,138.61,1
6.000796,0.503,-0.227,-1.083,-53.283,37.231,141.723,1
6.007753,0.491,-0.188,-1.125,-67.687,36.01,144.409,1
6.014892,0.474,-0.133,-1.162,-77.026,33.996,146.301,1
6.022779,0.461,-0.088,-1.193,-80.017,31.066,147.888,1
6.030789,0.432,-0.053,-1.203,-81.176,28.686,148.925,1
6.037479,0.399,-0.025,-1.203,-81.97,26.123,150.329,1
6.046268,0.354,0.033,-1.186,-78.125,23.132,150.817,1
6.052953,0.343,0.073,-1.174,-63.415,19.653,151.0,1
6.061757,0.359,0.103,-1.156,-39.123,14.282,150.817,1
6.068426,0.371,0.11,-1.144,-14.892,9.216,150.939,1
6.075785,0.389,0.101,-1.145,-0.488,4.516,151.855,1
6.083991,0.392,0.107,-1.152,-4.699,2.319,152.526,1
6.090573,0.389,0.125,-1.164,-17.456,0.976,153.076,1
6.097485,0.424,0.142,-1.175,-38.33,0.61,153.564,1
6.105755,0.493,0.181,-1.198,-61.462,0.488,153.93,1
6.112486,0.5,0.24,-1.197,-76.843,1.098,154.357,1
6.120764,0.507,0.305,-1.187,-81.726,0.0,154.296,1
6.129427,0.561,0.331,-1.163,-80.932,0.488,153.747,1
6.136309,0.583,0.327,-1.166,-84.838,1.647,153.442,1
6.144894,0.596,0.345,-1.153,-90.881,4.15,153.32,1
6.151714,0.691,0.398,-1.173,-91.979,6.958,153.076,1
6.160258,0.741,0.452,-1.172,-84.777,8.544,152.893,1
6.169658,0.797,0.511,-1.178,-71.533,9.033,152.038,1
6.178342,0.766,0.562,-1.129,-57.373,8.239,150.939,1
6.185114,0.759,0.559,-1.173,-44.372,8.056,149.414,1
6.194199,0.689,0.546,-1.114,-53.405,9.826,146.545,1
6.200769,0.646,0.517,-1.107,-77.392,11.84,144.592,1
6.208996,0.666,0.499,-1.077,-107.36,15.624,142.211,1
6.215754,0.731,0.509,-1.094,-132.69,18.92,139.953,1
6.224269,0.772,0.549,-1.116,-145.202,20.446,137.573,1
6.23284,0.822,0.565,-1.147,-146.118,20.385,134.399,1
6.239503,0.814,0.551,-1.163,-144.775,19.653,131.774,1
6.248406,0.773,0.52,-1.177,-143.676,19.287,129.089,1
6.255449,0.735,0.474,-1.177,-148.498,18.554,126.159,1
6.263066,0.705,0.43,-1.162,-156.188,18.676,123.046,1
6.270322,0.654,0.396,-1.128,-165.71,19.409,119.934,1
6.27843,0.635,0.359,-1.107,-173.889,20.141,117.248,1
6.287469,0.677,0.322,-1.106,-179.382,20.751,114.868,1
6.29636,0.722,0.323,-1.101,-178.955,20.324,112.182,1
6.303501,0.771,0.338,-1.105,-164.611,18.798,109.68,1
6.311583,0.93,0.341,-1.085,-143.981,15.136,106.506,1
6.318984,0.869,0.32,-1.035,-107.666,11.047,104.187,1
6.326167,0.793,0.273,-1.036,-85.571,7.385,102.294,1
6.334353,0.768,0.212,-0.987,-77.392,3.662,101.257,1
6.341235,0.702,0.161,-0.95,-76.843,2.319,100.524,1
6.348934,0.613,0.131,-0.891,-79.406,0.366,100.402,1
6.356873,0.736,0.095,-0.859,-76.049,-0.061,100.158,1
6.365484,0.72,0.103,-0.847,-71.411,-4.15,100.646,1
6.372867,0.847,0.064,-0.795,-57.8,-3.479,100.402,1
6.38137,0.767,0.108,-0.762,-45.043,-9.643,98.693,1
6.390547,0.739,0.1,-0.73,-28.808,-7.629,98.632,1
6.397019,0.748,0.099,-0.751,-23.681,-13.427,96.801,1
6.40563,0.751,0.11,-0.701,-14.648,-12.207,95.397,1
6.413344,0.736,0.112,-0.732,-12.268,-16.906,93.444,1
6.421013,0.708,0.125,-0.678,-6.286,-15.624,92.895,1
6.42959,0.688,0.133,-0.706,-5.737,-19.775,91.857,1
6.43739,0.638,0.143,-0.671,-5.493,-18.798,91.552,1
6.446338,0.577,0.15,-0.736,-12.023,-22.338,91.186,1
6.454038,0.453,0.159,-0.751,-20.202,-23.681,91.247,1
6.462918,0.105,0.169,-0.793,-25.085,-30.029,92.285,1
6.469722,0.0,0.086,-0.796,-22.216,-29.785,96.74,1
6.477237,-0.109,0.061,-0.753,-26.855,-31.799,101.196,1
6.485797,-0.293,0.022,-0.758,-36.987,-28.137,107.666,1
6.494562,-0.009,0.023,-0.796,-61.401,-30.456,114.074,1
6.50172,0.148,0.1,-0.719,-65.979,-28.808,117.858,1
6.509846,0.279,0.203,-0.723,-56.945,-31.86,119.262,1
6.517711,0.409,0.226,-0.699,-36.193,-34.973,119.506,1
6.526874,0.518,0.23,-0.705,-18.005,-38.574,119.262,1
6.533111,0.579,0.23,-0.694,-4.15,-41.32,118.652,1
6.541043,0.62,0.23,-0.689,2.319,-43.09,118.041,1
6.550584,0.661,0.222,-0.697,0.183,-43.395,117.431,1
6.557816,0.666,0.214,-0.696,-17.272,-42.907,117.248,1
6.565625,0.635,0.221,-0.687,-36.01,-40.771,117.431,1
6.574244,0.593,0.241,-0.678,-54.199,-39.001,118.347,1
6.583061,0.532,0.281,-0.665,-65.673,-37.109,118.774,1
6.589125,0.481,0.313,-0.649,-67.749,-36.926,118.652,1
6.599786,0.423,0.325,-0.622,-59.936,-37.414,118.469,1
6.607505,0.408,0.339,-0.605,-40.832,-38.452,118.164,1
6.616539,0.375,0.367,-0.596,-13.0,-40.954,117.919,1
6.624755,0.339,0.389,-0.613,11.169,-43.273,117.126,1
6.631751,0.334,0.393,-0.624,33.325,-47.241,115.356,1
6.640052,0.369,0.384,-0.624,45.593,-49.865,114.318,1
6.647807,0.415,0.394,-0.627,50.354,-52.062,113.464,1
6.657437,0.455,0.419,-0.638,47.546,-53.1,113.037,1
6.664667,0.494,0.441,-0.652,30.761,-53.222,112.731,1
6.672548,0.541,0.48,-0.662,13.061,-51.391,112.121,1
6.681476,0.622,0.523,-0.681,-7.995,-51.574,111.328,1
6.688983,0.71,0.562,-0.7,-24.536,-50.476,111.267,1
6.698193,0.772,0.596,-0.754,-38.33,-52.368,110.595,1
6.70567,0.812,0.588,-0.79,-47.119,-53.283,110.717,1
6.714603,0.802,0.648,-0.833,-46.813,-52.185,111.816,1
6.721286,0.766,0.691,-0.902,-42.602,-55.175,111.694,1
6.72989,0.742,0.696,-0.932,-36.132,-55.114,110.778,1
6.73695,0.73,0.687,-0.986,-36.499,-56.579,108.947,1
6.74585,0.73,0.685,-0.993,-46.203,-56.396,106.872,1
6.754839,0.727,0.696,-0.997,-61.218,-55.786,104.309,1
6.762106,0.693,0.8,-1.02,-66.772,-57.067,99.67,1
6.770954,0.701,0.836,-0.963,-54.016,-60.424,95.764,1
6.781822,0.691,0.896,-0.974,-33.447,-61.645,92.285,1
6.790524,0.765,0.822,-1.007,-19.714,-69.335,89.05,1
6.798185,0.647,0.937,-1.039,-5.981,-69.03,85.144,1
6.806183,0.599,0.884,-0.957,-12.023,-79.345,81.726,1
6.814979,0.597,0.907,-1.009,-22.46,-75.378,80.017,1
6.822857,0.57,0.939,-0.987,-47.363,-78.857,75.134,1
6.83057,0.63,0.911,-0.94,-60.668,-79.162,72.814,1
6.83986,0.675,0.933,-0.899,-67.687,-79.711,70.678,1
6.849207,0.601,1.02,-0.884,-59.387,-82.336,67.077,1
6.856933,0.505,1.061,-0.863,-42.358,-86.059,62.744,1
6.865849,0.519,0.988,-0.836,-25.756,-89.904,57.983,1
6.87328,0.588,0.937,-0.782,-25.024,-89.66,57.373,1
6.881154,0.645,0.949,-0.809,-27.099,-91.064,56.152,1
6.888035,0.596,0.969,-0.784,-24.963,-93.749,53.71,1
6.8989,0.593,0.97,-0.77,-13.183,-95.825,50.354,1
6.905937,0.571,0.933,-0.69,10.742,-100.83,46.874,1
6.91396,0.662,0.929,-0.62,45.715,-101.989,43.945,1
6.922701,0.726,0.949,-0.585,76.904,-106.14,39.428,1
6.930861,0.827,0.923,-0.505,106.628,-107.849,34.729,1
6.938828,0.924,0.885,-0.467,127.258,-110.595,29.785,1
6.946453,0.936,0.846,-0.378,130.615,-110.656,25.817,1
6.954193,0.886,0.832,-0.307,121.826,-107.36,21.606,1
6.962626,0.85,0.833,-0.269,114.013,-105.773,17.7,1
6.97155,0.833,0.82,-0.195,110.656,-103.149,12.878,1
6.978801,0.893,0.781,-0.15,103.698,-99.182,8.666,1
6.988415,0.882,0.744,-0.112,84.655,-95.214,5.371,1
6.995636,0.842,0.7,-0.047,54.809,-90.393,2.136,1
7.0044,0.794,0.687,-0.017,15.136,-83.374,-0.61,1
7.01327,0.729,0.67,0.016,-26.611,-77.758,-2.807,1
7.021373,0.643,0.684,0.054,-66.833,-70.617,-5.004,1
7.029914,0.652,0.681,0.071,-95.825,-65.002,-5.798,1
7.036764,0.718,0.715,0.076,-120.605,-60.241,-5.737,1
7.047247,0.796,0.707,0.079,-130.249,-58.41,-6.103,1
7.056091,0.854,0.766,0.143,-138.977,-52.062,-5.31,1
7.063574,0.895,0.739,0.1,-149.414,-51.33,-4.272,1
7.07274,0.953,0.666,0.099,-162.17,-48.95,-1.708,1
7.08097,1.014,0.637,0.073,-182.006,-45.104,1.098,1
7.088585,0.951,0.636,-0.021,-213.989,-40.954,3.662,1
7.097735,1.023,0.518,-0.145,-240.661,-40.161,6.408,1
7.10459,0.924,0.525,-0.206,-240.173,-37.048,8.239,1
7.112091,0.788,0.58,-0.258,-211.059,-40.1,7.507,1
7.120061,0.683,0.628,-0.259,-147.949,-41.748,5.187,1
7.12905,0.653,0.636,-0.263,-56.64,-50.048,2.99,1
7.136956,0.685,0.605,-0.22,17.089,-54.687,1.831,1
7.145246,0.668,0.599,-0.231,74.646,-59.692,0.366,1
7.152223,0.591,0.585,-0.221,93.078,-60.974,-1.525,1
7.160165,0.589,0.537,-0.205,97.473,-62.194,-1.342,1
7.167176,0.33,0.602,-0.221,91.613,-59.265,-2.014,1
7.175476,0.194,0.58,-0.289,67.077,-59.57,-3.417,1
7.182552,0.41,0.5,-0.28,32.47,-55.48,-2.624,1
7.189528,0.623,0.529,-0.274,3.356,-52.307,-1.586,1
7.197835,0.678,0.621,-0.26,-17.822,-49.621,-1.586,1
7.206198,0.726,0.7,-0.264,-18.005,-50.231,-3.356,1
7.21367,0.804,0.71,-0.26,1.953,-53.222,-5.615,1
7.222199,0.846,0.685,-0.242,23.681,-55.664,-6.835,1
7.230404,0.875,0.657,-0.206,40.954,-56.213,-7.873,1
7.237396,0.889,0.649,-0.177,50.231,-55.541,-8.789,1
7.244359,0.877,0.663,-0.138,55.664,-54.321,-10.009,1
7.252688,0.85,0.686,-0.083,64.331,-52.734,-11.535,1
7.261075,0.846,0.715,-0.052,77.514,-51.269,-13.61,1
7.268049,0.816,0.726,-0.005,92.651,-49.377,-15.869,1
7.27651,0.849,0.684,-0.021,102.172,-47.302,-18.249,1
7.284648,0.858,0.648,0.0,102.783,-44.372,-19.531,1
7.292686,0.927,0.623,-0.045,110.534,-42.968,-19.958,1
7.301531,0.968,0.602,-0.033,125.976,-44.189,-20.324,1
7.308363,0.897,0.582,-0.067,158.813,-45.166,-20.996,1
7.316654,0.905,0.547,-0.018,190.124,-46.386,-20.874,1
7.323653,0.886,0.492,-0.059,212.341,-45.959,-21.728,1
7.33073,0.816,0.419,-0.026,210.754,-45.837,-22.888,1
7.337836,0.787,0.329,-0.013,183.593,-39.611,-23.376,1
7.3463,0.81,0.22,-0.034,123.596,-34.79,-24.78,1
7.353363,0.763,0.178,0.029,38.33,-23.315,-24.78,1
7.36168,0.923,0.137,-0.019,-67.749,-13.366,-23.864,1
7.370623,0.932,0.169,0.006,-180.786,-1.647,-22.644,1
7.377104,0.976,0.189,-0.005,-248.413,4.516,-20.751,1
7.384002,0.974,0.239,0.029,-284.545,9.033,-18.066,1
7.3911,0.996,0.284,0.024,-295.715,10.864,-15.991,1
7.398486,0.99,0.316,0.046,-287.292,10.62,-13.61,1
7.406424,0.969,0.325,0.072,-262.512,10.375,-11.047,1
7.413327,0.836,0.312,0.067,-242.736,9.155,-7.751,1
7.420306,0.708,0.312,0.087,-235.9,9.948,-5.065,1
7.428604,0.676,0.344,0.096,-228.942,10.131,-1.708,1
7.435216,0.68,0.422,0.131,-207.702,10.009,-0.183,1
7.443589,0.586,0.444,0.124,-172.424,6.042,2.441,1
7.450262,0.564,0.454,0.138,-137.939,3.173,5.004,1
7.457127,0.492,0.456,0.117,-115.295,-0.549,7.202,1
7.464888,0.461,0.453,0.128,-95.092,-5.004,10.009,1
7.47324,0.588,0.452,0.116,-86.669,-6.286,12.451,1
7.480305,0.703,0.437,0.066,-93.627,-6.591,14.282,1
7.487001,0.782,0.447,0.013,-109.924,-5.554,15.502,1
7.494929,0.829,0.423,-0.046,-144.47,-2.99,17.517,1
7.503433,0.869,0.48,-0.099,-173.583,1.831,18.249,1
7.509832,0.975,0.553,-0.147,-193.908,6.225,17.822,1
7.518031,1.08,0.625,-0.184,-203.674,10.437,15.747,1
7.524913,1.11,0.718,-0.223,-202.148,14.343,12.878,1
7.533426,1.106,0.834,-0.266,-180.114,15.441,9.887,1
7.541283,1.031,0.948,-0.298,-139.221,13.916,6.774,1
7.548939,0.923,1.054,-0.343,-75.439,9.765,2.197,1
7.5575,0.776,1.093,-0.372,-18.615,4.821,-2.136,1
7.565562,0.757,1.03,-0.419,13.427,0.976,-5.554,1
7.572569,0.734,0.973,-0.44,19.165,-0.305,-7.385,1
7.579779,0.856,0.925,-0.531,-4.76,-1.586,-11.779,1
7.586418,0.857,0.909,-0.577,-51.086,1.586,-14.282,1
7.594838,0.905,0.961,-0.664,-86.853,-0.549,-16.723,1
7.601473,0.963,0.99,-0.672,-94.36,-4.943,-19.775,1
7.609811,0.86,1.023,-0.7,-85.449,-9.338,-21.484,1
7.617822,0.83,1.063,-0.755,-54.321,-17.028,-24.658,1
7.624624,0.795,1.055,-0.786,-20.324,-23.681,-28.686,1
7.632971,0.756,1.019,-0.791,5.187,-28.015,-33.386,1
7.640014,0.743,0.965,-0.776,10.375,-30.456,-38.085,1
7.648976,0.76,0.914,-0.758,-6.774,-32.104,-41.015,1
7.656032,0.76,0.902,-0.688,-32.775,-33.63,-44.494,1
7.662735,0.778,0.886,-0.608,-58.105,-32.836,-47.851,1
7.671625,0.783,0.875,-0.558,-79.345,-33.691,-50.537,1
7.678652,0.839,0.876,-0.473,-91.247,-35.949,-53.1,1
7.685806,0.844,0.874,-0.383,-87.524,-37.414,-55.297,1
7.69367,0.847,0.861,-0.298,-72.692,-39.489,-57.189,1
7.702011,0.914,0.842,-0.225,-54.26,-40.649,-59.509,1
7.711068,0.95,0.77,-0.189,-42.053,-40.283,-62.194,1
7.719652,0.939,0.708,-0.153,-45.166,-39.123,-64.88,1
7.726387,0.986,0.631,-0.111,-65.307,-35.156,-67.26,1
7.733491,1.039,0.567,-0.103,-95.581,-31.372,-67.443,1
7.740685,1.032,0.525,-0.067,-120.117,-28.442,-67.871,1
7.748784,1.133,0.539,-0.049,-130.065,-26.123,-68.054,1
7.756568,1.142,0.529,-0.024,-124.389,-27.465,-67.26,1
7.764043,1.002,0.553,0.057,-102.661,-23.681,-66.467,1
7.772211,1.121,0.48,-0.035,-90.942,-27.221,-69.152,1
7.780736,0.992,0.424,0.076,-89.477,-23.62,-70.129,1
7.787207,1.042,0.394,0.084,-95.825,-21.118,-70.434,1
7.795446,1.075,0.387,0.153,-90.759,-18.981,-72.753,1
7.801867,1.056,0.354,0.182,-81.359,-16.418,-74.401,1
7.809597,1.075,0.316,0.229,-75.988,-13.916,-75.5,1
7.817985,1.059,0.268,0.25,-75.622,-10.375,-76.721,1
7.826029,1.035,0.227,0.276,-81.115,-7.446,-77.453,1
7.832648,1.045,0.185,0.284,-86.242,-2.563,-77.575,1
7.83977,1.1,0.155,0.257,-89.477,-0.244,-77.819,1
7.84802,1.095,0.139,0.226,-91.796,2.502,-77.453,1
7.85494,1.089,0.121,0.187,-97.167,3.723,-77.514,1
7.863173,1.008,0.087,0.161,-106.689,6.103,-77.453,1
7.871333,0.907,0.034,0.128,-120.91,7.263,-77.331,1
7.879317,0.928,0.071,0.134,-117.553,9.948,-76.66,1
7.886401,0.843,0.048,0.077,-113.342,9.399,-77.148,1
7.894883,0.835,0.043,0.067,-112.67,12.145,-77.514,1
7.901854,0.86,0.039,-0.013,-110.839,11.901,-78.247,1
7.908899,0.892,0.02,0.01,-103.82,11.352,-79.162,1
7.917786,0.915,-0.025,0.0,-97.778,14.343,-79.162,1
7.924041,0.974,-0.049,-0.06,-102.111,15.319,-79.101,1
7.932819,0.985,-0.062,-0.083,-112.915,17.944,-78.918,1
7.939883,0.921,-0.024,-0.12,-128.723,19.958,-78.125,1
7.947788,0.854,0.031,-0.116,-132.568,19.409,-77.453,1
7.954813,0.827,0.063,-0.125,-129.882,19.714,-76.293,1
7.963084,0.838,0.091,-0.168,-130.554,20.019,-75.378,1
7.970209,0.812,0.128,-0.23,-142.944,20.812,-74.707,1
7.978071,0.825,0.187,-0.251,-165.71,20.629,-74.157,1
7.986832,0.837,0.278,-0.274,-182.922,22.888,-73.669,1
7.995375,0.83,0.443,-0.325,-190.551,20.385,-75.073,1
8.002339,0.736,0.521,-0.38,-189.27,21.057,-78.735,1
8.008894,0.805,0.562,-0.591,-203.796,20.202,-83.923,1
8.017149,0.697,0.639,-0.672,-224.975,14.892,-90.148,1
8.025534,0.685,0.663,-0.757,-229.431,12.939,-95.703,1
8.033636,0.732,0.668,-0.923,-227.05,2.502,-102.844,1
8.040291,0.716,0.64,-0.977,-219.177,-4.272,-109.008,1
8.050059,0.687,0.551,-1.125,-221.069,-12.145,-114.99,1
8.056852,0.524,0.532,-1.187,-220.275,-24.414,-120.483,1
8.064642,0.405,0.502,-1.163,-195.19,-36.743,-125.061,1
8.074194,0.271,0.346,-1.175,-174.987,-49.133,-128.662,1
8.081291,0.172,0.22,-1.145,-167.968,-62.438,-130.981,1
8.089224,0.064,0.108,-1.083,-159.423,-76.11,-131.958,1
8.097989,-0.028,0.005,-0.993,-144.592,-87.951,-131.713,1
8.104729,-0.115,-0.098,-0.924,-130.554,-101.379,-130.798,1
8.113097,-0.219,-0.201,-0.849,-126.403,-111.755,-129.028,1
8.120954,-0.346,-0.29,-0.783,-128.723,-120.971,-126.77,1
8.127708,-0.474,-0.378,-0.729,-137.573,-130.004,-123.291,1
8.136048,-0.612,-0.467,-0.677,-148.742,-139.587,-119.262,1
8.142974,-0.737,-0.536,-0.59,-147.094,-150.817,-113.891,1
8.151272,-0.832,-0.612,-0.489,-124.023,-162.902,-107.177,1
8.160028,-0.928,-0.744,-0.398,-93.933,-174.804,-100.28,1
8.168172,-0.965,-0.854,-0.324,-68.115,-187.683,-92.163,1
8.174841,-1.061,-0.942,-0.218,-54.26,-197.021,-84.96,1
8.182858,-1.145,-1.048,-0.118,-48.339,-203.43,-77.148,1
8.192234,-1.278,-1.199,-0.027,-57.739,-209.045,-66.772,1
8.199134,-1.421,-1.331,0.051,-80.383,-212.158,-56.701,1
8.207279,-1.518,-1.491,0.109,-110.168,-213.684,-43.884,1
8.216324,-1.5,-1.69,0.153,-149.23,-216.247,-26.855,1
8.2228,-1.575,-1.862,0.236,-171.325,-218.505,-8.911,1
8.23124,-1.652,-2.014,0.316,-183.044,-219.909,11.657,1
8.239,-1.74,-2.18,0.379,-191.833,-221.252,38.269,1
8.24776,-1.861,-2.297,0.494,-196.594,-223.937,61.95,1
8.254643,-2.04,-2.401,0.614,-218.688,-221.374,87.89,1
8.262803,-2.238,-2.521,0.706,-254.089,-216.918,110.473,1
8.269861,-2.419,-2.603,0.817,-289.123,-209.35,144.958,1
8.278098,-2.397,-2.695,0.901,-281.372,-206.97,177.001,1
8.285248,-2.61,-2.844,1.044,-284.484,-199.279,210.754,1
8.295162,-2.712,-3.028,1.087,-307.312,-188.842,249.084,1
8.302642,-3.126,-3.082,1.189,-337.28,-171.508,295.166,1
8.309392,-3.437,-3.056,1.309,-333.801,-158.935,337.768,1
8.317391,-4.045,-3.094,1.374,-311.401,-141.052,388.61,1
8.326071,-4.591,-3.077,1.464,-282.775,-127.624,433.105,1
8.334084,-5.305,-3.041,1.556,-237.853,-112.792,477.905,1
8.342763,-6.205,-2.992,1.615,-206.481,-97.045,529.785,1
8.349734,-7.261,-2.883,1.697,-200.805,-77.453,574.523,1
8.358323,-8.269,-2.739,1.751,-209.655,-55.236,619.567,1
8.365138,-9.393,-2.521,1.801,-224.548,-27.465,664.855,1
8.372147,-10.392,-2.296,1.818,-238.281,3.723,709.045,1
8.380248,-11.69,-1.973,1.829,-247.497,39.184,751.647,1
8.386734,-13.029,-1.647,1.838,-259.277,79.772,792.114,1
8.394867,-14.415,-1.281,1.811,-271.179,125.427,828.857,1
8.402968,-15.893,-0.815,1.791,-276.611,165.893,856.811,1
8.409438,-15.996,-0.354,1.801,-253.967,225.158,890.747,1
8.418124,-15.999,0.052,1.782,-233.886,268.127,912.109,1
8.424376,-15.999,0.469,1.777,-226.745,324.584,934.02,1
8.431622,-15.999,0.866,1.731,-241.333,389.282,951.232,1
8.43946,-15.999,1.382,1.616,-274.597,462.585,961.791,1
8.447601,-15.999,1.918,1.423,-324.34,545.776,963.989,1
8.454039,-15.999,2.416,1.218,-393.188,639.221,955.688,1
8.462698,-15.999,2.872,0.979,-473.693,746.337,935.241,1
8.469558,-15.999,3.311,0.563,-539.672,860.107,901.428,1
8.476545,-15.999,3.717,0.042,-573.913,966.857,854.431,1
8.485033,-15.999,4.093,-0.067,-569.152,1060.73,797.668,1
8.493458,-15.999,4.044,-0.294,-563.659,1161.01,739.623,1
8.500211,-15.999,4.058,-1.027,-599.548,1243.042,676.025,1
8.50707,-15.999,4.555,-1.086,-623.84,1322.143,600.341,1
8.514512,-15.999,4.76,-1.633,-665.954,1392.211,515.747,1
8.522509,-15.999,4.898,-2.295,-763.122,1452.026,406.555,1
8.531411,-15.999,5.123,-3.035,-872.131,1498.046,266.235,1
8.537972,-15.999,4.595,-4.023,-961.73,1505.737,102.722,1
8.545978,-15.999,3.812,-4.875,-1159.973,1491.455,-86.547,1
8.553116,-15.999,3.448,-5.187,-1361.267,1443.481,-308.044,1
8.561456,-15.999,2.572,-5.169,-1414.306,1335.876,-531.982,1
8.569226,-15.999,1.685,-4.535,-1265.38,1182.19,-709.045,1
8.575714,-15.999,0.657,-4.005,-967.834,1012.634,-821.35,1
8.58468,-15.999,-0.574,-3.779,-737.731,870.422,-869.567,1
8.591387,-15.999,-1.193,-3.625,-553.527,745.849,-884.887,1
8.599386,-15.999,-1.702,-3.57,-424.987,642.395,-879.699,1
8.607575,-15.999,-2.37,-3.359,-389.343,546.508,-860.595,1
8.614226,-15.999,-2.48,-3.142,-364.501,473.571,-839.66,1
8.622637,-15.582,-2.73,-3.0,-363.769,416.87,-820.495,1
8.629753,-14.177,-2.869,-2.857,-389.77,348.571,-789.794,1
8.638335,-12.889,-2.776,-2.715,-441.223,288.452,-766.479,1
8.646264,-11.599,-2.709,-2.397,-493.957,227.294,-740.478,1
8.654393,-10.194,-2.668,-2.12,-521.789,166.32,-710.632,1
8.6622,-8.959,-2.716,-1.704,-515.747,106.14,-675.903,1
8.670686,-7.77,-2.752,-1.346,-473.388,44.738,-629.638,1
8.67768,-7.021,-2.663,-1.107,-406.555,-13.366,-580.749,1
8.686207,-6.484,-2.49,-0.799,-336.669,-50.476,-538.696,1
8.694643,-6.087,-2.28,-0.669,-270.996,-78.857,-501.403,1
8.702527,-5.639,-2.173,-0.545,-226.318,-102.111,-463.989,1
8.711157,-5.401,-1.967,-0.443,-160.705,-120.056,-424.987,1
8.719579,-4.992,-1.838,-0.396,-100.402,-135.07,-391.113,1
8.727537,-4.651,-1.766,-0.309,-66.406,-141.174,-364.685,1
8.735578,-4.171,-1.715,-0.254,-47.241,-144.653,-339.599,1
8.742092,-3.758,-1.653,-0.162,-34.851,-145.935,-312.683,1
8.749659,-3.434,-1.573,-0.098,-31.677,-143.92,-290.771,1
8.75817,-3.183,-1.484,-0.044,-37.292,-140.93,-270.874,1
8.766517,-2.984,-1.405,-0.002,-46.936,-137.39,-252.441,1
8.775211,-2.788,-1.296,0.052,-52.062,-133.117,-232.116,1
8.78245,-2.63,-1.218,0.073,-47.119,-130.371,-216.491,1
8.791116,-2.427,-1.171,0.082,-38.818,-126.647,-199.645,1
8.799023,-2.203,-1.142,0.07,-37.414,-122.863,-186.584,1
8.807543,-2.033,-1.143,0.068,-39.184,-119.75,-172.424,1
8.814939,-1.867,-1.16,0.094,-36.987,-115.966,-160.705,1
8.823216,-1.635,-1.21,0.108,-30.334,-113.159,-149.414,1
8.831149,-1.444,-1.254,0.146,-21.423,-107.971,-136.291,1
8.839047,-1.291,-1.282,0.137,-16.906,-103.881,-125.793,1
8.847368,-1.117,-1.299,0.165,-12.39,-99.792,-115.6,1
8.855563,-0.995,-1.306,0.17,-3.173,-93.872,-103.454,1
8.862775,-0.889,-1.321,0.154,0.366,-89.355,-94.177,1
8.869484,-0.805,-1.336,0.152,-3.845,-83.435,-84.899,1
8.877026,-0.7,-1.314,0.133,-10.437,-77.026,-76.049,1
8.886141,-0.651,-1.299,0.122,-15.563,-71.716,-67.749,1
8.892668,-0.556,-1.331,0.112,-20.141,-65.795,-58.715,1
8.900619,-0.435,-1.354,0.094,-21.118,-60.852,-50.17,1
8.908951,-0.372,-1.386,0.083,-21.057,-55.908,-41.687,1
8.915814,-0.338,-1.4,0.061,-19.592,-50.659,-33.325,1
8.924089,-0.272,-1.412,0.031,-19.287,-47.241,-25.817,1
8.932274,-0.205,-1.41,0.01,-20.019,-41.137,-16.784,1
8.940745,-0.16,-1.392,-0.023,-20.874,-37.414,-9.643,1
8.9481,-0.136,-1.379,-0.047,-20.202,-33.02,-3.112,1
8.956577,-0.084,-1.401,-0.073,-21.728,-28.381,4.76,1
8.963788,-0.034,-1.402,-0.101,-25.817,-23.62,11.291,1
8.971836,0.013,-1.386,-0.129,-30.883,-18.981,17.578,1
8.980162,0.031,-1.353,-0.165,-36.315,-14.282,24.047,1
8.986691,0.026,-1.315,-0.191,-37.475,-10.498,30.456,1
8.995003,0.053,-1.269,-0.218,-26.672,-7.934,36.804,1
9.00316,0.052,-1.236,-0.245,-10.742,-6.774,42.541,1
9.011242,0.049,-1.216,-0.256,-0.366,-4.211,48.889,1
9.019367,0.068,-1.191,-0.28,-0.732,-1.159,54.138,1
9.027677,0.073,-1.158,-0.293,-3.784,1.953,59.814,1
9.034602,0.097,-1.137,-0.321,-6.652,4.882,64.453,1
9.0429,0.105,-1.116,-0.344,-9.765,7.568,69.03,1
9.049582,0.111,-1.095,-0.376,-14.709,10.131,73.364,1
9.057741,0.106,-1.067,-0.405,-19.165,11.901,77.514,1
9.065933,0.11,-1.04,-0.428,-21.667,13.854,81.359,1
9.072567,0.108,-1.01,-0.451,-22.338,15.075,85.083,1
9.081026,0.098,-0.994,-0.473,-21.24,16.418,88.745,1
9.08905,0.127,-0.962,-0.502,-17.822,17.15,92.407,1
9.095736,0.134,-0.932,-0.521,-11.169,16.845,96.374,1
9.104046,0.145,-0.899,-0.512,-2.868,16.845,100.463,1
9.110584,0.169,-0.865,-0.521,0.0,17.578,103.332,1
9.1185,0.188,-0.818,-0.535,-0.61,18.127,106.201,1
9.127692,0.193,-0.744,-0.552,-3.112,19.165,109.374,1
9.135621,0.2,-0.695,-0.579,-4.394,19.714,111.389,1
9.143994,0.216,-0.672,-0.613,-8.117,19.836,113.464,1
9.150682,0.235,-0.631,-0.658,-16.296,20.324,115.539,1
9.159054,0.235,-0.593,-0.676,-22.216,20.08,117.431,1
9.165692,0.227,-0.57,-0.703,-25.024,20.629,119.323,1
9.173615,0.235,-0.574,-0.753,-27.404,19.836,121.398,1
9.181971,0.245,-0.583,-0.789,-28.808,19.104,124.084,1
9.18867,0.24,-0.586,-0.817,-28.442,17.944,126.708,1
9.197059,0.252,-0.574,-0.828,-24.658,16.601,129.333,1
9.20513,0.263,-0.555,-0.842,-18.92,15.319,131.835,1
9.21205,0.262,-0.531,-0.844,-13.244,13.488,133.789,1
9.219904,0.252,-0.511,-0.832,-9.521,11.657,136.23,1
9.228184,0.226,-0.475,-0.815,-10.864,10.925,137.878,1
9.234758,0.199,-0.432,-0.8,-15.686,10.742,139.16,1
9.242788,0.182,-0.391,-0.767,-20.141,10.803,139.953,1
9.249775,0.189,-0.345,-0.756,-23.986,10.803,140.686,1
9.258216,0.205,-0.313,-0.742,-25.573,10.62,141.296,1
9.264984,0.243,-0.304,-0.731,-26.123,10.314,141.357,1
9.273729,0.254,-0.328,-0.737,-28.198,10.314,142.15,1
9.28078,0.284,-0.358,-0.74,-33.996,10.375,143.859,1
9.289056,0.313,-0.347,-0.726,-33.386,11.718,145.446,1
9.29606,0.317,-0.355,-0.734,-32.043,11.596,148.01,1
9.304471,0.218,-0.329,-0.716,-28.625,11.474,150.817,1
9.311112,0.336,-0.324,-0.706,-20.446,12.634,153.198,1
9.318744,0.375,-0.331,-0.729,-17.761,12.573,155.517,1
9.326508,0.356,-0.305,-0.71,-17.333,13.977,157.226,1
9.334979,0.343,-0.257,-0.723,-16.845,14.404,158.996,1
9.343459,0.354,-0.204,-0.72,-12.939,14.343,160.217,1
9.349913,0.33,-0.166,-0.729,-5.187,14.221,161.254,1
9.358704,0.317,-0.135,-0.741,-1.525,14.16,161.376,1
9.3653,0.3,-0.119,-0.754,-3.356,14.526,161.987,1
9.373379,0.272,-0.108,-0.775,-11.169,15.991,162.597,1
9.381791,0.244,-0.093,-0.789,-22.888,17.333,163.146,1
9.388503,0.265,-0.085,-0.804,-36.987,19.714,163.757,1
9.397048,0.284,-0.054,-0.824,-49.194,22.033,164.001,1
9.403929,0.338,-0.015,-0.836,-54.565,23.01,164.062,1
9.411213,0.371,0.022,-0.857,-54.199,23.498,163.513,1
9.418337,0.349,0.07,-0.866,-48.034,22.399,163.208,1
9.426404,0.416,0.149,-0.871,-31.86,20.812,163.269,1
9.433368,0.516,0.171,-0.897,-14.892,17.517,162.658,1
9.441009,0.553,0.182,-0.906,-3.845,15.319,161.926,1
9.44794,0.583,0.189,-0.918,0.549,15.197,161.132,1
9.454921,0.598,0.213,-0.939,-4.638,14.77,160.278,1
9.462984,0.627,0.243,-0.93,-14.587,15.808,158.996,1
9.469837,0.624,0.272,-0.934,-29.296,16.967,157.775,1
9.477604,0.582,0.315,-0.921,-44.555,18.676,156.616,1
9.486002,0.539,0.366,-0.918,-57.067,21.301,154.724,1
9.492764,0.514,0.426,-0.917,-57.312,22.338,152.832,1
9.501213,0.479,0.484,-0.934,-47.79,21.667,151.062,1
9.508725,0.465,0.519,-0.941,-33.386,20.08,148.925,1
9.516616,0.387,0.554,-0.966,-19.104,17.639,146.606,1
9.523378,0.447,0.566,-0.953,-6.103,14.587,144.409,1
9.5303,0.393,0.567,-0.957,2.807,13.427,142.578,1
9.538651,0.395,0.553,-0.969,4.211,11.962,140.014,1
9.545481,0.4,0.526,-0.945,-6.53,12.39,137.939,1
9.553444,0.403,0.515,-0.95,-26.855,14.343,135.864,1
9.562511,0.395,0.533,-0.922,-47.851,16.296,134.033,1
9.568905,0.386,0.562,-0.895,-62.499,18.371,132.934,1
9.576037,0.349,0.597,-0.872,-70.495,19.897,132.141,1
9.585839,0.323,0.604,-0.841,-75.805,20.568,131.042,1
9.592434,0.301,0.587,-0.816,-83.923,22.216,130.737,1
9.600881,0.227,0.583,-0.796,-94.97,23.559,130.493,1
9.60916,0.177,0.58,-0.757,-103.088,24.658,130.31,1
9.615576,0.175,0.574,-0.723,-105.224,24.963,129.943,1
9.624126,0.183,0.549,-0.68,-102.05,24.902,130.31,1
9.630933,0.194,0.52,-0.646,-96.618,24.841,130.981,1
9.639349,0.209,0.496,-0.614,-89.477,25.451,131.896,1
9.647084,0.221,0.484,-0.595,-82.275,26.672,133.361,1
9.653596,0.227,0.472,-0.586,-76.538,27.343,134.277,1
9.660805,0.211,0.475,-0.563,-71.166,28.503,135.742,1
9.66901,0.193,0.495,-0.55,-63.293,30.212,137.146,1
9.676711,0.154,0.513,-0.539,-51.757,30.944,137.695,1
9.685152,0.117,0.521,-0.517,-40.405,31.677,138.488,1
9.691684,0.077,0.531,-0.498,-32.043,33.02,139.587,1
9.700061,0.036,0.531,-0.491,-27.832,34.057,140.197,1
9.706971,0.005,0.531,-0.472,-26.367,36.01,140.93,1
9.714571,-0.022,0.541,-0.47,-28.747,37.597,141.418,1
9.721596,-0.053,0.554,-0.468,-31.86,40.283,141.784,1
9.729455,-0.064,0.57,-0.477,-34.301,42.236,141.723,1
9.737894,-0.064,0.592,-0.495,-35.156,44.555,141.235,1
9.745851,-0.072,0.622,-0.514,-34.912,46.325,140.747,1
9.752532,-0.098,0.643,-0.536,-33.02,47.729,139.892,1
9.760775,-0.116,0.678,-0.55,-29.418,48.828,138.977,1
9.767904,-0.1,0.691,-0.566,-22.827,49.194,137.512,1
9.776253,-0.107,0.689,-0.571,-15.624,49.987,136.413,1
9.784317,-0.091,0.685,-0.582,-7.141,50.231,135.253,1
9.792584,-0.077,0.687,-0.584,0.793,50.659,134.765,1
9.800534,-0.069,0.672,-0.588,6.347,51.635,134.155,1
9.80706,-0.059,0.662,-0.605,7.507,52.368,133.117,1
9.814985,-0.058,0.659,-0.614,5.249,54.626,132.812,1
9.822766,-0.057,0.666,-0.645,-0.732,56.396,132.324,1
9.831135,-0.057,0.676,-0.66,-9.46,58.898,131.774,1
9.839607,-0.055,0.685,-0.672,-15.563,60.974,130.981,1
9.846209,-0.06,0.699,-0.688,-19.653,62.561,129.882,1
9.854143,-0.07,0.703,-0.703,-20.874,64.208,128.906,1
9.862524,-0.071,0.71,-0.721,-20.385,65.368,128.173,1
9.869199,-0.077,0.719,-0.744,-17.822,65.673,127.014,1
9.877774,-0.097,0.731,-0.757,-11.779,65.917,126.037,1
9.884454,-0.096,0.741,-0.776,-2.075,65.002,125.244,1
9.891384,-0.09,0.739,-0.78,8.85,64.27,124.206,1
9.899887,-0.092,0.737,-0.796,16.845,63.598,123.779,1
9.908172,-0.094,0.735,-0.798,21.423,62.438,122.802,1
9.91663,-0.104,0.731,-0.804,22.888,62.316,122.131,1
9.923158,-0.11,0.736,-0.808,19.47,62.683,121.093,1
9.931284,-0.118,0.739,-0.812,13.122,63.476,120.056,1
9.938012,-0.14,0.743,-0.807,6.469,64.086,118.591,1
9.946307,-0.155,0.756,-0.812,1.892,64.941,117.248,1
9.952896,-0.161,0.768,-0.818,-0.671,65.368,115.905,1
9.961337,-0.174,0.776,-0.82,-3.723,66.162,114.318,1
9.967824,-0.169,0.788,-0.836,-5.798,67.077,112.121,1
9.976201,-0.172,0.793,-0.838,-4.76,67.26,110.229,1
9.982394,-0.184,0.79,-0.837,0.61,66.955,108.581,1
9.989532,-0.185,0.794,-0.851,7.568,66.711,106.75,1
9.997151,-0.193,0.793,-0.874,11.901,66.101,105.041,1
