timestamp_s,ax,ay,az,gx,gy,gz,label
0.003745,0.234,0.979,-0.12,5.859,9.46,-5.187,1
0.012325,0.233,0.982,-0.122,4.76,9.887,-5.371,1
0.020942,0.23,0.99,-0.118,3.051,10.559,-5.676,1
0.028455,0.231,1.001,-0.119,1.77,11.169,-5.981,1
0.034877,0.226,0.998,-0.114,0.122,11.84,-6.53,1
0.043131,0.228,0.992,-0.113,-1.464,12.268,-6.958,1
0.05107,0.228,0.985,-0.117,-2.624,12.878,-6.958,1
0.058721,0.229,0.979,-0.115,-3.784,13.366,-7.446,1
0.066986,0.228,0.977,-0.119,-4.272,13.854,-7.629,1
0.073669,0.234,0.975,-0.119,-3.662,14.221,-7.873,1
0.083477,0.232,0.969,-0.124,-2.502,14.587,-7.934,1
0.090696,0.231,0.96,-0.124,-0.549,15.014,-8.117,1
0.098877,0.231,0.958,-0.129,1.281,15.136,-8.178,1
0.107311,0.228,0.948,-0.127,2.929,15.38,-8.361,1
0.113775,0.229,0.947,-0.13,4.15,15.808,-7.934,1
0.121933,0.231,0.944,-0.123,4.028,15.991,-7.995,1
0.129315,0.229,0.946,-0.125,3.601,16.601,-8.117,1
0.137866,0.225,0.942,-0.12,2.685,17.15,-7.934,1
0.146319,0.23,0.941,-0.119,1.525,17.456,-7.934,1
0.153947,0.226,0.944,-0.124,0.732,18.249,-7.751,1
0.161609,0.229,0.949,-0.126,-0.305,18.92,-7.751,1
0.17123,0.227,0.947,-0.128,-0.366,19.348,-7.751,1
0.179543,0.223,0.949,-0.125,0.061,19.897,-7.873,1
0.186549,0.223,0.947,-0.127,0.732,20.263,-7.751,1
0.194924,0.222,0.951,-0.136,1.953,20.446,-7.69,1
0.204147,0.228,0.952,-0.134,2.746,20.69,-7.446,1
0.210782,0.226,0.949,-0.142,3.723,21.057,-7.324,1
0.219897,0.231,0.951,-0.14,4.394,21.179,-6.958,1
0.226932,0.237,0.955,-0.136,4.882,21.423,-6.774,1
0.235859,0.237,0.954,-0.14,5.432,21.85,-6.347,1
0.243396,0.24,0.954,-0.135,5.493,22.216,-6.347,1
0.251078,0.243,0.958,-0.13,4.821,22.827,-6.286,1
0.260669,0.238,0.959,-0.135,3.723,23.071,-6.225,1
0.269374,0.239,0.962,-0.132,2.563,23.803,-5.981,1
0.277927,0.238,0.965,-0.141,2.136,24.291,-6.042,1
0.286625,0.238,0.969,-0.151,2.136,24.78,-6.042,1
0.294334,0.236,0.977,-0.159,3.173,24.719,-5.676,1
0.301058,0.249,0.987,-0.161,5.187,24.78,-5.615,1
0.311153,0.25,1.0,-0.172,6.652,25.085,-6.042,1
0.317947,0.265,1.02,-0.185,7.873,24.963,-6.042,1
0.326807,0.277,1.026,-0.193,8.666,24.963,-6.286,1
0.336019,0.3,1.037,-0.214,8.911,24.902,-6.408,1
0.343032,0.321,1.047,-0.232,8.789,25.146,-6.774,1
0.351258,0.334,1.058,-0.245,8.544,24.902,-6.896,1
0.35875,0.353,1.083,-0.251,8.544,24.841,-7.08,1
0.367437,0.37,1.116,-0.271,9.948,24.353,-7.507,1
0.377986,0.379,1.148,-0.298,13.0,23.803,-8.361,1
0.385603,0.382,1.178,-0.323,16.845,22.277,-10.07,1
0.395374,0.385,1.184,-0.336,19.836,21.118,-11.352,1
0.402111,0.382,1.184,-0.348,20.751,20.141,-12.756,1
0.411016,0.381,1.173,-0.356,19.958,19.042,-14.16,1
0.418265,0.391,1.165,-0.361,17.7,18.493,-15.38,1
0.426401,0.4,1.165,-0.358,14.343,18.188,-16.479,1
0.435611,0.396,1.176,-0.358,11.291,17.822,-17.089,1
0.442144,0.385,1.192,-0.361,8.239,17.517,-18.798,1
0.451219,0.377,1.215,-0.354,6.774,17.7,-20.446,1
0.461499,0.361,1.244,-0.35,6.286,17.089,-22.338,1
0.469799,0.342,1.257,-0.339,3.845,16.54,-24.475,1
0.476464,0.354,1.27,-0.34,2.014,15.991,-26.855,1
0.485264,0.365,1.247,-0.347,0.183,15.563,-28.747,1
0.491121,0.393,1.258,-0.365,2.746,14.709,-31.372,1
0.499482,0.368,1.297,-0.356,5.31,12.512,-33.569,1
0.508311,0.364,1.325,-0.321,6.225,11.779,-36.132,1
0.515501,0.36,1.319,-0.306,0.488,11.596,-38.879,1
0.52601,0.353,1.318,-0.289,-10.375,11.84,-41.259,1
0.532616,0.35,1.352,-0.275,-19.958,12.268,-45.166,1
0.540545,0.319,1.326,-0.267,-32.531,12.39,-47.729,1
0.548475,0.351,1.367,-0.229,-42.419,12.695,-50.048,1
0.55696,0.352,1.363,-0.228,-39.794,12.573,-53.71,1
0.565096,0.361,1.342,-0.211,-35.705,12.268,-56.945,1
0.57185,0.363,1.318,-0.224,-34.545,12.39,-59.387,1
0.580894,0.381,1.278,-0.219,-36.804,12.512,-61.523,1
0.589331,0.391,1.243,-0.227,-40.161,12.756,-63.659,1
0.59805,0.38,1.227,-0.245,-43.823,12.756,-65.612,1
0.604775,0.361,1.203,-0.273,-45.104,12.451,-67.077,1
0.613095,0.363,1.171,-0.288,-42.541,11.718,-68.237,1
0.619917,0.359,1.163,-0.295,-35.888,11.047,-69.213,1
0.627555,0.331,1.116,-0.306,-28.625,9.887,-70.007,1
0.635462,0.317,1.072,-0.296,-21.301,9.582,-70.678,1
0.644224,0.305,1.025,-0.307,-17.822,9.155,-70.8,1
0.651967,0.299,0.986,-0.294,-18.188,9.033,-71.228,1
0.660236,0.298,0.96,-0.283,-20.996,9.399,-71.533,1
0.668912,0.291,0.941,-0.267,-25.207,9.826,-71.655,1
0.675738,0.303,0.93,-0.245,-29.541,9.765,-71.716,1
0.683549,0.336,0.925,-0.216,-31.921,10.131,-71.655,1
0.691588,0.363,0.933,-0.196,-32.409,10.437,-71.472,1
0.699523,0.386,0.932,-0.18,-31.677,10.62,-71.533,1
0.706527,0.415,0.94,-0.186,-31.433,11.108,-71.655,1
0.716382,0.434,0.948,-0.19,-30.517,10.742,-71.777,1
0.723296,0.456,0.958,-0.178,-26.794,10.559,-71.716,1
0.734734,0.472,0.961,-0.194,-21.911,10.559,-71.96,1
0.742312,0.503,0.952,-0.181,-13.977,9.521,-72.021,1
0.751316,0.499,0.936,-0.201,-8.3,10.131,-72.448,1
0.758346,0.475,0.91,-0.19,-3.356,8.728,-72.631,1
0.766226,0.461,0.882,-0.174,1.098,8.911,-72.692,1
0.77382,0.452,0.857,-0.163,5.004,8.239,-72.692,1
0.780834,0.437,0.824,-0.147,9.582,8.789,-72.509,1
0.789471,0.42,0.791,-0.142,11.779,8.85,-72.387,1
0.796647,0.415,0.768,-0.145,13.305,9.399,-72.021,1
0.805337,0.413,0.746,-0.14,14.282,9.277,-71.777,1
0.812628,0.418,0.73,-0.124,15.93,9.887,-71.166,1
0.821978,0.43,0.721,-0.12,16.113,9.826,-70.983,1
0.829061,0.434,0.697,-0.105,14.892,11.047,-70.068,1
0.836211,0.441,0.696,-0.112,10.498,11.657,-69.396,1
0.844363,0.433,0.704,-0.115,6.591,12.817,-68.786,1
0.852479,0.448,0.709,-0.125,3.479,13.0,-68.481,1
0.86215,0.458,0.705,-0.125,3.112,13.549,-67.749,1
0.869567,0.456,0.698,-0.135,4.821,13.244,-67.443,1
0.877674,0.461,0.69,-0.134,9.277,13.427,-66.833,1
0.885969,0.465,0.686,-0.144,13.061,12.939,-66.162,1
0.892866,0.47,0.668,-0.149,14.587,12.939,-65.673,1
0.901459,0.489,0.66,-0.161,13.427,12.878,-64.758,1
0.907954,0.492,0.652,-0.166,10.314,13.244,-64.025,1
0.915689,0.499,0.655,-0.173,4.516,13.793,-63.232,1
0.923445,0.503,0.646,-0.173,1.159,13.977,-62.499,1
0.93109,0.507,0.648,-0.175,0.732,14.038,-61.95,1
0.938932,0.52,0.639,-0.176,2.807,13.671,-60.668,1
0.947031,0.531,0.631,-0.172,7.324,13.366,-59.814,1
0.954652,0.539,0.623,-0.177,12.878,12.817,-58.959,1
0.961709,0.546,0.615,-0.174,18.31,12.329,-57.8,1
0.969877,0.542,0.609,-0.176,21.606,12.329,-56.579,1
0.976724,0.548,0.602,-0.175,23.01,12.573,-55.541,1
0.983834,0.553,0.602,-0.177,21.362,12.756,-54.504,1
0.99492,0.551,0.601,-0.181,18.31,13.61,-53.71,1
0.998139,0.551,0.594,-0.182,15.624,13.977,-52.917,1
1.005674,0.546,0.597,-0.179,13.854,14.343,-51.94,1
1.013363,0.542,0.588,-0.176,14.038,14.648,-51.33,1
1.020369,0.546,0.576,-0.182,15.197,14.77,-50.415,1
1.027382,0.567,0.57,-0.185,16.296,15.258,-49.438,1
1.035086,0.569,0.559,-0.189,16.662,15.502,-48.583,1
1.041924,0.57,0.558,-0.186,15.319,15.991,-47.485,1
1.048944,0.564,0.555,-0.189,13.793,16.296,-46.386,1
1.056715,0.566,0.556,-0.196,12.756,16.784,-45.776,1
1.065265,0.564,0.554,-0.201,12.39,16.967,-44.982,1
1.072412,0.57,0.558,-0.206,11.962,17.456,-44.25,1
1.080706,0.572,0.552,-0.206,12.207,17.395,-43.701,1
1.087382,0.568,0.547,-0.204,13.305,17.456,-43.151,1
1.095918,0.573,0.539,-0.213,15.014,17.578,-42.724,1
1.102954,0.589,0.524,-0.209,17.028,17.639,-41.931,1
1.110504,0.602,0.514,-0.21,18.493,17.944,-40.893,1
1.118305,0.605,0.505,-0.216,18.066,18.31,-39.794,1
1.12506,0.608,0.501,-0.216,16.418,19.042,-38.94,1
1.131918,0.621,0.496,-0.22,14.953,19.592,-38.208,1
1.140554,0.625,0.489,-0.227,13.244,20.568,-37.292,1
1.147485,0.629,0.484,-0.229,10.864,21.301,-36.315,1
1.154371,0.631,0.481,-0.234,8.056,22.094,-35.644,1
1.162218,0.634,0.477,-0.242,5.981,22.583,-34.729,1
1.169079,0.647,0.473,-0.241,4.089,22.583,-33.935,1
1.177737,0.662,0.473,-0.241,3.051,22.705,-32.836,1
1.184246,0.674,0.481,-0.238,4.272,22.705,-31.86,1
1.192356,0.688,0.493,-0.234,8.178,22.521,-31.005,1
1.199392,0.687,0.502,-0.238,14.648,22.46,-30.029,1
1.20648,0.677,0.515,-0.244,22.521,21.789,-29.602,1
1.215149,0.671,0.528,-0.245,31.066,21.118,-28.991,1
1.221904,0.661,0.53,-0.253,37.841,20.996,-28.259,1
1.230375,0.664,0.532,-0.259,42.663,21.118,-28.137,1
1.237199,0.665,0.528,-0.265,43.64,21.423,-27.099,1
1.243629,0.671,0.527,-0.271,42.175,21.85,-26.611,1
1.251963,0.678,0.532,-0.271,38.024,22.583,-26.245,1
1.258117,0.681,0.532,-0.277,32.104,23.498,-25.695,1
1.266851,0.697,0.534,-0.273,26.55,24.475,-25.512,1
1.274111,0.686,0.54,-0.275,20.446,26.0,-25.268,1
1.280736,0.694,0.544,-0.276,16.662,26.672,-24.841,1
1.287629,0.69,0.549,-0.281,14.099,27.587,-24.597,1
1.295861,0.694,0.56,-0.291,14.282,28.015,-24.536,1
1.302579,0.7,0.562,-0.292,16.235,28.503,-24.353,1
1.310848,0.714,0.557,-0.303,18.798,28.503,-24.23,1
1.317427,0.729,0.557,-0.31,22.033,28.564,-23.986,1
1.325257,0.754,0.557,-0.315,24.169,28.625,-23.681,1
1.33321,0.763,0.553,-0.326,24.719,28.747,-23.62,1
1.340992,0.771,0.551,-0.335,23.803,28.808,-23.376,1
1.347479,0.778,0.555,-0.346,21.179,29.174,-23.437,1
1.356081,0.785,0.558,-0.345,19.47,29.174,-23.315,1
1.362821,0.788,0.561,-0.349,18.188,29.296,-23.315,1
1.370875,0.789,0.564,-0.351,18.005,29.602,-23.254,1
1.378192,0.788,0.566,-0.36,17.211,29.785,-23.193,1
1.38532,0.791,0.568,-0.361,15.38,30.151,-23.437,1
1.392927,0.795,0.568,-0.366,12.695,30.395,-23.315,1
1.401378,0.802,0.567,-0.374,9.277,30.944,-23.681,1
1.408976,0.798,0.571,-0.373,5.371,31.433,-24.047,1
1.415669,0.807,0.572,-0.381,2.563,31.249,-24.291,1
1.422813,0.811,0.577,-0.383,2.014,31.372,-24.414,1
1.430695,0.819,0.583,-0.385,3.417,30.639,-24.841,1
1.439073,0.814,0.587,-0.389,6.347,30.273,-25.085,1
1.445985,0.811,0.591,-0.386,9.765,29.663,-25.695,1
1.453638,0.812,0.583,-0.389,12.817,28.991,-26.123,1
1.461689,0.812,0.585,-0.393,14.404,28.625,-26.489,1
1.469258,0.797,0.59,-0.4,14.526,28.198,-26.672,1
1.477796,0.795,0.593,-0.403,13.549,27.954,-27.282,1
1.485077,0.783,0.594,-0.403,12.268,27.832,-27.709,1
1.492197,0.769,0.594,-0.404,10.192,27.77,-28.198,1
1.500713,0.77,0.594,-0.403,8.605,27.465,-28.93,1
1.507977,0.757,0.58,-0.404,6.774,28.442,-29.418,1
1.516188,0.753,0.568,-0.412,0.793,28.991,-29.785,1
1.524396,0.762,0.564,-0.423,-6.896,30.334,-29.968,1
1.532314,0.762,0.565,-0.417,-11.962,30.273,-30.334,1
1.53975,0.757,0.562,-0.426,-14.709,31.005,-30.517,1
1.548162,0.755,0.558,-0.433,-17.272,31.127,-30.761,1
1.556195,0.756,0.555,-0.436,-18.676,31.555,-31.066,1
1.562707,0.752,0.554,-0.431,-17.333,30.883,-31.616,1
1.571642,0.746,0.546,-0.427,-12.512,30.273,-32.104,1
1.578272,0.745,0.541,-0.431,-7.385,28.991,-32.409,1
1.587182,0.757,0.534,-0.437,-2.441,28.015,-33.081,1
1.593973,0.749,0.528,-0.444,0.305,26.489,-33.386,1
1.602359,0.737,0.522,-0.443,1.708,25.268,-34.057,1
1.610166,0.732,0.513,-0.441,3.784,23.498,-34.179,1
1.616778,0.729,0.506,-0.435,6.896,22.033,-34.423,1
1.624487,0.727,0.494,-0.434,8.85,20.874,-34.606,1
1.632817,0.729,0.487,-0.432,11.108,20.019,-34.667,1
1.64013,0.726,0.479,-0.43,12.634,18.981,-34.484,1
1.64865,0.725,0.464,-0.425,13.488,18.493,-34.301,1
1.65625,0.722,0.454,-0.425,13.488,18.066,-34.24,1
1.663116,0.721,0.445,-0.427,12.939,18.005,-34.118,1
1.671007,0.721,0.437,-0.429,11.108,17.7,-33.996,1
1.679041,0.716,0.425,-0.426,8.728,17.272,-33.996,1
1.686268,0.726,0.413,-0.431,5.859,17.15,-33.874,1
1.694373,0.733,0.397,-0.436,2.502,17.089,-33.63,1
1.701779,0.743,0.39,-0.437,-1.464,16.723,-33.386,1
1.710222,0.74,0.388,-0.433,-4.577,16.845,-33.325,1
1.717519,0.741,0.383,-0.429,-5.493,16.418,-33.02,1
1.726472,0.748,0.385,-0.435,-4.699,16.357,-32.958,1
1.733857,0.75,0.382,-0.439,-3.417,15.747,-33.02,1
1.740544,0.753,0.39,-0.438,-0.671,15.258,-32.775,1
1.749484,0.753,0.378,-0.437,1.708,14.77,-32.653,1
1.756555,0.755,0.386,-0.434,6.713,13.793,-32.531,1
1.764056,0.747,0.395,-0.437,14.465,12.023,-32.653,1
1.772174,0.725,0.406,-0.432,25.207,10.437,-32.714,1
1.779555,0.712,0.402,-0.429,36.865,8.972,-33.142,1
1.786489,0.716,0.385,-0.432,46.264,7.934,-33.203,1
1.795296,0.735,0.364,-0.433,51.208,6.958,-32.958,1
1.802702,0.784,0.346,-0.43,47.607,7.019,-32.043,1
1.810386,0.773,0.34,-0.409,40.466,7.69,-31.494,1
1.818067,0.774,0.336,-0.403,35.827,8.422,-30.883,1
1.826718,0.759,0.348,-0.418,30.761,9.826,-30.273,1
1.833233,0.791,0.347,-0.449,15.869,11.535,-29.418,1
1.841072,0.873,0.379,-0.481,-4.089,16.052,-27.77,1
1.85071,0.921,0.37,-0.546,-30.395,18.066,-28.015,1
1.856898,0.859,0.33,-0.541,-52.429,23.193,-28.259,1
1.866219,0.803,0.325,-0.578,-74.279,25.878,-28.015,1
1.87456,0.751,0.337,-0.539,-88.256,28.564,-27.709,1
1.881751,0.754,0.357,-0.531,-85.449,28.564,-27.77,1
1.889675,0.769,0.385,-0.497,-66.833,27.832,-27.893,1
1.897737,0.787,0.395,-0.5,-45.349,26.123,-27.893,1
1.90594,0.781,0.395,-0.471,-26.0,24.536,-27.709,1
1.91371,0.781,0.388,-0.468,-12.451,23.742,-27.77,1
1.921626,0.772,0.382,-0.444,-4.882,23.62,-27.954,1
1.928684,0.789,0.37,-0.447,-4.333,23.559,-28.198,1
1.936566,0.791,0.363,-0.438,-8.361,24.658,-28.869,1
1.94531,0.798,0.358,-0.447,-13.977,25.268,-29.357,1
1.953319,0.799,0.361,-0.441,-18.432,25.695,-29.479,1
1.960024,0.807,0.358,-0.443,-18.676,25.39,-30.09,1
1.968209,0.807,0.358,-0.431,-14.77,25.695,-30.944,1
1.976165,0.838,0.342,-0.432,-9.643,26.0,-31.433,1
1.984709,0.842,0.328,-0.424,-2.99,25.695,-31.677,1
1.992082,0.847,0.318,-0.426,3.051,26.367,-32.043,1
1.998823,0.833,0.312,-0.429,7.507,26.733,-32.348,1
2.00623,0.892,0.295,-0.426,8.666,27.893,-32.409,1
2.014864,0.89,0.29,-0.442,6.591,27.893,-32.714,1
2.022982,0.879,0.285,-0.44,3.417,30.151,-32.531,1
2.030559,0.853,0.291,-0.458,-1.403,30.273,-32.653,1
2.039208,0.845,0.296,-0.474,-5.615,32.165,-32.653,1
2.046508,0.811,0.304,-0.482,-9.887,32.531,-33.142,1
2.054109,0.79,0.302,-0.49,-10.314,34.24,-33.264,1
2.063038,0.775,0.311,-0.508,-10.986,34.484,-33.63,1
2.070631,0.777,0.304,-0.513,-10.314,35.583,-34.118,1
2.077636,0.773,0.299,-0.532,-11.108,36.437,-34.729,1
2.086643,0.766,0.291,-0.532,-12.512,37.841,-35.156,1
2.093157,0.76,0.286,-0.547,-16.052,38.208,-35.461,1
2.101105,0.756,0.273,-0.55,-19.958,39.306,-35.766,1
2.110505,0.759,0.268,-0.555,-26.611,39.978,-35.888,1
2.11865,0.753,0.263,-0.555,-32.165,40.771,-35.705,1
2.125523,0.727,0.258,-0.561,-38.818,41.137,-35.949,1
2.133139,0.692,0.251,-0.571,-44.189,41.748,-36.071,1
2.14093,0.66,0.241,-0.589,-50.415,42.175,-36.376,1
2.149431,0.642,0.225,-0.606,-57.189,42.663,-36.499,1
2.156498,0.624,0.203,-0.629,-66.04,43.395,-36.926,1
2.164395,0.602,0.17,-0.657,-76.416,43.579,-37.353,1
2.173965,0.593,0.136,-0.678,-91.674,43.64,-37.658,1
2.181379,0.59,0.126,-0.686,-100.646,43.762,-37.902,1
2.189712,0.612,0.106,-0.699,-110.29,42.48,-38.269,1
2.197875,0.61,0.086,-0.702,-118.041,41.625,-38.696,1
2.204376,0.631,0.051,-0.731,-120.727,40.405,-39.367,1
2.212237,0.649,0.012,-0.776,-121.398,39.306,-39.367,1
2.221612,0.661,-0.02,-0.795,-119.75,37.475,-39.123,1
2.229231,0.634,-0.035,-0.791,-109.619,33.752,-38.208,1
2.237069,0.643,-0.057,-0.796,-93.505,31.188,-37.353,1
2.244403,0.615,-0.062,-0.833,-69.946,27.343,-36.56,1
2.253313,0.587,-0.075,-0.819,-44.982,25.146,-35.217,1
2.260047,0.565,-0.094,-0.832,-21.728,21.728,-33.813,1
2.269083,0.491,-0.147,-0.835,-3.967,19.348,-32.653,1
2.276962,0.533,-0.175,-0.833,10.498,18.737,-30.273,1
2.284673,0.544,-0.202,-0.882,16.052,16.906,-28.381,1
2.293207,0.515,-0.229,-0.873,19.531,16.662,-25.207,1
2.301394,0.514,-0.221,-0.882,16.967,14.953,-22.521,1
2.308133,0.504,-0.245,-0.889,14.709,15.991,-19.897,1
2.316348,0.508,-0.254,-0.903,5.554,14.465,-17.517,1
2.323674,0.501,-0.243,-0.872,2.258,15.136,-15.136,1
2.331633,0.513,-0.267,-0.881,-4.333,13.366,-12.634,1
2.340904,0.505,-0.273,-0.845,-10.253,13.977,-9.155,1
2.34833,0.504,-0.28,-0.836,-13.671,12.695,-6.774,1
2.356409,0.483,-0.276,-0.804,-13.427,13.122,-3.967,1
2.363884,0.475,-0.282,-0.795,-12.329,12.39,-1.159,1
2.371363,0.464,-0.287,-0.779,-8.972,12.573,2.441,1
2.379159,0.449,-0.292,-0.777,-8.3,12.207,5.554,1
2.38782,0.456,-0.315,-0.771,-12.329,12.756,8.85,1
2.39492,0.406,-0.308,-0.787,-17.089,14.16,12.817,1
2.403899,0.407,-0.309,-0.773,-19.531,14.526,16.113,1
2.412149,0.398,-0.312,-0.777,-21.301,14.953,19.531,1
2.419042,0.407,-0.312,-0.765,-21.972,15.319,22.521,1
2.427647,0.404,-0.318,-0.767,-21.118,15.747,26.611,1
2.435417,0.395,-0.316,-0.753,-20.019,16.174,30.09,1
2.442302,0.377,-0.327,-0.742,-19.348,16.906,33.752,1
2.450724,0.365,-0.333,-0.729,-20.141,18.127,37.902,1
2.459488,0.343,-0.337,-0.724,-21.484,18.981,41.809,1
2.466416,0.331,-0.344,-0.711,-23.132,19.897,45.959,1
2.475346,0.311,-0.348,-0.707,-24.169,20.874,50.903,1
2.483085,0.282,-0.348,-0.701,-24.963,21.911,55.358,1
2.492053,0.239,-0.348,-0.695,-24.047,23.071,59.57,1
2.499827,0.213,-0.344,-0.686,-20.812,24.047,64.819,1
2.506502,0.201,-0.345,-0.674,-16.54,25.146,69.274,1
2.515924,0.191,-0.349,-0.667,-12.512,26.489,73.791,1
2.523427,0.177,-0.352,-0.651,-7.873,27.77,79.284,1
2.530691,0.159,-0.347,-0.638,-3.234,28.869,83.862,1
2.538026,0.106,-0.348,-0.621,-1.831,29.418,88.623,1
2.547266,0.121,-0.336,-0.619,0.427,32.104,93.688,1
2.554216,0.053,-0.323,-0.632,4.638,32.043,99.792,1
2.562093,0.078,-0.329,-0.597,6.103,34.667,105.102,1
2.57129,0.094,-0.302,-0.64,8.3,34.484,109.863,1
2.578545,0.01,-0.269,-0.625,15.441,35.4,116.394,1
2.586911,0.032,-0.267,-0.635,14.953,36.499,121.826,1
2.595458,0.005,-0.25,-0.66,13.0,37.597,126.831,1
2.601481,-0.038,-0.233,-0.672,14.282,37.719,132.446,1
2.610784,-0.079,-0.221,-0.683,19.47,37.902,138.122,1
2.617351,-0.106,-0.213,-0.71,30.456,37.17,145.507,1
2.625564,-0.158,-0.214,-0.726,39.855,35.278,152.038,1
2.634697,-0.173,-0.233,-0.74,43.457,34.79,158.996,1
2.641605,-0.212,-0.228,-0.802,45.104,33.569,166.137,1
2.648662,-0.267,-0.209,-0.819,48.156,30.883,174.377,1
2.656995,-0.303,-0.178,-0.84,53.527,28.442,183.898,1
2.666241,-0.358,-0.161,-0.854,49.56,25.329,191.772,1
2.672621,-0.402,-0.149,-0.934,42.846,25.146,199.951,1
2.681599,-0.488,-0.116,-0.943,31.616,21.911,207.702,1
2.68823,-0.501,-0.093,-1.001,23.193,21.057,215.82,1
2.696817,-0.556,-0.065,-1.025,16.052,17.456,225.28,1
2.703405,-0.599,-0.045,-1.093,11.962,14.831,233.886,1
2.712667,-0.651,-0.02,-1.146,8.666,10.864,241.943,1
2.719255,-0.715,0.009,-1.241,7.202,6.042,252.014,1
2.727199,-0.75,0.038,-1.329,10.192,0.244,260.192,1
2.734759,-0.827,0.063,-1.425,15.991,-7.568,268.432,1
2.743346,-0.911,0.082,-1.49,25.085,-16.601,276.306,1
2.750824,-0.995,0.093,-1.549,34.912,-26.794,284.118,1
2.759075,-1.072,0.11,-1.617,42.48,-37.597,291.687,1
2.76664,-1.208,0.138,-1.642,36.743,-50.292,299.499,1
2.775105,-1.297,0.225,-1.648,29.357,-59.936,305.358,1
2.781756,-1.397,0.305,-1.793,26.611,-73.608,310.058,1
2.791428,-1.566,0.338,-1.78,30.273,-85.815,314.758,1
2.798815,-1.717,0.409,-1.831,40.466,-100.524,318.908,1
2.806539,-1.828,0.446,-1.784,65.368,-118.347,323.181,1
2.814843,-1.962,0.479,-1.715,85.51,-139.343,326.354,1
2.822641,-1.978,0.541,-1.684,115.905,-158.02,330.2,1
2.831661,-2.156,0.619,-1.588,125.549,-177.001,331.481,1
2.838756,-2.273,0.663,-1.506,121.887,-189.331,332.824,1
2.84775,-2.483,0.737,-1.441,108.764,-210.083,332.702,1
2.855917,-2.604,0.808,-1.296,97.961,-220.947,333.374,1
2.863005,-2.723,0.869,-1.174,75.683,-238.22,332.946,1
2.870451,-2.73,0.936,-1.13,73.12,-244.323,333.923,1
2.878084,-2.911,1.022,-1.041,61.706,-257.08,334.411,1
2.886189,-3.043,1.101,-0.899,40.71,-264.892,334.838,1
2.893679,-3.037,1.196,-0.879,30.212,-269.714,335.388,1
2.901031,-3.273,1.296,-0.809,12.817,-275.39,336.486,1
2.910057,-3.181,1.346,-0.684,-5.493,-276.0,337.463,1
2.918545,-3.435,1.445,-0.709,-7.141,-285.217,337.707,1
2.926088,-3.391,1.505,-0.532,-9.521,-284.362,338.928,1
2.933546,-3.489,1.587,-0.583,5.187,-294.921,338.867,1
2.943211,-3.409,1.639,-0.446,9.765,-295.227,338.561,1
2.949888,-3.497,1.753,-0.497,27.099,-302.856,336.669,1
2.958659,-3.633,1.792,-0.383,41.442,-308.532,332.824,1
2.966463,-3.644,1.831,-0.407,47.79,-314.025,328.308,1
2.974616,-3.64,1.915,-0.286,56.518,-319.641,323.364,1
2.9826,-3.633,2.005,-0.257,71.838,-325.988,315.917,1
2.991208,-3.636,2.126,-0.136,94.177,-333.19,306.884,1
2.99851,-3.619,2.111,-0.119,111.206,-339.782,296.142,1
3.005919,-3.461,2.187,-0.065,115.6,-346.74,285.217,1
3.015067,-3.502,2.277,0.052,137.634,-350.83,272.46,1
3.021878,-3.495,2.326,0.077,161.621,-359.802,257.019,1
3.030142,-3.337,2.342,0.153,183.776,-367.004,242.675,1
3.037705,-3.352,2.086,0.093,178.161,-370.178,233.581,1
3.045471,-3.021,2.272,0.171,160.156,-375.122,218.872,1
3.053592,-3.233,2.361,0.28,191.04,-379.333,201.843,1
3.061222,-3.148,2.327,0.319,215.942,-387.145,184.631,1
3.069209,-3.103,2.34,0.384,228.088,-387.268,167.053,1
3.076446,-2.805,2.123,0.373,181.335,-389.77,155.7,1
3.084619,-2.865,2.108,0.488,162.414,-384.155,136.108,1
3.092194,-2.964,2.146,0.536,165.466,-382.568,121.582,1
3.099453,-2.895,2.137,0.586,180.114,-379.882,106.445,1
3.106255,-2.735,2.041,0.638,182.373,-377.929,93.261,1
3.113545,-2.694,1.857,0.609,184.57,-375.122,79.528,1
3.122422,-2.56,1.862,0.659,176.635,-372.985,67.504,1
3.130037,-2.547,1.784,0.685,186.401,-370.91,51.696,1
3.137985,-2.519,1.5,0.65,168.823,-369.262,42.541,1
3.145936,-2.482,1.528,0.727,153.93,-366.271,29.907,1
3.153305,-2.459,1.55,0.793,138.977,-362.67,20.324,1
3.161875,-2.407,1.497,0.835,120.178,-356.872,9.033,1
3.169893,-2.354,1.438,0.894,100.463,-350.402,1.281,1
3.176416,-2.248,1.406,0.936,81.237,-343.322,-5.371,1
3.186542,-2.145,1.377,0.973,71.777,-336.914,-11.413,1
3.193646,-2.053,1.364,0.996,76.599,-329.772,-18.005,1
3.201777,-2.081,1.366,1.039,82.519,-325.744,-23.864,1
3.208383,-1.884,1.315,1.031,89.843,-318.969,-29.296,1
3.217236,-1.83,1.282,1.063,92.834,-315.246,-35.095,1
3.224147,-1.751,1.27,1.073,91.918,-306.945,-40.588,1
3.233543,-1.726,1.216,1.094,85.021,-301.574,-45.104,1
3.241985,-1.639,1.154,1.099,70.373,-293.396,-48.278,1
3.249229,-1.53,1.109,1.126,49.377,-285.888,-51.391,1
3.256529,-1.461,1.095,1.147,42.358,-279.052,-53.283,1
3.26439,-1.39,1.105,1.163,37.902,-272.277,-55.847,1
3.27223,-1.336,1.083,1.181,42.48,-264.953,-58.288,1
3.281311,-1.313,1.067,1.198,45.288,-260.009,-59.509,1
3.288944,-1.288,1.02,1.219,48.4,-252.929,-61.34,1
3.297121,-1.154,0.958,1.227,44.799,-244.445,-63.049,1
3.304186,-1.011,0.929,1.246,34.606,-236.694,-63.964,1
3.313186,-0.981,0.945,1.282,34.362,-228.393,-64.88,1
3.320432,-0.809,0.879,1.256,39.062,-220.153,-65.612,1
3.329295,-0.87,0.883,1.318,46.813,-212.524,-65.917,1
3.337495,-0.829,0.822,1.31,50.231,-204.956,-66.284,1
3.344715,-0.794,0.819,1.34,43.457,-195.434,-66.528,1
3.352549,-0.758,0.798,1.335,30.761,-187.194,-66.772,1
3.361472,-0.699,0.816,1.371,16.113,-176.33,-66.589,1
3.369312,-0.589,0.812,1.346,9.643,-167.236,-65.979,1
3.378383,-0.516,0.809,1.358,12.023,-159.179,-65.063,1
3.386392,-0.469,0.8,1.321,14.831,-152.648,-64.27,1
3.396475,-0.409,0.775,1.322,21.057,-144.042,-63.781,1
3.404634,-0.325,0.748,1.295,22.888,-136.474,-62.561,1
3.411858,-0.3,0.696,1.279,18.432,-126.342,-60.485,1
3.420967,-0.231,0.693,1.274,13.244,-118.957,-59.509,1
3.429012,-0.233,0.708,1.258,12.573,-108.703,-57.434,1
3.437275,-0.209,0.689,1.226,11.23,-102.661,-56.274,1
3.446633,-0.137,0.657,1.184,7.568,-93.505,-54.504,1
3.454533,-0.103,0.633,1.151,-1.159,-85.693,-52.551,1
3.462903,-0.052,0.624,1.124,-7.446,-77.453,-50.17,1
3.47038,-0.015,0.613,1.103,-10.009,-71.655,-47.851,1
3.479415,0.015,0.605,1.08,-10.62,-64.575,-45.043,1
3.486435,0.042,0.597,1.064,-9.948,-59.326,-42.053,1
3.497192,0.072,0.593,1.041,-8.911,-53.405,-39.245,1
3.504432,0.083,0.597,1.011,-7.446,-46.569,-35.4,1
3.511375,0.102,0.611,0.987,-4.394,-41.992,-33.142,1
3.520436,0.121,0.621,0.961,-0.183,-37.536,-30.517,1
3.527198,0.119,0.627,0.936,2.502,-32.836,-28.381,1
3.534699,0.127,0.627,0.908,2.075,-27.709,-25.695,1
3.545378,0.16,0.619,0.878,-3.112,-22.338,-23.254,1
3.551572,0.187,0.616,0.854,-13.366,-16.418,-20.69,1
3.560741,0.2,0.626,0.827,-23.193,-11.84,-17.944,1
3.568099,0.215,0.649,0.808,-28.991,-7.263,-15.624,1
3.57646,0.215,0.672,0.779,-29.663,-3.173,-13.0,1
3.583714,0.219,0.693,0.754,-26.733,0.0,-11.291,1
3.59213,0.226,0.71,0.727,-21.911,2.624,-9.338,1
3.598843,0.238,0.72,0.701,-16.54,5.31,-7.812,1
3.60657,0.243,0.736,0.681,-12.023,7.446,-6.713,1
3.616248,0.248,0.75,0.652,-7.812,9.582,-5.249,1
3.623493,0.245,0.767,0.627,-4.15,12.207,-4.028,1
3.630642,0.245,0.772,0.607,-2.868,14.465,-2.685,1
3.639106,0.254,0.776,0.582,-5.249,17.089,-0.976,1
3.646377,0.253,0.773,0.564,-9.643,19.592,0.305,1
3.654631,0.254,0.774,0.543,-13.61,22.155,2.014,1
3.661894,0.254,0.784,0.538,-14.77,23.742,3.173,1
3.669514,0.257,0.791,0.531,-10.742,24.963,4.76,1
3.677996,0.263,0.784,0.524,-3.906,26.306,6.164,1
3.685051,0.265,0.768,0.518,4.577,27.343,7.873,1
3.694634,0.272,0.759,0.519,13.122,28.076,9.704,1
3.702903,0.281,0.746,0.508,23.986,28.93,12.268,1
3.710784,0.274,0.737,0.501,34.423,29.663,14.892,1
3.719007,0.254,0.738,0.499,40.71,30.334,17.517,1
3.726011,0.233,0.738,0.49,42.48,32.104,20.812,1
3.73292,0.217,0.747,0.479,39.611,33.325,22.46,1
3.741993,0.199,0.757,0.476,33.569,35.217,24.475,1
3.751241,0.188,0.77,0.473,24.902,37.719,26.916,1
3.758707,0.189,0.791,0.475,18.005,40.344,29.113,1
3.76718,0.184,0.806,0.478,14.16,41.625,30.883,1
3.774182,0.172,0.821,0.488,11.23,43.823,32.348,1
3.782546,0.236,0.839,0.495,13.0,44.311,33.996,1
3.789828,0.1,0.848,0.484,20.202,45.227,34.729,1
3.798116,0.091,0.857,0.503,18.188,47.241,35.583,1
3.805894,0.145,0.862,0.488,13.427,49.56,35.888,1
3.813223,0.109,0.878,0.495,10.681,51.086,36.132,1
3.820837,0.088,0.895,0.495,6.164,53.527,35.949,1
3.828183,0.093,0.916,0.483,-0.488,56.03,35.827,1
3.837519,0.104,0.94,0.483,-6.164,58.288,35.217,1
3.846208,0.111,0.954,0.479,-8.056,60.729,34.301,1
3.85342,0.108,0.971,0.478,-6.53,62.499,33.935,1
3.861146,0.105,0.981,0.476,-2.685,63.964,32.897,1
3.870365,0.105,0.989,0.478,-0.488,65.551,32.531,1
3.878266,0.091,1.018,0.478,2.075,67.504,31.86,1
3.88675,0.081,1.038,0.477,4.882,69.396,30.639,1
3.894947,0.083,1.05,0.477,5.493,71.228,29.907,1
3.903267,0.078,1.061,0.482,5.004,73.364,28.808,1
3.910332,0.078,1.077,0.489,5.187,75.073,27.709,1
3.918369,0.073,1.084,0.495,7.568,76.599,27.221,1
3.925046,0.049,1.08,0.492,12.145,77.758,26.672,1
3.932605,0.035,1.062,0.491,12.451,79.895,26.0,1
3.939942,0.032,1.06,0.488,6.958,82.092,25.573,1
3.948547,0.035,1.073,0.488,1.037,84.411,24.963,1
3.955475,0.023,1.078,0.5,-0.793,86.547,24.475,1
3.962384,0.013,1.083,0.502,-0.305,88.562,23.742,1
3.971081,0.016,1.085,0.5,0.305,90.454,23.193,1
3.978987,0.001,1.083,0.496,-0.122,92.529,22.644,1
3.985697,-0.009,1.092,0.491,0.366,94.238,22.094,1
3.994528,-0.011,1.091,0.498,1.831,96.069,21.301,1
4.001504,-0.012,1.092,0.494,3.662,98.083,20.812,1
4.011548,-0.015,1.088,0.496,5.432,99.792,20.08,1
4.019334,-0.02,1.092,0.482,5.676,102.172,19.165,1
4.026016,-0.022,1.1,0.48,4.394,104.37,18.737,1
4.033647,-0.037,1.113,0.477,2.258,106.689,17.944,1
4.041867,-0.05,1.129,0.476,0.061,109.13,17.028,1
4.049056,-0.059,1.142,0.467,-1.098,111.083,16.113,1
4.056922,-0.071,1.15,0.464,0.061,113.159,14.648,1
4.065618,-0.104,1.152,0.462,-0.488,115.722,13.244,1
4.073391,-0.083,1.134,0.445,-5.859,118.041,11.901,1
4.08101,-0.112,1.168,0.451,-4.272,120.3,10.803,1
4.088913,-0.137,1.171,0.451,1.708,121.459,9.094,1
4.096184,-0.126,1.147,0.43,4.272,123.474,7.995,1
4.103776,-0.129,1.137,0.419,5.493,124.999,6.652,1
4.112518,-0.138,1.123,0.411,5.92,127.197,5.676,1
4.120094,-0.145,1.114,0.392,3.112,128.906,4.943,1
4.128292,-0.154,1.115,0.381,0.366,130.859,3.784,1
4.135198,-0.179,1.121,0.372,-1.037,132.812,2.624,1
4.143228,-0.19,1.115,0.358,-3.662,134.582,1.464,1
4.151471,-0.204,1.118,0.345,-4.577,135.925,0.488,1
4.158723,-0.214,1.118,0.34,-3.662,137.329,-0.793,1
4.166754,-0.225,1.116,0.323,-1.464,138.793,-1.953,1
4.174038,-0.221,1.111,0.308,2.319,139.343,-2.624,1
4.183357,-0.224,1.099,0.301,5.493,140.258,-3.54,1
4.190325,-0.189,1.08,0.285,7.873,141.723,-4.272,1
4.198059,-0.228,1.089,0.291,7.873,143.005,-4.821,1
4.205836,-0.242,1.084,0.278,10.437,143.92,-5.31,1
4.215612,-0.239,1.083,0.272,10.864,145.202,-5.798,1
4.224749,-0.236,1.088,0.266,10.925,146.118,-6.225,1
4.231153,-0.247,1.093,0.255,12.695,146.972,-6.469,1
4.240009,-0.251,1.092,0.251,14.099,147.644,-6.713,1
4.247792,-0.258,1.09,0.236,13.793,148.437,-7.141,1
4.256423,-0.249,1.086,0.221,11.596,149.475,-7.141,1
4.26431,-0.23,1.075,0.21,5.737,150.268,-7.751,1
4.272504,-0.245,1.089,0.196,6.286,150.451,-7.873,1
4.281442,-0.26,1.094,0.182,11.047,150.634,-8.117,1
4.287532,-0.249,1.086,0.173,14.709,150.756,-8.361,1
4.296058,-0.245,1.074,0.157,14.404,151.123,-8.605,1
4.305363,-0.237,1.072,0.151,12.512,151.794,-8.911,1
4.312838,-0.245,1.079,0.147,12.817,152.038,-8.911,1
4.321527,-0.251,1.088,0.141,15.014,152.221,-9.216,1
4.330093,-0.254,1.099,0.127,16.845,152.404,-9.582,1
4.33878,-0.267,1.104,0.122,17.089,152.771,-10.009,1
4.345674,-0.269,1.113,0.118,17.395,152.954,-10.498,1
4.353173,-0.27,1.121,0.117,17.639,153.259,-10.62,1
4.363712,-0.27,1.127,0.109,17.7,153.503,-10.925,1
4.369512,-0.284,1.134,0.101,17.211,154.052,-11.474,1
4.37713,-0.287,1.135,0.093,16.174,154.724,-12.145,1
4.384853,-0.302,1.135,0.094,13.061,155.09,-12.573,1
4.394687,-0.304,1.141,0.083,12.145,155.883,-13.0,1
4.403319,-0.314,1.153,0.083,13.183,156.127,-13.854,1
4.412841,-0.298,1.15,0.076,15.075,156.188,-14.404,1
4.420033,-0.338,1.167,0.072,17.822,156.494,-15.136,1
4.427709,-0.347,1.167,0.054,20.874,156.188,-15.686,1
4.436427,-0.322,1.169,0.031,21.301,156.982,-16.54,1
4.443804,-0.327,1.172,0.02,19.592,157.043,-17.333,1
4.452932,-0.325,1.181,0.015,17.944,157.897,-18.249,1
4.461742,-0.321,1.181,0.008,17.7,157.409,-18.981,1
4.469215,-0.312,1.18,0.001,18.188,157.897,-19.47,1
4.478014,-0.302,1.183,-0.004,17.822,157.409,-19.958,1
4.485609,-0.297,1.185,-0.013,18.92,157.592,-20.507,1
4.492904,-0.307,1.181,-0.028,18.737,156.616,-21.179,1
4.500025,-0.31,1.181,-0.036,18.066,157.104,-21.85,1
4.508813,-0.322,1.177,-0.053,16.174,156.311,-22.521,1
4.517821,-0.32,1.18,-0.062,14.404,156.494,-23.254,1
4.526136,-0.322,1.182,-0.08,12.939,156.494,-24.536,1
4.534867,-0.33,1.178,-0.098,12.451,156.311,-25.817,1
4.541813,-0.325,1.183,-0.113,12.145,156.25,-26.855,1
4.54996,-0.324,1.181,-0.128,11.108,155.761,-28.198,1
4.558081,-0.323,1.18,-0.14,10.375,156.127,-29.418,1
4.566296,-0.3,1.185,-0.146,9.338,155.7,-30.273,1
4.574164,-0.296,1.192,-0.149,9.277,155.456,-31.555,1
4.581022,-0.28,1.2,-0.148,9.887,154.785,-33.081,1
4.589335,-0.28,1.204,-0.152,10.803,154.418,-34.118,1
4.599061,-0.263,1.209,-0.16,13.0,153.686,-35.522,1
4.606161,-0.281,1.216,-0.17,17.822,153.137,-36.621,1
4.615148,-0.268,1.194,-0.196,17.883,150.634,-37.597,1
4.622873,-0.264,1.193,-0.19,19.287,151.855,-38.208,1
4.629219,-0.254,1.19,-0.224,17.395,149.292,-39.611,1
4.638299,-0.259,1.188,-0.227,19.226,150.085,-39.916,1
4.64588,-0.254,1.184,-0.252,18.432,147.705,-41.198,1
4.654772,-0.254,1.174,-0.236,21.24,147.705,-41.503,1
4.660933,-0.222,1.162,-0.268,22.033,145.69,-42.663,1
4.669377,-0.214,1.16,-0.248,24.963,146.301,-43.395,1
4.678546,-0.233,1.187,-0.262,27.77,145.019,-44.372,1
4.68632,-0.193,1.178,-0.234,31.249,143.615,-45.288,1
4.693873,-0.178,1.185,-0.261,35.217,142.761,-45.959,1
4.701089,-0.183,1.17,-0.227,42.297,140.808,-46.203,1
4.709276,-0.147,1.158,-0.267,49.072,137.939,-46.997,1
4.718602,-0.164,1.159,-0.236,55.603,136.718,-47.424,1
4.725257,-0.147,1.159,-0.257,57.556,134.704,-47.851,1
4.734898,-0.131,1.141,-0.234,58.41,133.667,-48.339,1
4.741985,-0.111,1.118,-0.241,55.175,132.08,-48.889,1
4.749897,-0.106,1.097,-0.22,52.49,132.08,-48.828,1
4.75639,-0.093,1.078,-0.223,48.95,130.554,-49.011,1
4.764635,-0.079,1.064,-0.204,46.813,130.31,-49.011,1
4.772418,-0.054,1.053,-0.209,45.043,129.577,-48.889,1
4.780585,-0.044,1.048,-0.179,44.921,128.601,-48.522,1
4.788142,-0.013,1.049,-0.194,46.02,127.197,-48.095,1
4.797276,-0.005,1.054,-0.176,49.56,126.281,-47.607,1
4.804033,0.013,1.05,-0.193,53.833,124.328,-47.363,1
4.812984,0.026,1.058,-0.186,57.983,123.718,-46.752,1
4.820186,0.031,1.055,-0.186,61.096,121.948,-46.63,1
4.828817,0.027,1.054,-0.176,63.659,121.276,-46.142,1
4.837253,0.034,1.046,-0.179,64.331,120.178,-45.593,1
4.844044,0.036,1.036,-0.169,62.194,120.056,-45.349,1
4.851942,0.043,1.02,-0.17,58.166,119.934,-44.921,1
4.859348,0.035,1.019,-0.162,52.062,120.117,-44.799,1
4.867162,0.043,1.005,-0.163,44.128,120.178,-44.86,1
4.876182,0.055,1.011,-0.159,34.973,120.788,-45.288,1
4.884998,0.074,1.025,-0.162,30.578,120.178,-45.654,1
4.891227,0.081,1.035,-0.157,30.883,119.262,-46.264,1
4.899908,0.081,1.045,-0.157,34.973,118.041,-46.752,1
4.90824,0.098,1.061,-0.151,41.442,117.004,-47.119,1
4.915638,0.104,1.064,-0.157,50.17,115.051,-47.119,1
4.923042,0.111,1.06,-0.152,56.762,114.318,-47.546,1
4.931963,0.096,1.054,-0.163,60.974,113.708,-47.363,1
4.940729,0.083,1.049,-0.181,60.302,113.952,-47.546,1
4.948033,0.057,1.047,-0.205,56.03,114.685,-47.546,1
4.955953,0.018,1.046,-0.258,46.203,116.21,-47.729,1
4.965244,-0.015,1.034,-0.303,28.198,119.384,-48.645,1
4.973076,-0.02,1.023,-0.357,7.629,121.826,-49.926,1
4.982207,0.0,1.042,-0.334,-9.887,123.718,-51.391,1
4.989629,0.045,1.061,-0.312,-15.624,122.924,-52.856,1
4.997437,0.044,1.104,-0.288,-5.187,121.459,-53.955,1
5.006136,0.057,1.117,-0.271,8.972,118.774,-55.358,1
5.013312,0.084,1.131,-0.275,24.475,116.638,-55.786,1
5.022154,0.098,1.14,-0.28,39.184,113.83,-56.884,1
5.030175,0.098,1.146,-0.292,49.804,112.304,-57.434,1
5.038297,0.118,1.141,-0.304,54.199,110.412,-58.288,1
5.045932,0.121,1.124,-0.304,51.696,109.741,-59.082,1
5.05476,0.136,1.111,-0.318,46.63,109.069,-59.997,1
5.062111,0.165,1.099,-0.31,38.757,109.191,-60.791,1
5.070815,0.176,1.106,-0.306,30.517,109.13,-61.95,1
5.078527,0.179,1.124,-0.304,28.686,108.581,-62.927,1
5.088149,0.18,1.141,-0.287,35.4,106.689,-64.941,1
5.095257,0.188,1.14,-0.286,46.02,105.285,-66.955,1
5.104124,0.176,1.116,-0.287,49.255,104.37,-68.481,1
5.112891,0.184,1.091,-0.281,43.273,104.98,-70.556,1
5.120174,0.2,1.066,-0.289,32.653,105.407,-72.814,1
5.129156,0.203,1.052,-0.285,23.62,106.628,-74.89,1
5.137883,0.212,1.028,-0.29,16.479,107.055,-77.148,1
5.144931,0.213,1.009,-0.306,9.033,107.543,-79.223,1
5.153492,0.222,0.993,-0.315,2.014,107.727,-81.176,1
5.161156,0.221,0.976,-0.336,-5.554,108.032,-83.068,1
5.167865,0.224,0.961,-0.363,-12.878,108.215,-85.144,1
5.177084,0.231,0.944,-0.382,-18.493,107.788,-87.524,1
5.185172,0.246,0.917,-0.411,-20.08,107.055,-89.355,1
5.19224,0.271,0.884,-0.433,-20.08,105.468,-90.942,1
5.19982,0.29,0.852,-0.453,-20.202,104.187,-92.529,1
5.209309,0.309,0.81,-0.473,-21.606,102.661,-93.261,1
5.218372,0.309,0.772,-0.488,-25.573,101.379,-93.872,1
5.22542,0.332,0.71,-0.508,-33.874,100.28,-94.604,1
5.234762,0.359,0.662,-0.519,-45.227,99.487,-95.031,1
5.242024,0.395,0.614,-0.531,-56.335,98.51,-95.581,1
5.249876,0.41,0.564,-0.546,-65.795,97.534,-95.214,1
5.256803,0.414,0.516,-0.553,-74.218,95.642,-94.97,1
5.266008,0.418,0.47,-0.565,-76.965,93.566,-93.627,1
5.273754,0.411,0.487,-0.536,-68.786,90.515,-92.712,1
5.281582,0.466,0.523,-0.507,-41.931,86.853,-92.895,1
5.290668,0.426,0.494,-0.498,-17.15,85.144,-91.369,1
5.299026,0.397,0.451,-0.553,7.08,77.575,-89.721,1
5.306002,0.385,0.397,-0.523,21.24,77.453,-85.083,1
5.313034,0.429,0.351,-0.566,17.944,74.707,-80.2,1
5.321753,0.474,0.307,-0.576,5.249,75.683,-74.462,1
5.330206,0.505,0.291,-0.609,-13.244,74.768,-69.824,1
5.338907,0.504,0.312,-0.624,-29.479,74.584,-64.758,1
5.345937,0.493,0.355,-0.63,-35.522,72.448,-60.424,1
5.356413,0.43,0.39,-0.634,-44.067,73.303,-56.823,1
5.365229,0.427,0.419,-0.679,-41.32,66.284,-54.382,1
5.37168,0.431,0.435,-0.665,-29.357,64.575,-52.246,1
5.379951,0.448,0.455,-0.679,-20.202,59.387,-50.964,1
5.389475,0.463,0.476,-0.671,-8.911,56.64,-50.109,1
5.397049,0.451,0.497,-0.656,1.647,52.185,-49.56,1
5.404455,0.452,0.513,-0.655,10.253,49.377,-49.255,1
5.412953,0.442,0.521,-0.645,19.653,46.447,-49.377,1
5.421875,0.425,0.519,-0.642,24.291,44.311,-49.316,1
5.430705,0.437,0.506,-0.638,25.268,42.907,-48.889,1
5.43783,0.451,0.518,-0.628,24.963,41.687,-47.851,1
5.446957,0.496,0.528,-0.624,27.221,39.916,-47.424,1
5.454509,0.538,0.544,-0.608,27.893,39.245,-47.18,1
5.463163,0.519,0.566,-0.612,28.32,38.085,-47.241,1
5.470838,0.491,0.571,-0.608,29.724,36.987,-47.241,1
5.480015,0.497,0.568,-0.606,28.198,36.56,-47.485,1
5.488342,0.512,0.559,-0.604,23.681,36.56,-47.851,1
5.494919,0.521,0.554,-0.601,19.47,36.315,-47.79,1
5.503028,0.517,0.547,-0.604,17.456,35.888,-48.095,1
5.511297,0.517,0.539,-0.597,17.761,35.522,-48.278,1
5.519198,0.52,0.518,-0.598,19.104,34.851,-48.156,1
5.527101,0.516,0.505,-0.604,19.104,34.484,-48.095,1
5.533941,0.517,0.494,-0.616,16.296,34.79,-47.912,1
5.541979,0.522,0.494,-0.632,13.183,34.362,-47.424,1
5.550226,0.543,0.494,-0.647,11.962,33.691,-47.058,1
5.556646,0.573,0.499,-0.652,13.671,32.897,-46.447,1
5.565762,0.604,0.498,-0.662,15.991,31.86,-46.081,1
5.572621,0.609,0.499,-0.68,16.784,30.883,-45.471,1
5.5817,0.609,0.505,-0.697,15.563,30.029,-44.982,1
5.588686,0.598,0.501,-0.704,14.343,28.93,-44.555,1
5.597673,0.605,0.487,-0.707,11.718,28.564,-44.128,1
5.605368,0.615,0.47,-0.71,7.751,27.709,-43.518,1
5.612719,0.629,0.467,-0.712,4.15,26.977,-42.724,1
5.620204,0.613,0.474,-0.715,1.22,26.489,-42.114,1
5.629248,0.602,0.479,-0.716,0.244,25.573,-41.503,1
5.637004,0.582,0.47,-0.72,0.732,24.719,-41.381,1
5.645009,0.569,0.467,-0.73,1.098,23.742,-41.015,1
5.653276,0.567,0.456,-0.736,2.868,22.46,-40.466,1
5.661303,0.57,0.441,-0.748,5.371,21.179,-40.161,1
5.669905,0.599,0.429,-0.746,7.263,19.897,-39.55,1
5.677173,0.619,0.41,-0.748,11.047,18.432,-38.879,1
5.685743,0.623,0.396,-0.738,15.624,16.845,-37.658,1
5.692512,0.646,0.382,-0.733,18.066,15.869,-36.499,1
5.700893,0.64,0.376,-0.73,15.563,15.441,-35.278,1
5.709402,0.667,0.37,-0.728,9.033,15.258,-34.118,1
5.717025,0.676,0.387,-0.726,4.272,14.892,-33.142,1
5.724214,0.679,0.403,-0.712,3.723,14.038,-32.287,1
5.732822,0.672,0.408,-0.71,5.554,13.305,-31.616,1
5.740291,0.654,0.402,-0.709,6.652,12.39,-31.249,1
5.747929,0.649,0.399,-0.704,6.591,12.023,-30.7,1
5.75571,0.649,0.398,-0.702,6.225,11.352,-30.212,1
5.764278,0.645,0.401,-0.705,5.432,11.047,-29.479,1
5.771506,0.66,0.404,-0.697,4.516,10.375,-29.174,1
5.780991,0.689,0.403,-0.7,5.371,9.643,-28.747,1
5.789817,0.703,0.414,-0.7,4.882,8.605,-28.503,1
5.797467,0.705,0.425,-0.697,2.807,7.751,-27.954,1
5.804993,0.697,0.431,-0.688,2.136,7.019,-27.648,1
5.812383,0.695,0.435,-0.683,2.868,6.042,-27.648,1
5.821702,0.685,0.431,-0.676,4.943,4.821,-27.587,1
5.829024,0.684,0.433,-0.667,7.812,3.967,-27.893,1
5.83682,0.683,0.42,-0.66,8.911,3.173,-27.648,1
5.844479,0.687,0.414,-0.656,9.643,2.746,-27.587,1
5.852092,0.686,0.409,-0.657,8.728,2.197,-27.587,1
5.860899,0.686,0.413,-0.663,5.554,2.136,-27.526,1
5.868402,0.685,0.417,-0.669,1.708,2.075,-27.404,1
5.877107,0.678,0.435,-0.667,-2.258,1.892,-27.404,1
5.883848,0.694,0.451,-0.662,-5.31,1.831,-27.709,1
5.891838,0.694,0.46,-0.662,-8.911,1.647,-28.259,1
5.90164,0.666,0.474,-0.641,-18.615,3.234,-28.564,1
5.908961,0.726,0.483,-0.68,-16.296,-0.061,-29.357,1
5.916518,0.742,0.466,-0.634,-4.76,0.305,-29.479,1
5.925524,0.73,0.457,-0.643,2.807,-1.464,-29.479,1
5.933487,0.768,0.434,-0.647,10.559,-2.563,-29.479,1
5.940377,0.754,0.418,-0.64,13.0,-3.662,-29.479,1
5.949566,0.752,0.412,-0.654,11.23,-3.906,-29.663,1
5.956292,0.732,0.412,-0.649,7.812,-3.723,-29.418,1
5.966169,0.726,0.417,-0.646,3.967,-3.417,-29.724,1
5.973046,0.74,0.413,-0.642,0.305,-3.234,-29.846,1
5.980863,0.755,0.42,-0.645,-2.563,-3.112,-30.212,1
5.989708,0.732,0.417,-0.648,-6.53,-3.356,-30.578,1
5.998894,0.769,0.425,-0.669,-1.77,-4.089,-31.311,1
6.006155,0.765,0.418,-0.651,5.126,-4.699,-31.494,1
6.015816,0.81,0.393,-0.67,11.047,-5.798,-31.372,1
6.023072,0.822,0.378,-0.649,12.756,-6.042,-31.372,1
6.030366,0.839,0.377,-0.662,10.009,-6.469,-31.005,1
6.038282,0.818,0.388,-0.643,5.065,-5.798,-30.761,1
6.047905,0.822,0.411,-0.656,1.708,-5.615,-30.944,1
6.056431,0.816,0.436,-0.63,0.854,-5.493,-31.555,1
6.064036,0.811,0.448,-0.642,1.464,-6.042,-32.287,1
6.073077,0.813,0.454,-0.638,3.173,-6.286,-33.081,1
6.082242,0.813,0.453,-0.644,8.178,-7.385,-34.179,1
6.088825,0.818,0.444,-0.629,16.845,-8.3,-35.278,1
6.09775,0.83,0.431,-0.621,23.803,-8.972,-36.193,1
6.105073,0.846,0.428,-0.614,26.306,-9.216,-36.926,1
6.112843,0.849,0.418,-0.603,22.827,-8.911,-37.78,1
6.121571,0.839,0.439,-0.586,20.568,-9.094,-38.757,1
6.130098,0.838,0.457,-0.572,20.935,-9.155,-39.794,1
6.138903,0.826,0.479,-0.563,20.751,-9.094,-41.442,1
6.147366,0.798,0.488,-0.556,21.057,-9.338,-42.907,1
6.156045,0.758,0.484,-0.545,21.423,-9.399,-44.677,1
6.163455,0.749,0.482,-0.536,22.277,-9.399,-46.142,1
6.172487,0.718,0.495,-0.531,23.864,-9.521,-47.668,1
6.18076,0.691,0.505,-0.525,25.817,-9.338,-49.621,1
6.189327,0.695,0.5,-0.521,29.235,-9.277,-51.452,1
6.19809,0.698,0.489,-0.514,32.226,-9.216,-52.856,1
6.206665,0.694,0.464,-0.512,33.508,-8.789,-54.626,1
6.215374,0.687,0.439,-0.505,30.578,-7.446,-56.152,1
6.221583,0.685,0.415,-0.492,24.658,-6.225,-57.373,1
6.231855,0.686,0.396,-0.488,20.263,-4.821,-58.166,1
6.239437,0.662,0.39,-0.479,15.808,-3.295,-59.143,1
6.248462,0.67,0.368,-0.461,13.732,-2.197,-60.302,1
6.257649,0.664,0.346,-0.434,15.319,-1.159,-61.279,1
6.264969,0.665,0.324,-0.412,17.822,-0.244,-62.133,1
6.272697,0.682,0.299,-0.38,20.629,0.488,-62.499,1
6.2812,0.698,0.278,-0.345,23.071,1.281,-62.927,1
6.288776,0.715,0.263,-0.312,26.184,3.112,-63.293,1
6.297666,0.736,0.246,-0.292,28.564,4.821,-63.659,1
6.305189,0.742,0.217,-0.27,28.381,7.507,-63.537,1
6.313526,0.749,0.2,-0.249,25.817,10.192,-63.415,1
6.322624,0.754,0.179,-0.236,20.446,14.221,-63.11,1
6.329714,0.75,0.156,-0.227,11.291,17.7,-62.683,1
6.339097,0.735,0.14,-0.216,-1.281,22.338,-62.316,1
6.347102,0.714,0.121,-0.211,-11.23,25.878,-62.255,1
6.354802,0.712,0.104,-0.208,-19.592,29.907,-61.767,1
6.365132,0.723,0.086,-0.205,-22.216,32.775,-61.096,1
6.371901,0.704,0.078,-0.209,-21.24,35.827,-60.058,1
6.381205,0.695,0.066,-0.214,-17.761,38.696,-59.143,1
6.388553,0.691,0.048,-0.227,-12.634,41.32,-58.166,1
6.397426,0.699,0.036,-0.242,-9.704,44.311,-57.006,1
6.403768,0.704,0.02,-0.262,-11.23,47.18,-55.786,1
6.411609,0.707,0.015,-0.276,-16.479,50.354,-54.321,1
6.419912,0.696,0.01,-0.293,-25.451,53.405,-53.344,1
6.428092,0.707,0.017,-0.306,-33.752,56.762,-52.124,1
6.435783,0.703,0.04,-0.314,-38.146,58.715,-51.391,1
6.444497,0.681,0.025,-0.369,-37.414,62.194,-50.72,1
6.451755,0.668,0.016,-0.375,-34.545,64.636,-49.194,1
6.45983,0.678,0.016,-0.361,-31.555,65.185,-49.133,1
6.467442,0.647,0.034,-0.401,-27.221,65.795,-48.889,1
6.476333,0.634,0.004,-0.449,-20.812,70.129,-47.363,1
6.485673,0.62,-0.02,-0.468,-20.263,71.777,-45.898,1
6.494222,0.595,-0.03,-0.483,-24.963,71.838,-45.288,1
6.502861,0.577,-0.02,-0.538,-26.611,74.707,-44.311,1
6.511213,0.579,-0.003,-0.554,-24.902,76.721,-43.457,1
6.517978,0.558,0.004,-0.574,-21.545,77.697,-43.395,1
6.527016,0.545,-0.004,-0.611,-18.188,78.308,-42.663,1
6.536242,0.513,-0.033,-0.645,-18.249,75.195,-42.114,1
6.544182,0.542,-0.052,-0.748,-9.582,77.514,-40.588,1
6.55385,0.496,-0.053,-0.741,-10.864,78.002,-39.367,1
6.562028,0.529,-0.06,-0.858,-11.901,74.584,-38.146,1
6.570865,0.473,-0.062,-0.815,-15.075,76.232,-36.682,1
6.578927,0.517,-0.081,-0.952,-16.174,73.547,-35.4,1
6.586449,0.419,-0.117,-0.955,-17.456,73.425,-34.057,1
6.595333,0.479,-0.165,-1.099,-16.662,69.335,-32.836,1
6.604212,0.409,-0.227,-1.088,-15.747,66.284,-31.188,1
6.612255,0.476,-0.276,-1.24,-5.432,60.119,-29.113,1
6.619107,0.461,-0.319,-1.215,7.202,57.067,-26.611,1
6.627958,0.489,-0.371,-1.303,13.122,50.109,-23.315,1
6.637056,0.513,-0.4,-1.302,15.197,46.691,-19.836,1
6.645103,0.545,-0.406,-1.338,12.145,40.893,-15.93,1
6.651886,0.571,-0.401,-1.327,7.08,36.804,-11.962,1
6.66085,0.598,-0.375,-1.321,-0.427,33.203,-8.605,1
6.669777,0.611,-0.335,-1.31,-4.089,28.076,-5.249,1
6.676663,0.612,-0.278,-1.283,-3.295,21.85,-0.61,1
6.68548,0.574,-0.228,-1.25,-3.295,17.822,2.014,1
6.694031,0.55,-0.18,-1.225,-2.868,14.16,4.577,1
6.700414,0.501,-0.119,-1.185,-1.953,9.765,6.652,1
6.70803,0.471,-0.07,-1.16,-0.244,6.591,7.934,1
6.715778,0.446,-0.042,-1.132,2.502,3.723,8.728,1
6.724167,0.433,-0.024,-1.115,4.211,0.732,8.972,1
6.731189,0.435,-0.016,-1.093,5.493,-1.831,9.399,1
6.738458,0.435,-0.011,-1.073,7.507,-4.15,9.399,1
6.749148,0.433,-0.014,-1.05,9.887,-6.347,9.277,1
6.758052,0.437,-0.03,-1.024,12.756,-9.033,9.338,1
6.766283,0.441,-0.035,-0.997,14.038,-10.925,9.521,1
6.773644,0.455,-0.046,-0.966,16.601,-13.061,10.07,1
6.781467,0.462,-0.055,-0.929,20.446,-14.526,10.498,1
6.790508,0.47,-0.072,-0.904,22.216,-15.197,11.108,1
6.801232,0.46,-0.081,-0.878,18.31,-15.38,12.573,1
6.808282,0.437,-0.082,-0.851,7.995,-14.526,13.916,1
6.815315,0.429,-0.077,-0.825,-1.098,-13.305,14.648,1
6.824416,0.402,-0.064,-0.797,-7.202,-12.329,15.686,1
6.833339,0.381,-0.062,-0.775,-7.69,-11.291,16.784,1
6.842199,0.374,-0.067,-0.754,-5.981,-10.62,17.883,1
6.851043,0.363,-0.082,-0.742,-3.967,-9.826,18.493,1
6.859692,0.348,-0.1,-0.722,-2.624,-8.728,19.775,1
6.868672,0.348,-0.125,-0.711,-1.281,-7.507,20.69,1
6.875796,0.351,-0.153,-0.697,2.685,-6.408,22.277,1
6.88384,0.35,-0.182,-0.688,6.774,-5.737,23.559,1
6.892285,0.34,-0.217,-0.675,10.375,-4.638,25.756,1
6.900528,0.353,-0.256,-0.678,10.131,-2.014,28.991,1
6.908135,0.367,-0.293,-0.692,0.488,0.915,33.02,1
6.916407,0.343,-0.303,-0.694,-16.54,5.004,36.926,1
6.92448,0.307,-0.297,-0.711,-37.963,9.216,41.748,1
6.932435,0.29,-0.273,-0.717,-50.72,12.634,45.532,1
6.939692,0.271,-0.257,-0.722,-55.48,15.014,49.194,1
6.948123,0.255,-0.252,-0.728,-53.71,17.211,53.405,1
6.955606,0.237,-0.257,-0.741,-50.842,18.188,56.884,1
6.964758,0.2,-0.271,-0.755,-49.316,19.531,60.363,1
6.972889,0.182,-0.286,-0.776,-48.706,20.324,65.063,1
6.980403,0.158,-0.302,-0.794,-46.508,20.935,69.519,1
6.987948,0.126,-0.314,-0.799,-43.64,21.301,73.791,1
6.997138,0.089,-0.323,-0.805,-39.794,21.301,78.43,1
7.005268,0.065,-0.343,-0.822,-34.24,21.606,82.702,1
7.012476,0.066,-0.355,-0.846,-24.169,21.362,88.378,1
7.021164,0.066,-0.378,-0.855,-11.291,19.775,94.909,1
7.030251,0.052,-0.404,-0.867,-2.075,19.042,100.769,1
7.037642,0.023,-0.416,-0.882,3.601,17.578,108.276,1
7.04493,-0.009,-0.419,-0.905,6.652,16.784,115.051,1
7.053046,-0.046,-0.416,-0.92,9.094,15.502,122.253,1
7.061846,-0.069,-0.414,-0.933,11.169,14.343,129.577,1
7.069466,-0.118,-0.407,-0.937,10.925,13.183,138.122,1
7.077386,-0.153,-0.395,-0.958,8.972,12.084,145.507,1
7.085369,-0.177,-0.386,-0.986,6.469,10.803,152.771,1
7.093844,-0.185,-0.368,-1.022,3.112,8.972,161.56,1
7.101489,-0.202,-0.343,-1.059,-0.061,6.164,170.41,1
7.109928,-0.222,-0.324,-1.1,-2.197,3.356,178.161,1
7.117693,-0.277,-0.29,-1.139,-4.272,-0.915,186.584,1
7.126477,-0.333,-0.26,-1.172,-5.493,-4.699,193.908,1
7.134223,-0.411,-0.233,-1.201,-7.812,-9.399,202.209,1
7.142517,-0.442,-0.214,-1.248,-11.108,-13.305,209.472,1
7.150247,-0.565,-0.187,-1.256,-25.207,-15.93,216.613,1
7.158547,-0.557,-0.139,-1.375,-37.597,-22.583,224.609,1
7.167961,-0.688,-0.059,-1.309,-42.053,-23.681,231.445,1
7.175015,-0.717,-0.016,-1.39,-39.855,-34.606,238.83,1
7.183143,-0.832,0.024,-1.377,-29.479,-35.888,245.361,1
7.190469,-0.9,0.059,-1.411,-20.019,-47.241,250.976,1
7.198529,-0.967,0.1,-1.359,-7.324,-51.208,256.835,1
7.207976,-0.996,0.106,-1.45,4.516,-65.856,262.756,1
7.215672,-1.021,0.181,-1.416,21.545,-67.687,268.981,1
7.224611,-1.11,0.234,-1.407,28.503,-79.772,274.902,1
7.232154,-1.192,0.269,-1.414,34.484,-88.562,281.188,1
7.240517,-1.33,0.297,-1.43,36.499,-99.975,285.705,1
7.249849,-1.391,0.279,-1.406,37.841,-112.487,291.687,1
7.257732,-1.423,0.327,-1.478,42.907,-118.652,298.095,1
7.265225,-1.495,0.415,-1.392,45.043,-128.417,304.138,1
7.272571,-1.661,0.436,-1.462,34.79,-137.39,309.814,1
7.280793,-1.707,0.478,-1.418,32.775,-149.169,315.063,1
7.289713,-1.812,0.603,-1.422,35.278,-157.104,320.739,1
7.298961,-2.013,0.62,-1.451,24.841,-168.945,327.087,1
7.306684,-2.07,0.728,-1.491,27.282,-181.274,331.97,1
7.315795,-2.253,0.785,-1.383,13.244,-186.401,336.242,1
7.323425,-2.346,0.94,-1.503,12.939,-199.401,338.745,1
7.331068,-2.443,1.0,-1.308,1.586,-204.833,342.59,1
7.338241,-2.59,1.109,-1.499,5.493,-220.153,343.933,1
7.347222,-2.645,1.155,-1.258,-6.469,-224.67,346.374,1
7.355151,-2.816,1.233,-1.421,-19.958,-239.318,347.29,1
7.363399,-2.829,1.387,-1.264,-25.085,-243.164,348.693,1
7.370896,-2.922,1.546,-1.338,-25.207,-255.371,349.06,1
7.379519,-3.004,1.666,-1.248,-11.901,-262.756,348.51,1
7.387442,-3.13,1.791,-1.291,3.601,-278.32,345.336,1
7.396086,-3.156,1.905,-1.162,5.065,-289.428,341.186,1
7.403838,-3.19,2.033,-1.208,21.118,-302.001,335.021,1
7.413011,-3.309,2.176,-1.106,30.273,-314.819,326.721,1
7.420878,-3.303,2.327,-0.996,45.41,-324.279,317.321,1
7.429998,-3.381,2.438,-0.898,70.678,-343.017,300.842,1
7.437846,-3.427,2.482,-0.775,93.017,-354.797,285.461,1
7.445889,-3.357,2.47,-0.648,103.698,-367.309,271.179,1
7.455471,-3.315,2.497,-0.529,110.107,-374.023,256.896,1
7.464084,-3.242,2.545,-0.381,99.609,-382.08,240.966,1
7.472807,-3.163,2.575,-0.215,93.017,-387.817,227.05,1
7.481539,-3.149,2.625,-0.046,86.242,-392.211,209.472,1
7.48843,-3.083,2.627,0.121,88.073,-395.08,193.176,1
7.497176,-3.059,2.605,0.225,90.82,-395.69,179.992,1
7.505138,-2.923,2.546,0.351,91.918,-397.338,164.306,1
7.514351,-2.829,2.496,0.437,88.073,-396.118,151.489,1
7.522311,-2.797,2.508,0.581,83.068,-394.47,137.146,1
7.529016,-2.717,2.511,0.671,81.359,-393.188,124.816,1
7.538071,-2.661,2.514,0.788,88.317,-390.991,112.304,1
7.545294,-2.563,2.477,0.875,93.933,-387.817,99.67,1
7.554601,-2.51,2.393,0.967,99.182,-382.934,84.106,1
7.562053,-2.366,2.299,1.031,93.078,-378.173,71.472,1
7.570993,-2.261,2.222,1.117,91.491,-370.849,57.495,1
7.579675,-2.17,2.114,1.176,78.125,-362.67,44.372,1
7.588365,-2.125,2.09,1.264,69.885,-353.576,32.775,1
7.597318,-1.914,2.011,1.293,65.551,-346.496,22.766,1
7.603498,-1.856,1.896,1.343,63.598,-336.059,13.366,1
7.613749,-1.782,1.82,1.351,58.654,-330.688,6.225,1
7.620539,-1.647,1.691,1.41,56.213,-318.908,0.366,1
7.6298,-1.48,1.691,1.541,55.725,-309.875,-7.385,1
7.636826,-1.447,1.571,1.517,43.151,-301.147,-11.108,1
7.64623,-1.357,1.582,1.646,36.499,-288.574,-15.075,1
7.653035,-1.217,1.496,1.642,35.888,-277.343,-19.592,1
7.66008,-1.214,1.485,1.703,29.785,-265.686,-23.925,1
7.66806,-1.062,1.334,1.616,0.305,-253.723,-25.512,1
7.676386,-1.002,1.394,1.689,-5.615,-242.553,-28.747,1
7.685477,-0.894,1.375,1.648,3.845,-232.421,-31.311,1
7.692554,-0.847,1.173,1.598,-8.544,-221.496,-30.639,1
7.701145,-0.724,1.241,1.617,-8.483,-212.463,-33.203,1
7.708021,-0.685,1.198,1.604,5.065,-201.965,-34.179,1
7.716987,-0.587,1.151,1.577,5.92,-193.481,-35.278,1
7.725184,-0.55,1.114,1.558,1.098,-183.41,-36.132,1
7.731902,-0.501,1.083,1.521,-5.859,-173.889,-36.621,1
7.7399,-0.433,1.043,1.484,-16.967,-162.353,-36.926,1
7.748622,-0.379,1.012,1.435,-25.817,-153.503,-36.926,1
7.75659,-0.318,0.979,1.386,-32.348,-144.836,-36.499,1
7.764698,-0.258,0.969,1.341,-33.752,-136.413,-36.01,1
7.773649,-0.221,0.947,1.309,-30.395,-128.784,-35.4,1
7.780405,-0.163,0.917,1.25,-26.428,-121.643,-34.973,1
7.789599,-0.11,0.878,1.205,-25.085,-114.868,-34.423,1
7.798215,-0.093,0.878,1.146,-22.705,-108.764,-33.935,1
7.805232,-0.054,0.857,1.096,-19.165,-102.111,-33.691,1
7.813914,-0.005,0.821,1.037,-19.714,-95.764,-32.714,1
7.821307,0.032,0.794,0.99,-20.629,-90.82,-31.799,1
7.829708,0.065,0.776,0.954,-18.981,-85.693,-30.395,1
7.838865,0.098,0.769,0.928,-15.441,-81.97,-28.808,1
7.84714,0.125,0.749,0.895,-10.375,-77.575,-27.038,1
7.853937,0.147,0.729,0.874,-7.019,-74.157,-25.329,1
7.864559,0.173,0.717,0.854,-7.995,-70.495,-23.498,1
7.872985,0.2,0.727,0.824,-11.718,-65.856,-21.301,1
7.881174,0.223,0.742,0.802,-14.587,-61.95,-19.409,1
7.888537,0.227,0.749,0.787,-17.578,-57.739,-17.761,1
7.898453,0.237,0.774,0.776,-18.249,-54.565,-16.296,1
7.90593,0.231,0.794,0.764,-16.174,-51.269,-15.136,1
7.916511,0.223,0.802,0.751,-14.526,-48.767,-14.404,1
7.925498,0.227,0.806,0.746,-13.671,-45.349,-13.427,1
7.934004,0.247,0.805,0.741,-10.742,-43.09,-12.939,1
7.9406,0.264,0.798,0.737,-6.591,-40.161,-11.535,1
7.948692,0.276,0.796,0.719,-7.141,-37.292,-10.803,1
7.957448,0.291,0.797,0.703,-10.192,-34.301,-10.131,1
7.966786,0.311,0.806,0.673,-13.427,-31.249,-9.46,1
7.975516,0.337,0.807,0.661,-13.183,-28.991,-8.666,1
7.983131,0.339,0.831,0.632,-11.413,-27.038,-8.361,1
7.992626,0.334,0.856,0.62,-6.835,-25.024,-8.239,1
8.000299,0.334,0.876,0.605,0.122,-24.291,-8.728,1
8.008617,0.327,0.896,0.592,7.202,-23.193,-9.399,1
8.014871,0.31,0.912,0.583,13.549,-22.338,-10.437,1
8.022266,0.296,0.923,0.573,17.089,-20.812,-11.901,1
8.029995,0.293,0.918,0.56,15.136,-18.737,-12.817,1
8.038001,0.308,0.923,0.55,6.835,-15.869,-13.854,1
8.047025,0.315,0.925,0.55,0.976,-13.549,-14.892,1
8.053755,0.324,0.935,0.54,-1.892,-11.779,-15.258,1
8.061933,0.33,0.939,0.53,-1.708,-10.375,-15.502,1
8.070701,0.325,0.943,0.519,-0.183,-9.399,-15.502,1
8.077494,0.342,0.953,0.535,1.708,-7.141,-15.136,1
8.085312,0.343,0.951,0.516,7.385,-7.019,-14.526,1
8.093304,0.33,0.938,0.52,11.23,-5.249,-13.854,1
8.101119,0.331,0.94,0.503,10.192,-3.112,-13.183,1
8.109671,0.315,0.95,0.501,9.155,-1.037,-12.756,1
8.118001,0.312,0.968,0.489,8.544,0.976,-12.695,1
8.124007,0.314,0.981,0.488,10.07,2.746,-12.817,1
8.131873,0.317,0.99,0.47,12.329,4.333,-12.939,1
8.140932,0.325,0.99,0.454,14.343,5.859,-13.0,1
8.149498,0.334,0.977,0.433,14.77,7.507,-13.122,1
8.154969,0.337,0.959,0.411,12.695,9.033,-12.878,1
8.162293,0.341,0.945,0.394,9.521,11.047,-12.756,1
8.171135,0.343,0.941,0.373,6.958,12.512,-12.329,1
8.179906,0.344,0.932,0.359,6.164,14.16,-11.718,1
8.188048,0.321,0.937,0.339,8.117,15.075,-11.413,1
8.196346,0.306,0.941,0.328,12.695,15.502,-11.047,1
8.203895,0.302,0.928,0.313,19.897,15.869,-10.742,1
8.213072,0.308,0.907,0.306,25.512,16.235,-10.009,1
8.220916,0.315,0.884,0.305,26.55,16.906,-9.216,1
8.227421,0.314,0.856,0.296,24.291,18.249,-7.995,1
8.236343,0.317,0.839,0.296,21.057,19.836,-6.713,1
8.245364,0.325,0.825,0.298,18.859,21.423,-5.737,1
8.252077,0.326,0.821,0.29,16.052,23.071,-4.394,1
8.258514,0.317,0.828,0.279,12.451,25.146,-3.234,1
8.266353,0.313,0.844,0.269,10.314,26.855,-2.38,1
8.274602,0.307,0.847,0.252,10.925,28.32,-1.403,1
8.282178,0.294,0.852,0.238,12.145,29.602,-0.549,1
8.291662,0.291,0.854,0.217,12.329,30.883,0.427,1
8.29884,0.288,0.866,0.204,10.864,31.982,1.281,1
8.305968,0.287,0.876,0.185,8.666,32.592,2.014,1
8.31356,0.293,0.894,0.185,7.568,33.325,2.502,1
8.322924,0.283,0.904,0.166,6.591,32.958,2.929,1
8.329766,0.266,0.912,0.168,6.164,33.325,3.417,1
8.337197,0.261,0.899,0.166,6.286,33.874,3.662,1
8.346108,0.285,0.882,0.162,5.432,34.423,3.967,1
8.354149,0.292,0.861,0.168,4.333,35.278,5.004,1
8.360898,0.287,0.85,0.173,4.699,36.01,6.103,1
8.368471,0.292,0.835,0.179,5.126,37.048,7.446,1
8.375684,0.299,0.839,0.174,2.868,38.024,8.789,1
8.385255,0.277,0.846,0.178,-2.136,39.367,9.948,1
8.39194,0.246,0.872,0.193,-8.239,40.222,11.108,1
8.399669,0.211,0.908,0.218,-11.962,41.564,12.207,1
8.408678,0.183,0.944,0.243,-11.108,42.846,13.0,1
8.416345,0.165,0.972,0.28,-6.103,43.457,13.854,1
8.423629,0.148,0.985,0.313,0.793,44.616,14.343,1
8.43124,0.137,1.001,0.35,11.169,46.02,15.258,1
8.439144,0.126,1.003,0.375,18.066,47.302,15.747,1
8.446388,0.107,1.001,0.402,23.193,49.072,16.418,1
8.453287,0.104,0.997,0.432,27.465,52.185,17.7,1
8.461648,0.091,0.997,0.443,26.123,54.809,18.249,1
8.468963,0.071,1.02,0.467,18.859,58.776,18.737,1
8.477023,0.04,1.056,0.488,8.117,63.781,19.165,1
8.483387,0.008,1.097,0.511,2.746,67.26,18.737,1
8.49089,0.001,1.124,0.531,1.159,71.472,18.005,1
8.499782,-0.005,1.124,0.546,1.464,75.378,17.089,1
8.508861,-0.057,1.122,0.573,2.136,80.261,15.502,1
8.51507,-0.085,1.082,0.562,-3.845,84.289,14.709,1
8.524357,-0.098,1.035,0.596,-15.502,92.895,14.404,1
8.532796,-0.052,1.038,0.654,-20.263,96.008,13.305,1
8.540097,-0.213,1.05,0.643,-6.103,104.553,14.221,1
8.549056,-0.159,1.023,0.567,-2.319,104.553,12.939,1
8.556349,-0.209,0.998,0.599,-5.798,117.797,12.939,1
8.564756,-0.288,0.995,0.559,-22.888,119.567,11.413,1
8.5726,-0.296,0.995,0.564,-26.367,130.737,11.047,1
8.580293,-0.353,1.002,0.561,-30.09,130.859,9.216,1
8.588051,-0.345,0.98,0.51,-24.475,141.052,8.361,1
8.597891,-0.373,0.977,0.46,-26.245,140.686,6.469,1
8.60502,-0.393,0.964,0.432,-24.169,147.888,5.615,1
8.613293,-0.421,0.954,0.398,-28.198,148.559,3.784,1
8.620487,-0.423,0.962,0.402,-22.583,153.564,2.99,1
8.629359,-0.444,0.941,0.38,-12.817,154.296,1.953,1
8.636533,-0.399,0.918,0.348,-4.699,157.348,1.892,1
8.645667,-0.371,0.898,0.307,-0.061,158.325,1.403,1
8.652808,-0.336,0.878,0.263,8.544,160.522,1.159,1
8.6612,-0.273,0.884,0.251,19.653,160.888,1.159,1
8.667966,-0.188,0.875,0.222,35.583,162.536,1.77,1
8.677131,-0.174,0.865,0.187,49.194,162.109,2.807,1
8.683166,-0.138,0.854,0.161,59.143,163.818,4.699,1
8.690724,-0.139,0.818,0.128,60.729,165.1,6.896,1
8.698039,-0.117,0.791,0.093,58.044,167.663,9.399,1
8.707332,-0.088,0.775,0.067,52.795,169.372,11.596,1
8.715151,-0.054,0.761,0.033,42.663,172.18,13.793,1
8.724559,-0.065,0.753,0.007,26.062,175.17,15.624,1
8.731776,-0.097,0.746,-0.038,8.728,178.283,16.845,1
8.739263,-0.105,0.725,-0.058,-2.38,181.762,17.822,1
8.747557,-0.104,0.718,-0.098,-16.601,184.936,18.615,1
8.755804,-0.094,0.719,-0.117,-27.404,188.171,18.737,1
8.763769,-0.085,0.745,-0.145,-31.494,189.636,19.165,1
8.771571,-0.081,0.773,-0.158,-25.573,190.856,18.92,1
8.779788,-0.053,0.83,-0.192,-14.892,191.284,19.042,1
8.788331,-0.052,0.9,-0.28,-3.845,191.345,18.493,1
8.796619,-0.051,0.933,-0.36,-2.075,190.551,17.639,1
8.805371,-0.019,0.993,-0.396,-2.014,190.673,16.601,1
8.814273,-0.023,0.996,-0.442,-3.173,189.27,15.014,1
8.822129,-0.037,0.985,-0.458,1.281,188.11,13.61,1
8.828855,-0.027,0.996,-0.453,13.854,186.462,12.39,1
8.835867,0.0,1.036,-0.508,24.353,184.326,11.535,1
8.84639,-0.044,1.012,-0.521,29.907,182.495,10.437,1
8.852283,0.598,0.484,-1.066,-15.93,185.363,10.864,1
8.861297,0.297,-0.018,-1.182,-77.148,182.312,14.282,1
8.870314,0.201,0.205,-1.244,-78.186,178.771,18.615,1
8.877074,0.04,0.841,-0.797,-34.24,166.259,19.287,1
8.884793,0.095,1.075,-0.486,63.964,159.606,19.409,1
8.894714,0.105,1.134,-0.294,119.262,151.245,19.592,1
8.90222,0.083,1.212,-0.172,149.78,149.841,20.996,1
8.911352,0.023,1.237,-0.05,157.47,148.193,20.812,1
8.918378,-0.041,1.217,0.044,155.212,151.123,20.935,1
8.927749,-0.122,1.178,0.196,139.343,153.503,20.996,1
8.93534,-0.131,1.126,0.227,116.821,159.423,20.812,1
8.944393,-0.143,1.112,0.284,86.914,166.381,20.385,1
8.951677,-0.128,1.106,0.229,53.588,173.278,19.409,1
8.95983,-0.152,1.13,0.197,28.381,178.894,18.432,1
8.968863,-0.174,1.175,0.127,10.62,183.105,16.296,1
8.976067,-0.208,1.248,0.085,1.22,186.218,14.343,1
8.983795,-0.248,1.295,0.024,0.061,188.232,11.84,1
8.990357,-0.275,1.317,-0.02,-0.305,189.208,9.582,1
8.997811,-0.302,1.319,-0.067,-1.464,190.978,7.69,1
9.006246,-0.313,1.315,-0.125,-3.356,192.016,5.859,1
9.013885,-0.319,1.304,-0.21,-2.136,193.176,3.662,1
9.021579,-0.313,1.313,-0.322,4.15,192.626,2.319,1
9.030208,-0.308,1.273,-0.44,17.761,191.162,1.037,1
9.038644,-0.28,1.261,-0.541,35.461,187.744,0.488,1
9.045507,-0.253,1.317,-0.533,50.781,183.837,0.244,1
9.055161,-0.263,1.364,-0.528,66.467,179.87,0.122,1
9.06271,-0.25,1.408,-0.5,74.523,174.865,-0.183,1
9.070863,-0.231,1.428,-0.458,78.186,172.119,-0.915,1
9.077981,-0.206,1.412,-0.45,77.148,169.006,-1.77,1
9.085639,-0.177,1.386,-0.412,73.852,166.076,-2.075,1
9.095387,-0.158,1.389,-0.366,69.152,162.902,-3.051,1
9.103599,-0.149,1.388,-0.312,66.65,160.583,-3.479,1
9.11066,-0.139,1.359,-0.285,63.598,157.531,-3.723,1
9.120338,-0.121,1.318,-0.267,58.837,154.907,-3.417,1
9.127258,-0.101,1.277,-0.252,50.842,152.954,-3.356,1
9.136726,-0.108,1.255,-0.236,43.823,151.245,-3.967,1
9.143264,-0.134,1.217,-0.238,35.644,149.597,-5.065,1
9.152668,-0.17,1.178,-0.264,28.015,147.521,-5.981,1
9.159869,-0.197,1.147,-0.279,20.202,145.629,-6.591,1
9.168713,-0.211,1.124,-0.315,13.732,142.7,-7.08,1
9.177043,-0.214,1.114,-0.336,11.108,139.221,-7.446,1
9.184324,-0.204,1.106,-0.349,11.657,134.643,-7.629,1
9.192634,-0.185,1.099,-0.351,15.136,129.821,-7.751,1
9.201377,-0.174,1.089,-0.336,17.517,125.793,-7.873,1
9.209764,-0.194,1.088,-0.324,17.517,121.337,-8.3,1
9.218543,-0.183,1.107,-0.303,15.014,117.919,-8.178,1
9.225563,-0.171,1.107,-0.291,9.887,115.051,-8.605,1
9.235128,-0.182,1.097,-0.273,3.112,112.976,-8.85,1
9.242304,-0.221,1.098,-0.26,-6.225,111.511,-9.094,1
9.250121,-0.274,1.106,-0.258,-17.211,109.863,-9.826,1
9.259022,-0.335,1.091,-0.303,-25.695,107.727,-10.498,1
9.268202,-0.358,1.044,-0.368,-30.883,103.881,-10.559,1
9.27516,-0.363,0.993,-0.431,-27.282,98.449,-9.826,1
9.284043,-0.369,0.983,-0.436,-19.042,93.322,-8.85,1
9.290807,-0.347,0.958,-0.416,-8.605,87.341,-7.629,1
9.301761,-0.328,0.947,-0.366,-4.516,82.519,-6.286,1
9.309128,-0.289,0.962,-0.294,-3.173,78.308,-5.065,1
9.317891,-0.245,0.988,-0.235,-1.403,74.462,-4.394,1
9.325456,-0.188,1.0,-0.201,1.525,71.533,-4.516,1
9.334008,-0.143,1.008,-0.184,3.723,68.603,-4.394,1
9.341584,-0.093,1.014,-0.176,3.112,65.429,-4.699,1
9.348963,-0.066,0.992,-0.196,-0.732,63.11,-5.126,1
9.357817,-0.037,0.96,-0.247,-7.141,60.424,-5.859,1
9.366061,-0.004,0.93,-0.3,-12.695,57.373,-6.469,1
9.373806,0.033,0.909,-0.354,-14.526,54.077,-6.591,1
9.382752,0.077,0.894,-0.392,-13.366,49.377,-6.713,1
9.390575,0.135,0.904,-0.412,-10.62,44.921,-6.286,1
9.399726,0.184,0.917,-0.412,-6.713,40.222,-6.042,1
9.407682,0.221,0.953,-0.395,-5.004,36.743,-5.92,1
9.41641,0.256,1.018,-0.346,-5.249,33.569,-6.469,1
9.423485,0.279,1.085,-0.307,-7.751,31.616,-7.507,1
9.431134,0.275,1.154,-0.277,-12.695,29.846,-9.521,1
9.43995,0.267,1.209,-0.253,-17.15,28.442,-11.352,1
9.447504,0.265,1.249,-0.251,-21.484,27.404,-13.732,1
9.456232,0.272,1.257,-0.285,-25.451,26.123,-16.54,1
9.463804,0.293,1.28,-0.309,-28.076,24.902,-19.409,1
9.473098,0.315,1.332,-0.328,-28.503,23.071,-22.338,1
9.480433,0.344,1.365,-0.386,-30.639,21.484,-25.451,1
9.489699,0.381,1.392,-0.437,-33.752,19.531,-28.381,1
9.496925,0.435,1.444,-0.483,-36.804,17.333,-30.944,1
9.50459,0.465,1.503,-0.519,-41.015,14.892,-34.729,1
9.512857,0.498,1.58,-0.536,-45.166,12.695,-38.452,1
9.521712,0.526,1.65,-0.545,-49.621,10.498,-42.114,1
9.528767,0.561,1.732,-0.541,-55.48,8.911,-46.813,1
9.537633,0.589,1.84,-0.526,-62.072,7.507,-51.757,1
9.54457,0.592,1.907,-0.511,-71.35,5.981,-58.227,1
9.553025,0.573,1.924,-0.493,-81.604,4.516,-64.575,1
9.561206,0.571,2.003,-0.443,-89.111,5.187,-70.068,1
9.569825,0.575,2.042,-0.465,-94.177,3.662,-76.599,1
9.577149,0.571,2.062,-0.439,-97.473,3.051,-85.083,1
9.586194,0.609,1.919,-0.478,-103.332,1.892,-91.491,1
9.596901,0.576,1.93,-0.465,-114.318,1.953,-97.961,1
9.604128,0.534,1.911,-0.421,-125.61,1.037,-105.895,1
9.613092,0.588,1.83,-0.414,-125.244,-0.549,-111.877,1
9.621603,0.536,1.808,-0.36,-116.21,-3.112,-117.431,1
9.62935,0.53,1.796,-0.3,-99.243,-5.798,-122.863,1
9.638785,0.524,1.8,-0.208,-76.965,-8.3,-127.502,1
9.646114,0.536,1.757,-0.181,-55.908,-9.643,-131.835,1
9.654876,0.556,1.595,0.0,-26.184,-12.695,-136.596,1
9.662792,0.444,1.555,0.015,-9.46,-10.131,-140.014,1
9.669151,0.489,1.365,0.04,-11.291,-10.62,-143.493,1
9.677556,0.494,1.234,0.076,-16.723,-5.31,-145.446,1
9.687466,0.471,1.099,0.084,-32.47,-3.845,-146.85,1
9.693858,0.449,1.072,0.105,-41.87,-0.244,-147.399,1
9.702272,0.492,1.009,0.104,-49.072,0.549,-148.315,1
9.70902,0.482,1.006,0.101,-51.635,2.99,-148.193,1
9.717857,0.448,1.025,0.114,-52.551,2.746,-148.681,1
9.727015,0.435,1.053,0.128,-48.95,3.845,-149.169,1
9.734621,0.407,1.075,0.147,-41.809,3.845,-149.658,1
9.743989,0.395,1.084,0.147,-32.592,3.967,-150.573,1
9.751012,0.363,1.101,0.164,-21.667,3.479,-151.611,1
9.758816,0.352,1.095,0.166,-11.413,3.479,-152.709,1
9.767008,0.337,1.085,0.186,0.61,3.112,-153.808,1
9.775643,0.361,1.051,0.189,15.136,3.479,-154.602,1
9.786447,0.361,1.02,0.204,22.949,4.455,-155.395,1
9.792367,0.355,1.0,0.205,23.071,6.469,-155.7,1
9.800897,0.34,0.995,0.209,17.395,8.666,-155.883,1
9.807525,0.303,0.987,0.211,12.451,10.681,-156.555,1
9.816132,0.279,0.973,0.222,9.216,12.512,-156.86,1
9.823631,0.229,0.961,0.228,11.108,13.732,-157.409,1
9.831588,0.192,0.943,0.232,17.028,14.892,-157.531,1
9.839332,0.187,0.911,0.238,27.16,16.174,-157.897,1
9.847133,0.18,0.85,0.236,36.315,17.333,-157.958,1
9.85604,0.173,0.791,0.241,44.189,19.042,-157.226,1
9.864438,0.19,0.723,0.244,49.865,20.935,-156.127,1
9.871497,0.221,0.662,0.252,54.077,23.986,-154.846,1
9.880251,0.206,0.608,0.253,54.321,28.076,-152.771,1
9.887454,0.18,0.553,0.244,46.325,32.531,-151.306,1
9.895868,0.155,0.499,0.238,30.456,37.719,-148.437,1
9.903755,0.14,0.471,0.236,19.653,41.564,-146.118,1
9.910696,0.125,0.459,0.242,16.601,45.043,-144.287,1
9.920023,0.11,0.439,0.241,21.667,47.729,-142.028,1
9.927069,0.093,0.404,0.241,31.311,50.537,-139.892,1
9.934162,0.042,0.362,0.213,40.954,55.358,-136.84,1
9.941439,0.029,0.312,0.213,42.358,58.288,-134.216,1
9.94926,0.007,0.261,0.202,41.32,62.316,-131.958,1
9.958989,-0.032,0.205,0.187,31.372,67.565,-128.356,1
9.965968,-0.036,0.158,0.193,19.775,73.425,-124.511,1
9.974859,-0.038,0.121,0.176,9.399,78.552,-120.239,1
9.98214,-0.066,0.088,0.172,5.31,84.167,-115.905,1
9.991371,-0.065,0.048,0.141,2.136,88.256,-111.45,1
9.998639,-0.101,0.031,0.123,-1.464,96.008,-106.567,1
