timestamp_s,ax,ay,az,gx,gy,gz,label
0.0054,-0.595,0.748,-0.151,9.094,-23.681,-6.469,1
0.014065,-0.589,0.743,-0.145,9.643,-23.315,-6.225,1
0.021259,-0.581,0.743,-0.136,10.559,-23.376,-5.859,1
0.02955,-0.575,0.74,-0.125,11.535,-22.827,-5.554,1
0.037803,-0.571,0.736,-0.125,12.207,-22.277,-5.249,1
0.046078,-0.564,0.735,-0.119,12.39,-21.423,-4.882,1
0.054555,-0.565,0.736,-0.112,12.39,-20.69,-4.455,1
0.062657,-0.563,0.736,-0.116,11.962,-20.141,-4.272,1
0.070526,-0.559,0.741,-0.112,11.535,-19.409,-4.028,1
0.077804,-0.562,0.744,-0.108,10.437,-18.859,-3.845,1
0.086213,-0.564,0.738,-0.111,9.46,-17.883,-3.417,1
0.093318,-0.56,0.74,-0.105,9.094,-17.211,-3.295,1
0.101465,-0.562,0.742,-0.104,8.422,-16.601,-3.051,1
0.108197,-0.559,0.739,-0.104,7.934,-15.808,-2.624,1
0.115905,-0.556,0.741,-0.105,6.164,-15.319,-2.197,1
0.124047,-0.555,0.74,-0.106,5.065,-14.465,-1.892,1
0.131631,-0.55,0.748,-0.1,4.882,-13.854,-1.464,1
0.138685,-0.549,0.751,-0.1,5.981,-13.061,-0.976,1
0.146749,-0.555,0.755,-0.101,6.591,-12.817,-0.854,1
0.155139,-0.559,0.762,-0.102,6.835,-11.901,-0.549,1
0.163535,-0.56,0.761,-0.103,6.713,-11.23,-0.244,1
0.172067,-0.565,0.77,-0.099,7.141,-10.437,-0.183,1
0.178973,-0.563,0.764,-0.101,8.178,-9.826,0.305,1
0.186877,-0.553,0.767,-0.098,8.972,-8.972,0.671,1
0.19484,-0.557,0.764,-0.1,9.338,-8.361,0.915,1
0.203583,-0.559,0.764,-0.101,8.605,-7.629,1.037,1
0.210351,-0.553,0.767,-0.107,7.446,-6.774,1.403,1
0.218969,-0.559,0.771,-0.108,5.126,-5.798,1.953,1
0.225141,-0.558,0.78,-0.111,2.441,-4.943,1.831,1
0.234701,-0.549,0.797,-0.109,-0.061,-4.089,2.319,1
0.242057,-0.548,0.81,-0.109,-1.342,-2.807,2.197,1
0.248836,-0.543,0.82,-0.116,-1.22,-1.953,2.075,1
0.257305,-0.528,0.84,-0.115,-0.976,-0.976,1.831,1
0.26429,-0.528,0.854,-0.128,0.427,-0.305,1.708,1
0.272311,-0.533,0.875,-0.139,0.305,0.915,0.915,1
0.279343,-0.547,0.892,-0.154,-1.953,1.647,0.366,1
0.287385,-0.557,0.911,-0.172,-5.249,2.319,-0.366,1
0.295493,-0.55,0.935,-0.189,-7.995,2.685,-1.098,1
0.303376,-0.541,0.968,-0.2,-9.765,2.746,-1.953,1
0.310959,-0.537,0.996,-0.213,-10.986,2.746,-3.051,1
0.317648,-0.515,1.03,-0.223,-11.535,2.38,-3.845,1
0.325763,-0.488,1.062,-0.233,-8.483,2.136,-4.943,1
0.332914,-0.494,1.092,-0.238,-3.356,1.525,-6.286,1
0.341048,-0.494,1.116,-0.247,1.403,1.403,-8.056,1
0.348986,-0.495,1.15,-0.26,4.516,1.22,-9.765,1
0.355511,-0.491,1.181,-0.275,4.76,1.22,-11.779,1
0.363398,-0.487,1.22,-0.301,1.403,1.281,-14.221,1
0.370674,-0.486,1.262,-0.324,-3.967,1.464,-16.723,1
0.379852,-0.473,1.299,-0.339,-9.277,1.342,-19.714,1
0.386576,-0.458,1.349,-0.354,-12.207,1.159,-22.644,1
0.395079,-0.45,1.39,-0.367,-13.549,0.793,-25.695,1
0.401661,-0.439,1.421,-0.378,-14.648,0.427,-29.296,1
0.409476,-0.429,1.448,-0.389,-16.845,-0.061,-32.897,1
0.418367,-0.42,1.468,-0.397,-18.92,0.122,-36.56,1
0.424765,-0.418,1.487,-0.407,-20.385,0.183,-40.161,1
0.433423,-0.412,1.511,-0.422,-19.47,-0.732,-44.433,1
0.441877,-0.413,1.528,-0.438,-16.418,-1.647,-48.095,1
0.449926,-0.408,1.541,-0.449,-12.695,-2.99,-51.879,1
0.457011,-0.412,1.54,-0.461,-9.399,-4.699,-56.457,1
0.465286,-0.411,1.529,-0.468,-7.507,-5.981,-59.875,1
0.474054,-0.403,1.515,-0.467,-6.103,-7.751,-64.147,1
0.482046,-0.402,1.501,-0.451,-1.159,-9.46,-67.26,1
0.490432,-0.391,1.465,-0.438,6.042,-11.169,-70.8,1
0.499066,-0.394,1.425,-0.421,10.925,-12.756,-73.486,1
0.505758,-0.402,1.387,-0.412,12.145,-13.427,-75.927,1
0.514032,-0.416,1.347,-0.394,10.742,-14.038,-78.247,1
0.52101,-0.419,1.312,-0.387,7.202,-14.465,-80.688,1
0.529479,-0.428,1.274,-0.368,2.99,-14.709,-82.519,1
0.538046,-0.426,1.245,-0.36,-2.075,-14.465,-84.045,1
0.544858,-0.432,1.216,-0.357,-8.666,-14.465,-85.388,1
0.553082,-0.447,1.202,-0.347,-14.709,-14.648,-86.486,1
0.561276,-0.447,1.193,-0.342,-18.981,-14.77,-87.951,1
0.569609,-0.434,1.198,-0.345,-19.409,-15.93,-88.745,1
0.578187,-0.457,1.219,-0.338,-16.418,-17.944,-90.087,1
0.58523,-0.48,1.225,-0.331,-11.84,-19.226,-91.247,1
0.593988,-0.485,1.23,-0.336,-8.056,-21.057,-92.834,1
0.602139,-0.491,1.243,-0.333,-5.493,-22.399,-94.543,1
0.6087,-0.493,1.257,-0.338,-4.089,-23.681,-96.374,1
0.616769,-0.489,1.275,-0.346,-2.868,-25.146,-98.083,1
0.625958,-0.478,1.295,-0.351,-2.197,-26.611,-99.67,1
0.633394,-0.478,1.32,-0.358,-0.427,-28.198,-101.745,1
0.64014,-0.469,1.345,-0.373,0.244,-29.418,-103.515,1
0.648694,-0.465,1.377,-0.392,-0.122,-30.761,-105.834,1
0.655818,-0.465,1.402,-0.415,-2.197,-31.677,-107.91,1
0.663661,-0.435,1.448,-0.426,-3.967,-33.325,-109.68,1
0.672543,-0.408,1.504,-0.439,-0.244,-34.79,-111.816,1
0.678902,-0.417,1.561,-0.474,6.896,-36.804,-113.647,1
0.686995,-0.428,1.604,-0.494,11.901,-39.123,-117.187,1
0.69534,-0.413,1.656,-0.525,11.718,-40.832,-119.995,1
0.703629,-0.39,1.702,-0.542,9.948,-42.297,-123.413,1
0.711141,-0.434,1.754,-0.553,9.887,-44.677,-127.685,1
0.71943,-0.42,1.777,-0.558,7.629,-46.752,-131.713,1
0.727895,-0.406,1.779,-0.545,6.774,-48.645,-136.413,1
0.736031,-0.412,1.774,-0.539,3.845,-49.743,-140.625,1
0.74268,-0.407,1.758,-0.52,3.295,-50.964,-144.592,1
0.751623,-0.399,1.729,-0.5,7.263,-52.001,-148.742,1
0.758486,-0.395,1.674,-0.474,13.793,-53.466,-152.526,1
0.766658,-0.382,1.605,-0.449,19.042,-53.649,-156.066,1
0.774393,-0.386,1.539,-0.423,17.395,-53.527,-159.118,1
0.782779,-0.375,1.47,-0.391,10.925,-51.818,-161.621,1
0.791487,-0.369,1.384,-0.352,3.051,-50.415,-164.245,1
0.799771,-0.382,1.301,-0.314,-1.708,-48.706,-165.954,1
0.806908,-0.389,1.188,-0.285,-6.164,-46.691,-167.236,1
0.814727,-0.388,1.062,-0.239,-14.343,-43.884,-167.907,1
0.823653,-0.388,0.953,-0.222,-27.404,-40.771,-168.09,1
0.830406,-0.389,0.856,-0.201,-46.203,-37.353,-167.175,1
0.838434,-0.373,0.762,-0.194,-68.725,-33.813,-165.771,1
0.846778,-0.361,0.7,-0.2,-96.862,-30.822,-163.879,1
0.855568,-0.363,0.632,-0.168,-115.173,-26.794,-161.193,1
0.862444,-0.291,0.558,-0.215,-131.835,-26.916,-157.775,1
0.8706,-0.301,0.535,-0.172,-139.343,-26.489,-154.296,1
0.878976,-0.294,0.506,-0.172,-142.7,-27.038,-151.0,1
0.887444,-0.296,0.478,-0.151,-143.188,-28.93,-147.521,1
0.895639,-0.263,0.433,-0.172,-142.517,-29.663,-142.395,1
0.903155,-0.049,0.263,-0.182,-162.414,-32.897,-140.197,1
0.909987,-0.11,0.214,-0.188,-184.692,-29.479,-134.033,1
0.917087,-0.259,0.203,-0.177,-207.153,-31.005,-129.394,1
0.925244,-0.344,0.195,-0.167,-227.111,-28.991,-124.145,1
0.93364,-0.386,0.191,-0.206,-249.023,-29.235,-118.347,1
0.940755,-0.344,0.207,-0.178,-267.334,-27.709,-110.961,1
0.948732,-0.278,0.252,-0.208,-272.766,-28.625,-104.492,1
0.956745,-0.229,0.292,-0.193,-265.625,-30.7,-100.158,1
0.964573,-0.142,0.308,-0.219,-248.107,-32.714,-95.886,1
0.972923,-0.069,0.341,-0.24,-213.134,-36.01,-91.308,1
0.981272,-0.023,0.347,-0.282,-178.161,-39.123,-87.646,1
0.988218,0.022,0.339,-0.322,-142.944,-41.503,-84.045,1
0.99658,0.04,0.312,-0.345,-113.342,-44.006,-80.2,1
1.003686,0.111,0.308,-0.355,-81.97,-45.959,-76.293,1
1.013064,0.221,0.301,-0.354,-51.696,-49.255,-73.242,1
1.019803,0.345,0.307,-0.341,-14.77,-51.208,-69.946,1
1.027544,0.338,0.301,-0.351,14.709,-53.222,-67.016,1
1.036099,0.298,0.273,-0.402,29.724,-52.368,-64.575,1
1.044146,0.323,0.218,-0.388,17.883,-50.903,-61.523,1
1.050937,0.343,0.2,-0.455,-9.582,-45.532,-57.983,1
1.058778,0.308,0.226,-0.498,-46.752,-44.738,-56.335,1
1.065977,0.303,0.271,-0.56,-77.514,-42.236,-56.518,1
1.074173,0.236,0.316,-0.556,-99.121,-43.945,-57.8,1
1.081097,0.29,0.329,-0.519,-101.989,-42.48,-56.762,1
1.08916,0.316,0.353,-0.515,-94.787,-43.579,-54.504,1
1.097343,0.318,0.375,-0.56,-83.435,-44.738,-52.673,1
1.103802,0.291,0.385,-0.558,-72.265,-47.424,-51.818,1
1.112912,0.235,0.374,-0.564,-62.866,-47.241,-50.415,1
1.119272,0.13,0.353,-0.615,-64.636,-48.583,-48.034,1
1.127608,0.285,0.307,-0.653,-72.692,-49.438,-45.227,1
1.135654,0.508,0.289,-0.65,-79.284,-48.095,-41.992,1
1.142664,0.666,0.314,-0.739,-82.397,-50.659,-38.94,1
1.15118,0.75,0.385,-0.752,-67.321,-55.664,-37.048,1
1.158454,0.807,0.441,-0.781,-37.841,-61.767,-36.743,1
1.166427,0.814,0.469,-0.762,0.0,-66.772,-37.292,1
1.175084,0.835,0.45,-0.784,31.127,-71.533,-38.085,1
1.182566,0.857,0.423,-0.782,47.058,-73.303,-38.635,1
1.189506,0.831,0.417,-0.79,48.278,-73.547,-39.306,1
1.197738,0.827,0.432,-0.775,38.33,-73.181,-40.832,1
1.205645,0.835,0.416,-0.784,21.24,-71.289,-41.503,1
1.212874,0.846,0.401,-0.764,-6.103,-69.274,-42.114,1
1.220602,0.868,0.405,-0.728,-37.292,-66.894,-41.809,1
1.228821,0.902,0.418,-0.686,-64.88,-64.88,-41.076,1
1.237257,0.957,0.458,-0.635,-83.251,-63.476,-40.039,1
1.24446,1.006,0.49,-0.591,-88.5,-63.598,-39.001,1
1.25155,1.003,0.515,-0.563,-81.665,-64.697,-38.635,1
1.259593,0.953,0.533,-0.527,-67.016,-66.772,-38.94,1
1.266626,0.901,0.535,-0.489,-46.691,-69.213,-39.611,1
1.274559,0.856,0.514,-0.458,-29.663,-70.19,-40.1,1
1.283156,0.826,0.514,-0.442,-10.009,-70.373,-41.137,1
1.289882,0.893,0.483,-0.43,-2.868,-69.946,-42.907,1
1.297343,0.84,0.448,-0.402,-9.704,-67.382,-44.494,1
1.304383,0.785,0.437,-0.396,-26.672,-63.903,-45.898,1
1.311847,0.807,0.434,-0.378,-48.645,-60.18,-47.729,1
1.320265,0.782,0.418,-0.319,-68.847,-56.945,-47.485,1
1.328045,0.789,0.406,-0.31,-93.933,-52.734,-47.18,1
1.336539,0.87,0.42,-0.285,-113.708,-48.95,-47.485,1
1.343402,0.934,0.393,-0.236,-127.441,-46.63,-47.18,1
1.351499,0.963,0.441,-0.193,-132.324,-41.687,-47.912,1
1.35861,0.93,0.553,-0.162,-129.577,-39.855,-50.231,1
1.366457,0.9,0.593,-0.152,-117.309,-36.987,-53.405,1
1.374641,0.876,0.682,-0.134,-92.041,-35.827,-58.959,1
1.38279,0.893,0.65,-0.153,-65.246,-36.376,-63.659,1
1.391956,0.902,0.603,-0.147,-47.18,-34.912,-66.589,1
1.400265,0.983,0.517,-0.181,-49.072,-32.836,-69.58,1
1.407387,1.011,0.478,-0.177,-63.842,-29.235,-71.35,1
1.414509,1.009,0.467,-0.181,-79.406,-26.489,-73.303,1
1.421519,0.974,0.466,-0.171,-89.05,-23.864,-74.707,1
1.429626,0.956,0.469,-0.198,-94.116,-21.423,-75.988,1
1.438043,0.869,0.502,-0.236,-98.144,-20.019,-77.819,1
1.446142,0.829,0.507,-0.257,-99.792,-19.165,-79.284,1
1.453198,0.873,0.556,-0.32,-98.083,-17.211,-81.237,1
1.461097,0.919,0.608,-0.393,-98.571,-17.517,-84.289,1
1.469399,0.928,0.624,-0.469,-107.238,-17.639,-87.219,1
1.476546,0.814,0.637,-0.541,-123.596,-17.395,-90.576,1
1.484763,0.766,0.651,-0.633,-146.423,-16.296,-94.726,1
1.491391,0.756,0.681,-0.715,-171.081,-15.93,-99.792,1
1.499367,0.736,0.741,-0.794,-188.781,-16.113,-104.37,1
1.50815,0.699,0.785,-0.864,-194.519,-19.958,-110.778,1
1.514849,0.664,0.775,-0.914,-195.434,-23.742,-115.783,1
1.522462,0.634,0.745,-0.965,-197.875,-29.052,-120.849,1
1.530767,0.603,0.717,-0.975,-199.89,-35.644,-124.633,1
1.539111,0.567,0.666,-0.977,-199.645,-42.907,-127.807,1
1.54716,0.466,0.635,-0.933,-194.091,-52.612,-130.554,1
1.554598,0.407,0.563,-0.916,-186.889,-60.668,-132.202,1
1.562717,0.308,0.498,-0.908,-183.105,-70.251,-133.361,1
1.571983,0.182,0.42,-0.878,-179.504,-80.139,-133.789,1
1.578086,0.06,0.351,-0.858,-175.842,-89.721,-134.338,1
1.58618,-0.064,0.268,-0.815,-172.729,-99.243,-134.521,1
1.594336,-0.223,0.205,-0.772,-165.222,-108.459,-134.826,1
1.602491,-0.436,0.119,-0.698,-152.282,-120.178,-134.704,1
1.60927,-0.597,0.03,-0.65,-143.005,-128.723,-134.582,1
1.619073,-0.739,-0.052,-0.6,-139.282,-138.061,-134.948,1
1.626042,-0.924,-0.172,-0.504,-138.916,-146.362,-134.887,1
1.634445,-1.109,-0.312,-0.448,-147.888,-154.541,-133.117,1
1.642559,-1.205,-0.472,-0.389,-164.611,-160.644,-129.455,1
1.650361,-1.261,-0.573,-0.298,-176.574,-167.053,-124.633,1
1.659144,-1.366,-0.677,-0.226,-170.288,-176.086,-116.577,1
1.666874,-1.447,-0.787,-0.145,-140.991,-183.41,-106.872,1
1.674051,-1.261,-0.981,-0.168,-109.069,-191.711,-97.229,1
1.682095,-1.289,-1.147,-0.117,-82.458,-201.416,-84.838,1
1.689214,-1.355,-1.307,-0.088,-73.547,-205.566,-72.509,1
1.697278,-1.406,-1.446,-0.069,-76.049,-210.876,-59.814,1
1.705494,-1.457,-1.567,-0.036,-80.627,-215.637,-46.081,1
1.713542,-1.582,-1.68,0.016,-79.101,-220.214,-31.066,1
1.720378,-1.6,-1.835,-0.009,-71.899,-225.28,-14.587,1
1.728333,-1.652,-1.999,-0.008,-57.373,-233.825,5.126,1
1.737428,-1.782,-2.127,-0.01,-42.541,-240.356,23.925,1
1.745257,-1.925,-2.312,0.007,-39.733,-246.459,43.579,1
1.753653,-2.061,-2.497,0.036,-49.316,-251.586,68.725,1
1.761152,-2.188,-2.732,0.062,-85.021,-253.234,94.543,1
1.767838,-2.263,-2.934,0.098,-151.855,-251.342,123.046,1
1.775979,-2.491,-3.025,0.181,-211.059,-248.352,156.25,1
1.783808,-2.72,-3.103,0.259,-245.91,-245.239,193.298,1
1.790198,-3.005,-3.212,0.386,-256.408,-243.286,232.971,1
1.799743,-3.247,-3.286,0.519,-250.549,-240.783,275.573,1
1.806485,-3.61,-3.306,0.666,-224.304,-238.403,318.054,1
1.814398,-4.217,-3.341,0.814,-210.571,-231.262,361.45,1
1.822989,-4.887,-3.264,0.948,-198.547,-226.44,404.174,1
1.82963,-5.558,-3.213,1.113,-204.04,-210.449,454.772,1
1.839264,-6.291,-3.049,1.2,-225.952,-194.885,498.107,1
1.846185,-7.002,-2.802,1.376,-232.299,-175.231,540.832,1
1.853087,-7.86,-2.6,1.496,-235.961,-148.071,590.271,1
1.861143,-8.631,-2.386,1.572,-251.22,-120.422,632.69,1
1.868323,-9.479,-2.116,1.675,-263.671,-89.355,674.011,1
1.875998,-10.367,-1.831,1.748,-275.207,-53.344,713.928,1
1.884179,-11.302,-1.525,1.777,-290.161,-14.526,752.868,1
1.892625,-12.273,-1.21,1.807,-308.776,29.602,790.1,1
1.90136,-13.194,-0.833,1.846,-322.998,77.27,824.768,1
1.908173,-14.408,-0.373,1.93,-331.359,128.845,856.14,1
1.91601,-15.457,0.013,1.977,-339.477,194.58,888.305,1
1.92324,-15.999,0.371,2.005,-350.891,255.065,912.109,1
1.93159,-15.999,0.757,1.967,-361.022,320.19,931.274,1
1.937659,-15.999,1.162,1.891,-360.351,370.971,941.894,1
1.946284,-15.999,1.546,1.88,-343.322,434.326,950.805,1
1.954156,-15.999,1.901,1.712,-333.984,496.643,955.2,1
1.961236,-15.999,2.26,1.582,-342.712,571.838,952.941,1
1.968314,-15.999,2.584,1.373,-366.516,635.742,945.434,1
1.976758,-15.999,2.909,1.263,-407.165,706.848,929.443,1
1.983787,-15.999,3.213,1.085,-442.443,781.738,904.296,1
1.99089,-15.999,3.392,0.796,-485.473,861.022,870.849,1
1.999119,-15.999,3.614,0.42,-559.082,942.382,825.195,1
2.006266,-15.999,3.862,-0.034,-647.094,1023.864,765.319,1
2.014546,-15.999,3.833,-0.668,-758.972,1099.67,679.26,1
2.022774,-15.999,3.827,-1.382,-901.367,1175.659,566.345,1
2.031528,-15.999,3.687,-2.462,-1044.006,1237.426,399.78,1
2.038257,-15.999,3.356,-3.207,-1211.181,1263.794,228.088,1
2.046972,-15.999,2.763,-3.618,-1347.595,1265.502,36.437,1
2.054138,-15.999,2.354,-3.685,-1389.831,1221.679,-159.973,1
2.062465,-15.999,1.93,-3.436,-1281.555,1138.0,-335.144,1
2.070772,-15.999,1.374,-2.893,-1080.261,1030.517,-467.468,1
2.079529,-15.999,0.913,-2.686,-791.442,901.672,-566.772,1
2.085891,-15.999,0.17,-2.875,-602.539,801.147,-612.243,1
2.095383,-15.999,-0.341,-3.077,-502.685,697.448,-638.549,1
2.101703,-14.877,-0.683,-3.097,-438.11,614.379,-651.184,1
2.109976,-13.435,-1.167,-3.123,-383.422,542.663,-653.991,1
2.11872,-11.759,-1.841,-3.095,-408.63,469.116,-647.338,1
2.125813,-10.528,-2.143,-2.965,-465.515,411.804,-636.657,1
2.135553,-9.155,-2.248,-2.677,-485.9,347.778,-624.206,1
2.142646,-8.152,-2.323,-2.398,-465.209,279.968,-603.82,1
2.151247,-7.207,-2.403,-2.284,-439.819,223.388,-579.101,1
2.158348,-6.225,-2.366,-2.053,-389.404,167.541,-549.865,1
2.167185,-5.546,-2.262,-1.928,-297.424,110.9,-513.793,1
2.174054,-4.831,-2.163,-1.842,-227.478,67.443,-483.398,1
2.182665,-4.096,-2.046,-1.511,-178.466,38.085,-453.613,1
2.191339,-3.641,-2.001,-1.566,-156.372,5.676,-419.189,1
2.200095,-3.217,-1.814,-1.3,-156.127,-15.93,-391.296,1
2.208503,-3.055,-1.626,-1.206,-153.869,-36.376,-360.534,1
2.216505,-2.807,-1.455,-1.018,-148.193,-54.931,-331.787,1
2.223658,-2.677,-1.285,-0.916,-138.183,-66.345,-308.776,1
2.232058,-2.645,-1.158,-0.842,-126.77,-79.711,-287.17,1
2.239194,-2.593,-1.052,-0.773,-110.595,-91.003,-264.16,1
2.247229,-2.53,-0.976,-0.708,-93.2,-100.646,-245.971,1
2.254167,-2.437,-0.917,-0.636,-69.396,-108.398,-229.125,1
2.262611,-2.306,-0.87,-0.569,-41.137,-115.234,-214.355,1
2.271637,-2.115,-0.851,-0.504,-13.549,-119.506,-200.439,1
2.279916,-1.89,-0.819,-0.446,11.84,-121.582,-186.279,1
2.287108,-1.725,-0.776,-0.402,26.428,-121.215,-175.476,1
2.295036,-1.487,-0.797,-0.367,31.372,-119.201,-165.893,1
2.303319,-1.302,-0.777,-0.338,23.193,-115.478,-154.541,1
2.310231,-1.148,-0.76,-0.316,1.892,-111.755,-145.324,1
2.31813,-1.0,-0.711,-0.29,-24.78,-106.506,-135.986,1
2.326819,-0.882,-0.636,-0.276,-51.208,-102.294,-127.014,1
2.335658,-0.77,-0.533,-0.259,-77.026,-97.351,-117.309,1
2.342105,-0.689,-0.466,-0.247,-93.078,-94.299,-109.558,1
2.350462,-0.625,-0.41,-0.242,-100.341,-92.163,-101.623,1
2.359195,-0.568,-0.383,-0.226,-92.407,-91.064,-92.285,1
2.367338,-0.456,-0.368,-0.211,-70.8,-90.881,-84.655,1
2.375632,-0.316,-0.352,-0.196,-31.127,-91.979,-76.721,1
2.384069,-0.225,-0.361,-0.183,1.586,-91.308,-71.289,1
2.391019,-0.102,-0.369,-0.177,28.015,-90.087,-67.016,1
2.399058,-0.044,-0.389,-0.179,42.602,-86.608,-62.622,1
2.407042,0.02,-0.416,-0.194,38.757,-81.298,-58.593,1
2.41403,0.097,-0.44,-0.208,18.188,-74.829,-54.687,1
2.421985,0.198,-0.463,-0.229,-14.648,-68.176,-50.781,1
2.429761,0.27,-0.455,-0.25,-60.546,-60.241,-45.898,1
2.438142,0.325,-0.449,-0.264,-93.811,-55.419,-42.968,1
2.446411,0.324,-0.387,-0.253,-131.774,-49.194,-38.818,1
2.456233,0.374,-0.378,-0.269,-148.132,-46.264,-34.423,1
2.462952,0.433,-0.374,-0.24,-143.005,-44.555,-29.418,1
2.471581,0.517,-0.373,-0.23,-113.281,-45.471,-24.719,1
2.478148,0.558,-0.371,-0.194,-75.134,-46.508,-21.545,1
2.486732,0.604,-0.384,-0.189,-36.865,-47.485,-18.554,1
2.493454,0.579,-0.401,-0.162,-5.554,-46.813,-15.991,1
2.500592,0.665,-0.442,-0.169,13.427,-45.166,-13.427,1
2.508872,0.713,-0.492,-0.175,13.732,-41.931,-11.047,1
2.515917,0.755,-0.52,-0.183,1.647,-37.17,-8.239,1
2.52374,0.778,-0.535,-0.176,-16.235,-31.921,-5.371,1
2.532777,0.802,-0.564,-0.194,-43.395,-26.0,-2.441,1
2.540726,0.833,-0.577,-0.207,-77.453,-19.042,1.159,1
2.548638,0.847,-0.571,-0.227,-102.966,-15.197,4.15,1
2.556928,0.831,-0.546,-0.207,-116.76,-11.352,7.751,1
2.565529,0.852,-0.533,-0.209,-115.234,-9.582,10.559,1
2.574178,0.844,-0.52,-0.196,-102.233,-8.178,13.061,1
2.580855,0.865,-0.531,-0.201,-89.721,-7.934,15.869,1
2.589196,0.891,-0.533,-0.198,-75.561,-6.835,18.859,1
2.597034,0.901,-0.514,-0.212,-61.706,-6.591,20.996,1
2.605911,0.91,-0.492,-0.196,-45.471,-5.371,23.315,1
2.61447,0.918,-0.499,-0.224,-39.55,-3.723,25.512,1
2.621579,0.894,-0.488,-0.231,-41.381,-1.22,28.076,1
2.629143,0.879,-0.483,-0.268,-49.682,1.403,29.907,1
2.637965,0.839,-0.458,-0.279,-61.218,3.967,32.104,1
2.644155,0.833,-0.446,-0.288,-70.8,7.019,33.569,1
2.6529,0.827,-0.441,-0.317,-83.129,9.338,35.217,1
2.661206,0.835,-0.45,-0.31,-90.881,12.695,37.963,1
2.667913,0.85,-0.422,-0.307,-91.064,12.451,40.039,1
2.675432,0.84,-0.403,-0.289,-83.251,13.977,42.297,1
2.684187,0.863,-0.403,-0.295,-69.58,13.122,44.738,1
2.690555,0.827,-0.345,-0.281,-45.104,12.451,46.752,1
2.69903,0.887,-0.373,-0.313,-26.184,10.559,48.461,1
2.70724,0.875,-0.401,-0.319,-22.094,11.291,50.415,1
2.716,0.873,-0.431,-0.363,-31.494,11.901,52.368,1
2.722719,0.879,-0.444,-0.35,-49.926,14.16,54.687,1
2.731061,0.883,-0.428,-0.353,-63.415,16.357,56.945,1
2.739409,0.854,-0.391,-0.339,-67.382,18.432,59.814,1
2.746527,0.834,-0.356,-0.356,-63.903,18.981,61.767,1
2.755112,0.825,-0.351,-0.358,-58.959,19.409,63.781,1
2.763936,0.805,-0.337,-0.38,-57.434,19.531,65.917,1
2.770983,0.779,-0.318,-0.383,-59.387,19.531,67.504,1
2.779843,0.766,-0.312,-0.389,-63.232,19.653,68.542,1
2.788489,0.761,-0.286,-0.382,-68.176,19.897,69.946,1
2.795417,0.756,-0.268,-0.378,-71.411,20.385,70.861,1
2.802612,0.753,-0.257,-0.366,-72.814,20.874,72.143,1
2.810472,0.751,-0.252,-0.363,-72.204,21.789,73.486,1
2.817975,0.75,-0.242,-0.361,-71.105,22.216,74.523,1
2.826331,0.743,-0.238,-0.361,-69.824,23.254,75.622,1
2.833138,0.753,-0.238,-0.361,-68.725,23.864,77.026,1
2.841469,0.765,-0.244,-0.36,-66.894,24.78,78.613,1
2.849456,0.781,-0.247,-0.372,-65.917,25.756,80.688,1
2.856288,0.809,-0.243,-0.375,-62.255,26.0,82.763,1
2.864631,0.822,-0.23,-0.39,-57.189,26.123,84.716,1
2.871503,0.826,-0.22,-0.407,-52.856,26.0,86.486,1
2.879359,0.83,-0.21,-0.42,-50.292,25.512,88.378,1
2.886562,0.834,-0.191,-0.428,-49.987,25.451,89.721,1
2.893186,0.834,-0.182,-0.439,-51.574,25.39,91.247,1
2.901903,0.818,-0.165,-0.438,-54.321,24.78,92.773,1
2.908536,0.799,-0.148,-0.428,-55.969,24.841,94.238,1
2.91553,0.771,-0.137,-0.42,-57.861,24.841,95.642,1
2.923888,0.732,-0.119,-0.404,-59.02,25.451,96.862,1
2.932026,0.708,-0.125,-0.404,-60.791,26.184,98.083,1
2.940401,0.715,-0.113,-0.425,-61.706,27.893,99.487,1
2.94718,0.739,-0.108,-0.441,-63.354,28.625,101.135,1
2.954243,0.779,-0.094,-0.482,-63.781,30.334,102.6,1
2.964148,0.775,-0.061,-0.515,-65.063,30.09,103.881,1
2.971236,0.762,-0.026,-0.543,-63.049,30.639,104.675,1
2.978185,0.75,0.009,-0.578,-58.959,28.991,105.102,1
2.986618,0.735,0.042,-0.589,-51.635,27.77,105.773,1
2.99341,0.728,0.078,-0.607,-41.687,25.146,106.811,1
3.001662,0.718,0.101,-0.595,-34.24,23.62,107.055,1
3.009917,0.705,0.119,-0.599,-29.418,22.399,107.421,1
3.016922,0.757,0.146,-0.587,-25.39,21.972,108.276,1
3.023764,0.772,0.165,-0.598,-24.658,21.728,109.069,1
3.032737,0.779,0.207,-0.604,-27.465,22.46,109.374,1
3.039225,0.767,0.257,-0.638,-33.569,22.705,109.558,1
3.047648,0.734,0.325,-0.665,-40.039,22.827,109.069,1
3.054661,0.683,0.363,-0.705,-48.095,22.338,108.154,1
3.063457,0.668,0.454,-0.714,-55.603,21.728,106.75,1
3.070451,0.67,0.478,-0.746,-64.514,18.92,105.957,1
3.079219,0.697,0.51,-0.77,-63.72,18.066,103.271,1
3.086235,0.709,0.614,-0.75,-57.8,16.052,101.013,1
3.09337,0.729,0.594,-0.802,-47.424,11.474,98.449,1
3.100294,0.747,0.638,-0.781,-40.039,10.559,97.167,1
3.108721,0.791,0.633,-0.852,-34.362,5.798,94.36,1
3.117014,0.751,0.614,-0.832,-34.118,3.784,91.674,1
3.123429,0.759,0.614,-0.867,-41.381,1.647,89.599,1
3.131623,0.758,0.623,-0.871,-49.743,-0.671,87.402,1
3.139585,0.758,0.633,-0.864,-60.546,-1.098,84.655,1
3.14785,0.753,0.647,-0.867,-67.871,-3.173,81.909,1
3.15455,0.75,0.652,-0.85,-70.251,-5.004,79.284,1
3.16243,0.758,0.643,-0.837,-67.565,-7.202,76.66,1
3.169497,0.759,0.632,-0.819,-60.546,-8.911,74.035,1
3.178287,0.775,0.621,-0.814,-48.156,-12.023,71.716,1
3.184874,0.778,0.602,-0.802,-36.56,-13.916,69.885,1
3.193106,0.788,0.587,-0.785,-29.724,-16.601,67.504,1
3.201711,0.784,0.569,-0.76,-26.306,-18.615,65.673,1
3.208326,0.787,0.559,-0.751,-26.977,-19.897,63.537,1
3.216276,0.772,0.541,-0.729,-29.602,-20.69,62.072,1
3.225102,0.782,0.535,-0.72,-32.714,-22.155,60.668,1
3.231877,0.766,0.523,-0.701,-36.376,-22.949,59.326,1
3.240579,0.728,0.487,-0.698,-45.227,-23.864,57.861,1
3.247313,0.79,0.463,-0.656,-52.551,-24.353,56.884,1
3.254321,0.759,0.445,-0.648,-54.809,-24.414,56.64,1
3.261875,0.729,0.415,-0.612,-57.8,-26.245,55.786,1
3.26884,0.738,0.391,-0.567,-54.016,-25.573,55.664,1
3.277274,0.737,0.381,-0.578,-51.94,-25.268,55.786,1
3.283959,0.761,0.39,-0.553,-50.109,-25.756,55.664,1
3.292287,0.782,0.393,-0.53,-47.546,-24.658,55.786,1
3.298958,0.781,0.413,-0.517,-45.715,-25.024,55.603,1
3.307444,0.782,0.426,-0.486,-44.067,-25.207,55.603,1
3.313938,0.788,0.433,-0.483,-43.518,-24.719,55.541,1
3.321068,0.795,0.439,-0.456,-42.907,-24.536,55.175,1
3.328824,0.787,0.443,-0.427,-42.419,-24.291,54.687,1
3.337345,0.801,0.443,-0.396,-41.748,-24.23,54.565,1
3.345649,0.81,0.443,-0.383,-39.245,-23.62,54.26,1
3.352745,0.846,0.459,-0.38,-36.132,-23.437,53.894,1
3.361175,0.875,0.472,-0.374,-32.348,-23.193,53.466,1
3.368308,0.877,0.481,-0.36,-27.16,-23.071,52.978,1
3.376608,0.876,0.494,-0.352,-22.949,-22.888,52.551,1
3.383236,0.869,0.502,-0.347,-19.165,-22.705,52.062,1
3.391552,0.843,0.512,-0.346,-17.7,-22.521,51.086,1
3.399404,0.82,0.515,-0.352,-19.042,-22.094,50.354,1
3.405985,0.824,0.515,-0.362,-22.705,-21.423,49.438,1
3.414147,0.847,0.519,-0.365,-26.916,-20.446,48.461,1
3.420829,0.854,0.532,-0.386,-31.799,-19.592,47.241,1
3.428987,0.846,0.539,-0.399,-35.766,-18.859,46.02,1
3.436543,0.829,0.541,-0.4,-36.132,-18.249,44.555,1
3.444588,0.755,0.542,-0.421,-36.987,-17.211,42.907,1
3.45317,0.786,0.538,-0.407,-37.475,-16.784,41.076,1
3.461906,0.813,0.549,-0.388,-33.691,-15.502,39.611,1
3.468636,0.832,0.565,-0.408,-27.648,-15.747,37.963,1
3.476414,0.847,0.577,-0.401,-16.723,-15.93,36.193,1
3.484678,0.872,0.595,-0.414,-8.056,-16.357,34.79,1
3.491256,0.891,0.604,-0.414,2.136,-17.517,33.386,1
3.49941,0.93,0.618,-0.427,15.075,-18.554,31.921,1
3.508206,0.937,0.621,-0.436,23.193,-19.897,30.395,1
3.51524,0.909,0.612,-0.458,26.062,-20.507,28.808,1
3.522851,0.903,0.596,-0.472,21.606,-21.057,27.038,1
3.529485,0.902,0.58,-0.468,13.977,-20.385,25.695,1
3.537694,0.892,0.564,-0.469,5.432,-19.775,24.658,1
3.54468,0.877,0.557,-0.459,-6.164,-19.287,22.949,1
3.552561,0.876,0.538,-0.451,-14.831,-18.493,21.606,1
3.561305,0.857,0.522,-0.442,-21.24,-18.127,20.446,1
3.567828,0.852,0.511,-0.439,-24.658,-17.272,19.287,1
3.576586,0.842,0.509,-0.441,-24.658,-16.967,18.31,1
3.583631,0.84,0.502,-0.445,-22.583,-17.211,17.456,1
3.592482,0.846,0.492,-0.451,-18.981,-17.395,16.784,1
3.600946,0.84,0.489,-0.458,-14.892,-17.089,16.235,1
3.607953,0.821,0.474,-0.462,-11.657,-17.15,15.258,1
3.615981,0.831,0.471,-0.475,-9.094,-16.845,14.465,1
3.622557,0.807,0.448,-0.478,-6.774,-16.845,13.854,1
3.631224,0.825,0.434,-0.484,-5.065,-16.723,13.488,1
3.638233,0.836,0.422,-0.484,-6.042,-16.662,13.61,1
3.647405,0.834,0.412,-0.489,-7.995,-16.418,13.61,1
3.65402,0.83,0.404,-0.497,-11.291,-16.662,13.854,1
3.663242,0.823,0.391,-0.494,-16.723,-16.174,14.16,1
3.669715,0.809,0.378,-0.501,-24.353,-15.808,14.587,1
3.678122,0.798,0.376,-0.509,-31.86,-14.831,15.014,1
3.687104,0.783,0.367,-0.531,-39.55,-13.916,16.235,1
3.693793,0.748,0.31,-0.557,-52.49,-12.878,18.554,1
3.700742,0.802,0.346,-0.581,-67.077,-10.253,20.202,1
3.70808,0.838,0.386,-0.611,-77.331,-10.62,20.141,1
3.716025,0.822,0.404,-0.605,-76.965,-9.765,20.446,1
3.724785,0.813,0.411,-0.618,-70.983,-10.375,20.751,1
3.731269,0.807,0.411,-0.626,-61.096,-10.986,21.789,1
3.740129,0.815,0.416,-0.639,-50.292,-11.535,22.521,1
3.746792,0.821,0.43,-0.649,-37.902,-12.512,22.949,1
3.755139,0.802,0.438,-0.662,-26.184,-13.854,22.949,1
3.762688,0.803,0.491,-0.67,-14.282,-14.77,22.521,1
3.769271,0.779,0.486,-0.685,-4.028,-15.93,21.972,1
3.777995,0.715,0.495,-0.704,-1.403,-15.869,22.216,1
3.786461,0.707,0.512,-0.748,-5.981,-16.784,21.911,1
3.793393,0.714,0.532,-0.771,-16.601,-17.15,21.362,1
3.80068,0.719,0.559,-0.782,-27.099,-17.7,20.263,1
3.808244,0.735,0.568,-0.779,-37.292,-17.822,19.409,1
3.816776,0.687,0.599,-0.782,-48.156,-17.15,19.042,1
3.823932,0.7,0.622,-0.818,-57.495,-18.798,17.7,1
3.832756,0.733,0.633,-0.812,-59.02,-19.958,16.723,1
3.841029,0.778,0.647,-0.811,-53.955,-21.972,15.624,1
3.848141,0.8,0.65,-0.821,-49.743,-23.437,14.099,1
3.856347,0.792,0.623,-0.825,-50.964,-24.902,12.878,1
3.86314,0.813,0.601,-0.829,-59.509,-25.634,12.084,1
3.871456,0.829,0.608,-0.83,-66.65,-26.245,11.352,1
3.879892,0.826,0.634,-0.844,-72.631,-27.16,10.742,1
3.886923,0.832,0.682,-0.86,-69.396,-29.418,10.192,1
3.894002,0.884,0.705,-0.873,-60.729,-32.592,10.07,1
3.901866,0.979,0.715,-0.858,-58.227,-36.926,9.338,1
3.910691,0.972,0.729,-0.822,-62.133,-37.78,9.033,1
3.91781,0.941,0.741,-0.815,-70.8,-39.611,8.178,1
3.924835,0.933,0.737,-0.777,-79.284,-41.381,7.263,1
3.932548,0.914,0.713,-0.761,-86.425,-42.968,6.286,1
3.940179,0.918,0.693,-0.729,-90.332,-44.86,5.187,1
3.947381,0.892,0.676,-0.695,-93.261,-46.142,4.577,1
3.955431,0.91,0.636,-0.662,-91.796,-49.499,3.417,1
3.96244,0.897,0.589,-0.599,-88.256,-49.865,3.112,1
3.970771,0.895,0.553,-0.599,-87.585,-51.574,2.929,1
3.979555,0.853,0.529,-0.551,-86.608,-53.222,2.685,1
3.986479,0.826,0.525,-0.52,-78.796,-54.382,2.319,1
3.994868,0.805,0.519,-0.498,-67.138,-55.908,1.586,1
4.002027,0.806,0.502,-0.487,-56.823,-57.006,0.915,1
4.01065,0.967,0.501,-0.484,-52.001,-57.922,0.976,1
4.01941,1.046,0.518,-0.48,-53.283,-57.861,-0.183,1
4.025747,0.85,0.478,-0.491,-64.758,-58.288,-1.464,1
4.034411,0.87,0.464,-0.456,-79.101,-58.044,-1.953,1
4.042109,0.888,0.468,-0.452,-85.754,-57.128,-2.807,1
4.048615,0.865,0.473,-0.434,-88.134,-58.349,-3.479,1
4.057316,0.874,0.475,-0.436,-86.791,-57.495,-3.601,1
4.066006,0.845,0.485,-0.452,-89.477,-58.41,-4.516,1
4.073069,0.802,0.481,-0.452,-96.801,-57.189,-5.31,1
4.081468,0.771,0.481,-0.476,-106.75,-56.274,-6.347,1
4.090052,0.669,0.496,-0.475,-120.239,-53.588,-7.812,1
4.096615,0.541,0.513,-0.5,-125.793,-52.307,-9.46,1
4.105324,0.45,0.56,-0.48,-120.544,-49.621,-11.901,1
4.114383,0.648,0.516,-0.491,-107.482,-47.607,-15.38,1
4.121074,0.791,0.467,-0.464,-93.566,-43.151,-17.822,1
4.129704,0.917,0.443,-0.495,-89.477,-40.832,-19.165,1
4.136286,1.012,0.333,-0.449,-94.36,-38.391,-19.653,1
4.144484,1.047,0.256,-0.422,-104.125,-34.362,-18.31,1
4.151679,1.015,0.254,-0.347,-117.065,-31.311,-17.211,1
4.159599,0.988,0.266,-0.327,-128.662,-25.878,-14.526,1
4.167663,0.962,0.315,-0.304,-133.361,-22.094,-13.916,1
4.174047,0.97,0.355,-0.306,-132.385,-19.897,-13.671,1
4.18123,0.979,0.379,-0.286,-124.267,-19.592,-13.305,1
4.189102,0.951,0.335,-0.263,-109.802,-19.042,-12.084,1
4.197327,0.825,0.408,-0.237,-87.219,-18.859,-11.291,1
4.2054,0.761,0.409,-0.235,-53.955,-18.676,-12.084,1
4.214365,0.822,0.356,-0.194,-22.216,-19.653,-12.817,1
4.220863,0.827,0.291,-0.18,1.708,-18.005,-12.817,1
4.227962,0.788,0.233,-0.152,15.258,-16.54,-13.183,1
4.23652,0.759,0.183,-0.14,19.775,-14.221,-12.756,1
4.245267,0.74,0.159,-0.118,16.235,-12.084,-12.695,1
4.252302,0.724,0.154,-0.096,5.676,-8.239,-12.512,1
4.25914,0.701,0.164,-0.072,-4.638,-4.76,-12.512,1
4.269148,0.665,0.155,-0.053,-14.343,-0.793,-12.207,1
4.275784,0.677,0.128,-0.036,-30.639,3.784,-12.145,1
4.283674,0.707,0.092,-0.035,-50.842,9.033,-11.535,1
4.290794,0.793,0.05,-0.035,-73.669,12.695,-11.108,1
4.297554,0.883,0.019,-0.063,-109.374,19.653,-10.253,1
4.306017,1.062,-0.025,-0.108,-158.813,23.742,-9.582,1
4.312571,1.017,-0.014,-0.094,-203.491,29.602,-8.361,1
4.321309,0.964,0.011,-0.101,-237.182,32.653,-6.835,1
4.328127,1.052,0.016,-0.088,-260.437,36.376,-5.187,1
4.335174,1.082,0.04,-0.102,-273.986,38.391,-3.967,1
4.343359,1.122,0.078,-0.068,-270.507,40.344,-2.563,1
4.350548,1.039,0.14,-0.082,-252.563,41.442,-1.647,1
4.359011,0.871,0.212,-0.062,-218.566,42.541,-1.647,1
4.365704,0.63,0.252,-0.173,-172.241,40.649,-1.464,1
4.372969,0.284,0.207,-0.3,-122.497,36.315,0.122,1
4.380049,0.365,0.079,-0.557,-96.74,33.02,3.356,1
4.388062,0.859,0.014,-0.652,-112.243,27.404,4.821,1
4.396496,1.112,-0.003,-0.64,-156.311,29.602,5.981,1
4.404446,1.194,0.071,-0.636,-200.622,28.686,7.08,1
4.41111,1.272,0.175,-0.673,-213.073,29.235,7.385,1
4.41831,1.368,0.243,-0.708,-196.533,17.761,5.065,1
4.425378,1.228,0.248,-0.625,-153.503,14.953,4.333,1
4.433761,1.109,0.249,-0.713,-121.887,8.728,3.845,1
4.442123,1.007,0.235,-0.736,-95.52,2.502,2.746,1
4.450284,0.92,0.242,-0.799,-84.411,-2.868,1.464,1
4.458477,0.867,0.294,-0.818,-82.336,-6.164,-0.122,1
4.465102,0.865,0.365,-0.839,-78.43,-10.498,-3.601,1
4.473572,0.844,0.419,-0.841,-75.134,-13.183,-6.958,1
4.481915,0.879,0.452,-0.872,-77.087,-15.747,-11.108,1
4.490322,0.882,0.5,-0.896,-86.242,-18.188,-16.235,1
4.498079,0.857,0.517,-0.937,-101.623,-20.507,-22.155,1
4.506622,0.847,0.535,-0.978,-113.159,-23.681,-27.16,1
4.513136,0.847,0.539,-1.057,-122.07,-27.954,-32.958,1
4.521358,0.861,0.533,-1.139,-129.211,-33.996,-37.658,1
4.52949,0.862,0.527,-1.191,-137.39,-40.283,-41.748,1
4.535794,0.867,0.533,-1.209,-144.348,-47.851,-45.593,1
4.544162,0.858,0.541,-1.191,-144.042,-55.419,-49.499,1
4.552317,0.806,0.541,-1.177,-138.122,-63.415,-53.161,1
4.55926,0.736,0.526,-1.151,-131.53,-71.899,-57.006,1
4.567691,0.659,0.499,-1.112,-125.061,-79.345,-60.852,1
4.576047,0.56,0.448,-1.08,-121.215,-87.341,-64.636,1
4.583942,0.476,0.383,-1.031,-122.619,-95.642,-68.847,1
4.592767,0.374,0.308,-0.969,-123.229,-104.125,-72.326,1
4.600966,0.269,0.251,-0.902,-114.013,-112.182,-75.683,1
4.608111,0.097,0.175,-0.822,-98.205,-121.154,-78.552,1
4.616051,-0.044,0.088,-0.746,-80.81,-129.333,-81.665,1
4.624484,-0.207,0.024,-0.664,-61.035,-138.366,-85.083,1
4.632156,-0.389,-0.038,-0.585,-41.381,-145.629,-88.378,1
4.639157,-0.542,-0.145,-0.53,-23.864,-152.893,-91.613,1
4.647405,-0.732,-0.3,-0.458,-13.488,-158.935,-93.505,1
4.656186,-0.842,-0.419,-0.394,-11.84,-163.757,-94.421,1
4.663399,-0.913,-0.572,-0.366,-16.906,-167.297,-93.872,1
4.672058,-0.992,-0.644,-0.304,-16.845,-171.142,-93.566,1
4.680955,-1.059,-0.687,-0.261,-6.042,-175.781,-93.444,1
4.688412,-1.166,-1.005,-0.215,-16.784,-180.236,-89.233,1
4.695932,-1.179,-1.216,-0.18,-62.561,-177.246,-80.383,1
4.703709,-1.176,-1.297,-0.166,-109.741,-176.818,-71.411,1
4.711885,-1.315,-1.28,-0.143,-129.333,-177.734,-59.509,1
4.719762,-1.38,-1.354,-0.139,-122.009,-182.006,-49.194,1
4.729131,-1.173,-1.501,-0.133,-102.111,-187.194,-37.231,1
4.737205,-1.269,-1.708,-0.205,-99.853,-192.932,-21.545,1
4.747533,-1.271,-1.843,-0.183,-106.445,-198.425,-3.417,1
4.754175,-1.327,-2.007,-0.233,-114.501,-205.444,16.784,1
4.762448,-1.382,-2.141,-0.216,-124.267,-211.486,35.827,1
4.770391,-1.52,-2.302,-0.215,-138.671,-219.97,60.18,1
4.777152,-1.623,-2.442,-0.149,-151.977,-226.44,84.045,1
4.785154,-1.743,-2.528,-0.108,-154.235,-233.215,110.107,1
4.793817,-1.955,-2.633,-0.023,-153.625,-240.478,137.817,1
4.800618,-2.167,-2.718,0.047,-150.085,-246.032,167.48,1
4.809102,-2.467,-2.74,0.126,-148.742,-250.61,199.035,1
4.816122,-2.8,-2.782,0.214,-154.296,-253.295,232.727,1
4.823246,-3.221,-2.829,0.27,-167.114,-255.493,268.432,1
4.831235,-3.689,-2.827,0.407,-195.556,-250.732,306.823,1
4.839997,-4.191,-2.732,0.512,-213.684,-248.168,346.313,1
4.846667,-4.895,-2.608,0.724,-214.721,-242.98,387.023,1
4.854927,-5.57,-2.513,0.858,-213.684,-235.534,435.058,1
4.86174,-6.322,-2.397,1.043,-229.858,-223.51,477.111,1
4.87044,-7.124,-2.246,1.193,-250.671,-206.665,519.958,1
4.877156,-7.91,-2.087,1.375,-269.775,-190.002,555.664,1
4.885916,-8.69,-1.919,1.584,-286.865,-163.085,599.243,1
4.892358,-9.497,-1.748,1.783,-298.278,-126.647,649.719,1
4.900684,-10.306,-1.573,2.018,-300.17,-88.439,693.237,1
4.908619,-11.061,-1.395,2.215,-303.161,-44.494,736.633,1
4.915632,-12.056,-1.13,2.444,-302.856,5.615,778.625,1
4.924072,-12.854,-0.945,2.582,-300.598,59.387,819.091,1
4.930803,-13.938,-0.702,2.733,-291.931,118.835,857.177,1
4.938622,-15.285,-0.49,2.722,-296.752,180.297,892.639,1
4.947204,-15.999,-0.227,2.611,-330.2,248.962,924.926,1
4.953708,-15.999,0.186,2.422,-372.741,321.289,951.049,1
4.962764,-15.999,0.741,2.195,-383.422,395.629,968.627,1
4.969763,-15.999,1.284,1.916,-356.933,463.256,978.454,1
4.977807,-15.999,1.768,1.674,-322.082,533.996,981.75,1
4.984671,-15.999,2.091,1.522,-315.795,598.388,979.919,1
4.991959,-15.999,2.354,1.239,-352.966,667.663,973.754,1
5.00057,-15.999,2.684,0.965,-413.94,743.835,956.603,1
5.00778,-15.999,2.88,0.544,-473.937,822.57,927.978,1
5.015213,-15.999,3.022,0.167,-513.977,887.939,898.315,1
5.022341,-15.999,3.105,-0.134,-567.688,962.036,853.149,1
5.030306,-15.999,3.232,-0.524,-615.844,1041.687,795.104,1
5.037036,-15.999,3.24,-1.262,-713.439,1112.06,721.984,1
5.045351,-15.999,3.505,-1.821,-830.322,1173.4,618.408,1
5.052296,-15.999,3.442,-2.573,-947.692,1223.999,485.595,1
5.06114,-15.999,2.979,-3.356,-1082.458,1249.45,330.688,1
5.068116,-15.999,2.646,-3.969,-1253.723,1259.643,153.808,1
5.077043,-15.999,2.166,-4.323,-1397.216,1243.774,-41.87,1
5.083732,-15.999,1.492,-4.291,-1472.717,1173.523,-240.722,1
5.09037,-15.999,1.011,-3.22,-1450.439,1072.998,-421.691,1
5.098652,-15.999,0.88,-2.648,-1249.45,962.707,-560.302,1
5.107236,-15.999,0.484,-2.47,-978.393,823.791,-653.137,1
5.114189,-15.999,-0.405,-2.217,-755.92,697.387,-707.275,1
5.122951,-15.73,-1.032,-2.493,-702.209,615.295,-725.524,1
5.129633,-14.391,-1.394,-2.325,-676.696,500.305,-736.816,1
5.137594,-13.26,-1.755,-2.151,-640.747,417.48,-733.886,1
5.146213,-11.754,-2.067,-2.013,-593.444,317.443,-719.726,1
5.155076,-10.484,-2.281,-1.744,-548.034,247.314,-698.73,1
5.162209,-9.08,-2.449,-1.548,-499.328,181.701,-671.874,1
5.169139,-7.962,-2.466,-1.313,-446.655,124.023,-640.014,1
5.177494,-7.22,-2.472,-1.162,-387.084,77.087,-607.177,1
5.184211,-6.285,-2.537,-1.062,-351.44,35.888,-571.594,1
5.19273,-5.609,-2.482,-0.876,-299.56,-0.427,-527.16,1
5.202264,-4.874,-2.386,-0.801,-268.92,-28.808,-491.699,1
5.208815,-4.449,-2.233,-0.616,-246.52,-54.504,-449.707,1
5.21614,-4.043,-2.035,-0.537,-212.219,-73.669,-416.503,1
5.224093,-3.781,-1.87,-0.398,-169.677,-91.308,-385.742,1
5.232058,-3.512,-1.73,-0.31,-120.361,-103.515,-357.849,1
5.240759,-3.266,-1.617,-0.206,-88.867,-113.403,-331.787,1
5.247799,-3.031,-1.59,-0.163,-62.927,-118.957,-303.771,1
5.256349,-2.866,-1.536,-0.124,-48.889,-121.887,-281.005,1
5.264724,-2.711,-1.467,-0.1,-32.348,-122.924,-259.948,1
5.272672,-2.546,-1.413,-0.104,-15.136,-124.45,-240.844,1
5.280597,-2.418,-1.391,-0.099,-1.708,-123.413,-220.214,1
5.287562,-2.192,-1.361,-0.104,1.037,-121.643,-204.162,1
5.29742,-2.006,-1.329,-0.079,-2.563,-119.262,-189.086,1
5.30585,-1.875,-1.293,-0.047,-8.972,-115.417,-172.424,1
5.312471,-1.738,-1.25,-0.013,-14.831,-110.9,-156.677,1
5.320285,-1.585,-1.221,0.004,-19.226,-107.604,-143.432,1
5.328928,-1.454,-1.178,0.038,-18.737,-104.248,-131.225,1
5.335945,-1.318,-1.14,0.051,-14.892,-100.83,-119.079,1
5.343531,-1.184,-1.12,0.071,-9.582,-96.374,-105.712,1
5.351542,-1.063,-1.092,0.071,-4.943,-91.796,-95.458,1
5.360992,-0.955,-1.063,0.072,-1.281,-87.463,-85.266,1
5.367157,-0.867,-1.037,0.068,-2.746,-81.787,-76.171,1
5.374379,-0.777,-1.033,0.046,-11.962,-75.622,-66.65,1
5.382124,-0.669,-1.001,0.037,-20.263,-69.763,-58.105,1
5.390836,-0.575,-0.967,0.025,-21.667,-64.392,-49.499,1
5.399115,-0.497,-0.936,0.013,-19.226,-59.387,-41.625,1
5.40751,-0.393,-0.921,-0.019,-18.554,-54.26,-34.24,1
5.415195,-0.315,-0.907,-0.055,-24.841,-47.485,-26.184,1
5.423558,-0.201,-0.884,-0.102,-35.766,-41.931,-19.592,1
5.431563,-0.113,-0.848,-0.146,-51.269,-36.254,-12.39,1
5.438472,-0.051,-0.809,-0.192,-64.453,-31.616,-6.652,1
5.446451,-0.018,-0.779,-0.23,-77.392,-27.099,-0.793,1
5.454686,0.02,-0.745,-0.249,-79.65,-24.169,4.638,1
5.463044,0.047,-0.715,-0.269,-72.021,-22.644,9.399,1
5.470404,0.078,-0.7,-0.281,-58.288,-21.179,14.587,1
5.478578,0.107,-0.689,-0.289,-49.011,-19.592,18.554,1
5.48783,0.137,-0.673,-0.303,-41.137,-18.005,22.46,1
5.494496,0.182,-0.602,-0.324,-25.39,-16.601,25.634,1
5.502479,0.279,-0.635,-0.359,-17.822,-16.174,28.808,1
5.510734,0.33,-0.649,-0.372,-22.521,-13.0,32.409,1
5.51919,0.36,-0.633,-0.412,-36.132,-9.155,35.705,1
5.525734,0.388,-0.615,-0.435,-59.692,-3.906,38.94,1
5.534154,0.411,-0.6,-0.467,-78.613,-0.244,41.076,1
5.542638,0.458,-0.571,-0.472,-103.027,4.943,44.616,1
5.548987,0.49,-0.543,-0.486,-117.736,8.483,47.424,1
5.556706,0.54,-0.515,-0.493,-126.037,12.023,50.476,1
5.563639,0.596,-0.487,-0.515,-127.685,14.465,53.588,1
5.572316,0.652,-0.469,-0.541,-123.718,15.258,56.274,1
5.578709,0.705,-0.458,-0.565,-113.098,14.892,58.898,1
5.586938,0.742,-0.451,-0.587,-98.815,14.526,61.401,1
5.593894,0.77,-0.448,-0.603,-84.045,13.916,63.72,1
5.602196,0.753,-0.449,-0.617,-73.059,13.244,66.528,1
5.609014,0.816,-0.464,-0.638,-70.373,14.038,68.42,1
5.61682,0.8,-0.49,-0.659,-78.247,15.014,70.678,1
5.624084,0.823,-0.502,-0.654,-87.524,16.784,72.998,1
5.631831,0.87,-0.507,-0.657,-102.172,19.897,75.988,1
5.640195,0.927,-0.501,-0.651,-113.769,22.216,79.04,1
5.64906,0.965,-0.501,-0.648,-122.863,24.902,82.214,1
5.655322,0.999,-0.491,-0.652,-127.441,26.672,85.266,1
5.663994,0.982,-0.459,-0.656,-124.999,28.137,88.439,1
5.671134,0.953,-0.4,-0.656,-110.656,27.648,91.186,1
5.678219,0.993,-0.42,-0.69,-92.59,26.428,93.383,1
5.686948,0.948,-0.396,-0.695,-81.909,24.536,94.909,1
5.694925,0.901,-0.375,-0.705,-72.204,23.62,97.229,1
5.701972,0.879,-0.356,-0.713,-63.537,22.033,99.365,1
5.710638,0.857,-0.34,-0.72,-57.922,21.179,101.44,1
5.717709,0.82,-0.312,-0.731,-53.405,20.141,102.6,1
5.726037,0.778,-0.277,-0.736,-49.011,19.226,103.698,1
5.73309,0.735,-0.245,-0.747,-45.959,17.333,104.125,1
5.741414,0.719,-0.177,-0.697,-37.963,15.502,104.37,1
5.749686,0.781,-0.189,-0.746,-34.79,14.892,104.125,1
5.756343,0.789,-0.149,-0.702,-30.761,13.183,103.759,1
5.76414,0.798,-0.13,-0.685,-29.724,11.84,104.003,1
5.772512,0.797,-0.084,-0.649,-25.939,10.131,104.309,1
5.780711,0.82,-0.039,-0.623,-17.15,9.033,104.614,1
5.787376,0.864,-0.005,-0.616,9.216,4.76,104.919,1
5.795764,0.886,0.02,-0.577,28.137,3.295,105.712,1
5.80222,0.865,0.034,-0.6,38.33,-0.183,106.628,1
5.81102,0.833,0.064,-0.567,42.724,-2.014,106.933,1
5.818031,0.784,0.088,-0.579,39.978,-4.516,107.543,1
5.826393,0.778,0.111,-0.557,31.249,-6.042,107.299,1
5.834584,0.726,0.125,-0.556,17.15,-7.08,107.238,1
5.84098,0.751,0.145,-0.543,0.0,-7.812,106.384,1
5.849676,0.772,0.151,-0.528,-17.272,-7.812,105.468,1
5.856454,0.777,0.143,-0.511,-36.743,-7.202,104.614,1
5.865293,0.804,0.133,-0.491,-55.419,-5.92,103.759,1
5.873132,0.845,0.142,-0.492,-74.218,-3.417,103.515,1
5.880148,0.867,0.169,-0.495,-84.167,-2.014,103.088,1
5.88714,0.874,0.197,-0.487,-87.219,-1.159,102.905,1
5.896039,0.85,0.24,-0.479,-82.824,-0.61,102.233,1
5.902577,0.819,0.277,-0.482,-72.937,-0.61,101.806,1
5.911476,0.81,0.313,-0.479,-57.739,-1.892,100.708,1
5.91826,0.791,0.346,-0.468,-39.855,-2.441,99.426,1
5.925306,0.759,0.357,-0.484,-24.536,-4.516,96.862,1
5.934833,0.74,0.354,-0.478,-13.854,-5.615,94.543,1
5.941885,0.734,0.327,-0.477,-11.291,-6.225,92.102,1
5.950566,0.743,0.314,-0.467,-15.502,-5.92,90.637,1
5.957539,0.784,0.303,-0.461,-22.888,-5.187,89.111,1
5.965384,0.822,0.298,-0.457,-30.578,-5.249,88.317,1
5.973777,0.858,0.301,-0.437,-36.193,-3.723,87.768,1
5.982161,0.852,0.321,-0.441,-41.992,-2.502,87.28,1
5.990495,0.829,0.349,-0.46,-49.499,-1.037,86.242,1
5.997566,0.807,0.389,-0.475,-55.603,-0.488,85.266,1
6.005872,0.783,0.429,-0.479,-57.556,-0.244,84.228,1
6.012564,0.776,0.468,-0.479,-54.809,-0.671,82.336,1
6.021176,0.766,0.505,-0.497,-48.461,-1.647,80.627,1
6.029642,0.758,0.533,-0.509,-40.1,-2.929,78.308,1
6.036296,0.75,0.534,-0.531,-33.996,-4.516,76.049,1
6.044983,0.773,0.531,-0.539,-30.822,-5.615,73.547,1
6.051931,0.797,0.52,-0.545,-29.724,-7.385,71.228,1
6.060086,0.829,0.506,-0.537,-30.212,-7.873,69.274,1
6.068015,0.831,0.495,-0.546,-34.912,-7.873,67.199,1
6.074661,0.841,0.494,-0.551,-41.748,-7.629,65.368,1
6.083107,0.844,0.503,-0.553,-48.217,-7.019,63.598,1
6.090932,0.835,0.523,-0.571,-52.49,-7.324,61.95,1
6.098806,0.831,0.525,-0.571,-54.382,-7.019,60.485,1
6.106712,0.828,0.529,-0.589,-53.649,-7.263,58.776,1
6.114115,0.817,0.537,-0.597,-49.804,-7.629,57.067,1
6.122821,0.806,0.542,-0.607,-43.762,-8.361,55.114,1
6.13102,0.789,0.537,-0.615,-35.949,-9.643,53.527,1
6.137252,0.799,0.529,-0.625,-26.184,-11.352,51.94,1
6.14575,0.818,0.523,-0.614,-15.014,-13.061,49.926,1
6.152391,0.824,0.513,-0.609,-3.479,-15.014,49.072,1
6.159507,0.845,0.491,-0.603,7.202,-16.967,47.668,1
6.167359,0.846,0.483,-0.596,14.953,-18.127,46.752,1
6.176971,0.848,0.472,-0.601,17.15,-19.104,45.776,1
6.183626,0.847,0.468,-0.608,13.061,-19.653,44.555,1
6.1914,0.844,0.47,-0.611,6.958,-20.385,43.64,1
6.198375,0.831,0.476,-0.614,-0.732,-20.263,42.663,1
6.206992,0.854,0.476,-0.633,-11.718,-20.568,41.809,1
6.215359,0.873,0.476,-0.636,-24.23,-20.69,40.771,1
6.222581,0.879,0.482,-0.644,-34.362,-20.69,39.978,1
6.229668,0.894,0.487,-0.648,-40.893,-21.667,38.94,1
6.238594,0.908,0.496,-0.646,-41.931,-22.949,37.902,1
6.246065,0.915,0.489,-0.643,-38.33,-24.414,37.048,1
6.253193,0.922,0.479,-0.639,-32.714,-26.184,36.499,1
6.261365,0.931,0.463,-0.631,-25.573,-27.709,35.339,1
6.267818,0.93,0.45,-0.621,-18.859,-29.113,34.545,1
6.276439,0.919,0.443,-0.612,-12.451,-30.334,33.63,1
6.283146,0.897,0.429,-0.604,-8.911,-31.127,32.836,1
6.291758,0.875,0.423,-0.593,-8.605,-31.677,32.287,1
6.299832,0.875,0.422,-0.588,-11.413,-32.104,31.738,1
6.306664,0.878,0.42,-0.583,-15.686,-32.043,30.883,1
6.316254,0.868,0.422,-0.58,-22.766,-32.043,29.846,1
6.322962,0.861,0.416,-0.57,-29.663,-32.104,29.052,1
6.33124,0.867,0.417,-0.556,-36.437,-32.287,28.32,1
6.337603,0.866,0.409,-0.545,-42.236,-32.104,27.465,1
6.346331,0.861,0.401,-0.53,-46.63,-32.409,26.916,1
6.354986,0.859,0.382,-0.512,-49.743,-32.714,26.306,1
6.361817,0.865,0.377,-0.487,-50.354,-32.958,26.123,1
6.369587,0.875,0.375,-0.467,-47.302,-33.508,26.123,1
6.378238,0.882,0.382,-0.451,-41.198,-33.874,25.756,1
6.38611,0.896,0.39,-0.441,-30.395,-35.4,25.329,1
6.392957,0.886,0.398,-0.429,-20.935,-35.766,25.146,1
6.400087,0.879,0.405,-0.431,-15.319,-36.499,24.658,1
6.408367,0.867,0.414,-0.426,-10.742,-36.499,23.986,1
6.415665,0.854,0.423,-0.42,-9.521,-36.499,23.376,1
6.423625,0.836,0.426,-0.412,-11.535,-36.376,22.583,1
6.43149,0.811,0.417,-0.399,-16.052,-35.766,21.789,1
6.437937,0.808,0.416,-0.39,-23.254,-35.095,21.118,1
6.446396,0.803,0.416,-0.376,-30.639,-33.935,20.324,1
6.453083,0.8,0.411,-0.365,-36.621,-33.142,19.958,1
6.460958,0.801,0.408,-0.349,-41.259,-32.348,19.409,1
6.46997,0.815,0.417,-0.345,-44.311,-31.249,19.348,1
6.476378,0.822,0.417,-0.343,-45.776,-30.456,18.737,1
6.48511,0.823,0.427,-0.339,-44.982,-30.212,18.249,1
6.491928,0.824,0.431,-0.341,-43.029,-29.907,18.005,1
6.499813,0.836,0.43,-0.341,-39.55,-30.212,17.822,1
6.508109,0.831,0.427,-0.335,-35.339,-29.907,17.517,1
6.514987,0.827,0.43,-0.335,-31.005,-29.663,16.723,1
6.522695,0.828,0.429,-0.325,-26.184,-29.174,16.357,1
6.531445,0.831,0.431,-0.324,-20.385,-28.93,15.808,1
6.537975,0.829,0.424,-0.313,-14.343,-28.625,15.197,1
6.546603,0.829,0.425,-0.316,-9.582,-28.198,14.77,1
6.553698,0.831,0.415,-0.313,-6.652,-27.282,14.038,1
6.561213,0.823,0.41,-0.319,-7.324,-26.611,13.61,1
6.568433,0.811,0.4,-0.316,-11.169,-25.146,13.244,1
6.576572,0.82,0.392,-0.322,-16.113,-24.169,12.695,1
6.583493,0.83,0.378,-0.313,-20.568,-23.254,12.573,1
6.591341,0.838,0.374,-0.32,-25.939,-21.911,12.39,1
6.599638,0.849,0.368,-0.321,-30.578,-21.301,12.756,1
6.606418,0.855,0.365,-0.325,-33.325,-20.08,12.695,1
6.614538,0.857,0.36,-0.33,-33.325,-19.714,12.817,1
6.621187,0.85,0.361,-0.332,-31.494,-18.798,12.756,1
6.629672,0.858,0.357,-0.337,-28.32,-18.859,12.939,1
6.636563,0.867,0.357,-0.337,-23.132,-18.554,13.305,1
6.644501,0.88,0.35,-0.346,-17.211,-18.432,13.427,1
6.652383,0.888,0.338,-0.345,-12.573,-18.554,13.916,1
6.660332,0.881,0.326,-0.349,-10.62,-17.578,14.221,1
6.667374,0.868,0.322,-0.354,-13.0,-16.479,14.587,1
6.675614,0.858,0.312,-0.363,-18.31,-15.502,15.075,1
6.684128,0.845,0.311,-0.368,-26.123,-14.221,15.686,1
6.690473,0.866,0.314,-0.37,-33.996,-13.244,15.869,1
6.69867,0.867,0.321,-0.372,-40.466,-12.329,16.723,1
6.705181,0.88,0.338,-0.377,-43.457,-11.84,17.456,1
6.713275,0.869,0.351,-0.375,-43.457,-11.596,17.822,1
6.72029,0.861,0.355,-0.38,-41.625,-11.596,18.249,1
6.728617,0.859,0.357,-0.386,-39.184,-11.535,18.554,1
6.73539,0.858,0.351,-0.389,-36.926,-11.535,18.798,1
6.743456,0.864,0.346,-0.402,-35.278,-11.657,19.104,1
6.750408,0.864,0.344,-0.406,-33.325,-11.413,19.47,1
6.758221,0.865,0.334,-0.416,-32.958,-10.986,19.531,1
6.766486,0.862,0.334,-0.422,-33.752,-10.803,20.019,1
6.773098,0.867,0.345,-0.429,-34.912,-10.375,20.263,1
6.780288,0.866,0.366,-0.438,-35.522,-10.07,20.629,1
6.788094,0.87,0.374,-0.442,-36.743,-9.948,20.507,1
6.79655,0.852,0.382,-0.443,-40.527,-9.277,20.507,1
6.803392,0.827,0.388,-0.456,-46.386,-8.666,20.507,1
6.811715,0.829,0.398,-0.462,-52.734,-8.178,20.568,1
6.818252,0.805,0.4,-0.476,-58.044,-7.873,20.141,1
6.826032,0.797,0.405,-0.495,-59.082,-7.568,20.019,1
6.834376,0.79,0.403,-0.536,-59.387,-7.934,19.653,1
6.840955,0.788,0.415,-0.547,-55.786,-8.789,19.47,1
6.84869,0.836,0.405,-0.589,-50.231,-9.399,19.409,1
6.856789,0.851,0.407,-0.613,-43.823,-11.474,19.592,1
6.865143,0.874,0.413,-0.623,-34.179,-13.244,19.531,1
6.873343,0.886,0.4,-0.63,-24.169,-15.441,19.836,1
6.880085,0.902,0.384,-0.628,-14.038,-17.7,20.202,1
6.888011,0.909,0.37,-0.634,-8.972,-19.836,20.812,1
6.895936,0.911,0.353,-0.636,-7.568,-21.118,21.118,1
6.904634,0.903,0.332,-0.634,-9.46,-22.949,21.85,1
6.911442,0.887,0.316,-0.644,-12.573,-23.925,22.766,1
6.92003,0.877,0.314,-0.655,-16.174,-25.207,24.414,1
6.926623,0.883,0.291,-0.675,-19.104,-26.428,27.404,1
6.934968,0.905,0.333,-0.687,-19.287,-27.709,29.357,1
6.942945,0.893,0.373,-0.703,-13.305,-30.09,30.212,1
6.950016,0.957,0.402,-0.677,-3.051,-31.86,30.273,1
6.957034,0.999,0.455,-0.652,10.375,-33.508,29.113,1
6.965466,0.999,0.504,-0.613,23.071,-34.301,26.672,1
6.972818,0.953,0.529,-0.588,28.198,-34.057,24.536,1
6.980758,0.895,0.514,-0.666,11.779,-33.996,23.193,1
6.989192,0.906,0.553,-0.687,-18.005,-33.386,22.033,1
6.997578,0.894,0.569,-0.732,-60.607,-32.287,20.385,1
7.004728,0.963,0.628,-0.762,-104.919,-29.907,18.737,1
7.013246,1.005,0.722,-0.778,-144.531,-29.968,16.479,1
7.022037,1.012,0.788,-0.778,-161.01,-29.846,14.831,1
7.028666,1.009,0.879,-0.778,-161.865,-32.226,12.451,1
7.037028,0.995,0.948,-0.779,-148.01,-35.705,9.948,1
7.044107,1.008,1.003,-0.778,-122.253,-40.71,5.859,1
7.052185,1.009,1.022,-0.764,-101.867,-44.433,1.831,1
7.060002,1.009,1.029,-0.754,-89.721,-47.973,-2.136,1
7.067138,1.004,1.027,-0.732,-88.134,-50.109,-6.103,1
7.075399,0.987,1.032,-0.711,-91.613,-52.307,-9.826,1
7.084198,0.983,1.045,-0.666,-91.796,-54.992,-14.038,1
7.09119,1.001,1.018,-0.621,-82.214,-59.082,-18.432,1
7.09949,1.027,0.971,-0.571,-70.19,-62.499,-21.667,1
7.107656,1.02,0.9,-0.534,-60.974,-65.429,-24.597,1
7.114354,1.001,0.81,-0.485,-56.274,-67.993,-26.489,1
7.122174,0.973,0.726,-0.437,-52.49,-69.213,-28.381,1
7.130633,0.944,0.634,-0.393,-50.292,-70.434,-29.296,1
7.138736,0.854,0.486,-0.32,-53.161,-70.495,-28.869,1
7.146671,0.844,0.439,-0.262,-64.941,-69.03,-28.808,1
7.155483,0.817,0.361,-0.189,-85.266,-67.443,-28.32,1
7.16182,0.719,0.22,-0.166,-129.211,-62.316,-25.512,1
7.170232,0.715,0.189,-0.121,-180.236,-57.8,-23.254,1
7.178643,0.704,0.168,-0.083,-229.37,-52.551,-20.263,1
7.185317,0.708,0.196,-0.047,-260.925,-47.79,-17.089,1
7.194868,0.758,0.187,-0.02,-273.132,-44.799,-14.526,1
7.20154,0.741,0.211,0.02,-273.498,-43.09,-11.779,1
7.211206,0.717,0.236,0.063,-262.573,-41.748,-9.094,1
7.217404,0.722,0.268,0.106,-236.389,-40.1,-5.92,1
7.225649,0.749,0.305,0.131,-206.42,-38.085,-3.295,1
7.234529,0.811,0.321,0.138,-175.231,-37.048,-1.647,1
7.241426,0.85,0.361,0.164,-138.854,-33.63,-0.488,1
7.250242,0.86,0.373,0.12,-105.285,-33.874,-0.366,1
7.256906,0.782,0.373,0.114,-74.462,-31.616,0.793,1
7.265718,0.739,0.375,0.078,-62.316,-31.311,1.098,1
7.272144,0.723,0.359,0.074,-65.124,-29.174,0.305,1
7.27993,0.741,0.331,0.071,-81.604,-25.024,-0.732,1
7.289668,0.76,0.308,0.063,-106.933,-19.775,-2.075,1
7.296358,0.784,0.303,0.063,-138.061,-13.488,-3.723,1
7.304238,0.795,0.312,0.062,-158.874,-8.544,-4.699,1
7.31434,0.829,0.332,0.065,-170.837,-5.31,-5.432,1
7.32665,0.854,0.373,0.068,-167.541,-3.417,-5.371,1
7.335891,0.941,0.401,0.02,-149.658,-2.38,-5.615,1
7.34327,1.024,0.393,-0.06,-146.728,-1.22,-6.591,1
7.351651,1.131,0.393,-0.139,-151.794,-0.488,-7.263,1
7.359709,1.212,0.425,-0.23,-160.888,1.281,-8.911,1
7.367483,1.229,0.482,-0.304,-166.381,0.915,-10.803,1
7.374325,1.243,0.543,-0.361,-164.611,-0.366,-13.793,1
7.383128,1.24,0.589,-0.405,-156.25,-1.953,-17.15,1
7.390152,1.261,0.613,-0.473,-148.986,-3.295,-20.996,1
7.398904,1.235,0.612,-0.542,-149.292,-5.615,-24.841,1
7.405641,1.231,0.618,-0.61,-149.475,-8.544,-29.296,1
7.414138,1.257,0.614,-0.654,-151.55,-12.084,-33.447,1
7.422084,1.229,0.613,-0.688,-152.587,-14.404,-36.56,1
7.430474,1.197,0.6,-0.726,-149.902,-19.653,-39.672,1
7.436908,1.161,0.565,-0.735,-146.301,-23.742,-42.358,1
7.444948,1.133,0.559,-0.761,-146.362,-27.526,-44.616,1
7.453753,1.103,0.542,-0.775,-147.583,-32.226,-47.241,1
7.460087,1.091,0.542,-0.744,-141.113,-38.635,-49.316,1
7.468285,1.074,0.545,-0.689,-126.159,-44.25,-51.147,1
7.476149,1.048,0.518,-0.629,-113.586,-48.828,-53.222,1
7.48405,1.031,0.463,-0.577,-114.379,-51.757,-55.114,1
7.490515,1.046,0.419,-0.488,-121.643,-54.138,-56.945,1
7.498818,1.096,0.321,-0.407,-134.704,-54.626,-57.922,1
7.505295,1.183,0.219,-0.341,-152.526,-54.931,-57.678,1
7.513527,1.293,0.151,-0.275,-164.062,-55.664,-56.213,1
7.521447,1.315,0.134,-0.201,-161.682,-58.654,-55.541,1
7.527747,1.277,0.111,-0.084,-148.864,-62.011,-55.419,1
7.53651,1.255,0.062,0.034,-135.07,-63.537,-55.175,1
7.543288,1.25,0.026,0.108,-124.633,-64.27,-54.138,1
7.550149,1.215,-0.02,0.165,-125.183,-63.11,-53.1,1
7.558954,1.166,-0.029,0.202,-129.821,-62.866,-51.696,1
7.565579,1.096,-0.025,0.25,-130.31,-62.866,-50.659,1
7.574015,1.023,-0.025,0.297,-122.863,-62.866,-49.804,1
7.582653,0.924,-0.037,0.362,-106.384,-63.903,-49.011,1
7.589214,0.851,-0.065,0.416,-90.515,-63.293,-48.4,1
7.598386,0.762,-0.108,0.443,-79.895,-60.913,-47.729,1
7.606224,0.724,-0.15,0.433,-81.42,-58.715,-47.18,1
7.613998,0.697,-0.153,0.463,-81.237,-55.969,-46.874,1
7.620681,0.673,-0.144,0.487,-74.951,-53.283,-46.447,1
7.627864,0.668,-0.142,0.51,-62.072,-51.452,-46.63,1
7.635802,0.692,-0.144,0.566,-42.663,-49.316,-46.325,1
7.644663,0.707,-0.152,0.598,-25.573,-47.18,-46.081,1
7.651253,0.711,-0.148,0.642,-8.3,-43.334,-45.776,1
7.658201,0.742,-0.149,0.688,-3.54,-38.085,-45.349,1
7.666596,0.76,-0.118,0.7,-8.789,-31.86,-44.189,1
7.675251,0.771,-0.038,0.706,-16.723,-25.268,-43.029,1
7.681566,0.792,0.071,0.695,-20.202,-19.714,-43.09,1
7.689315,0.791,0.192,0.672,-22.583,-15.258,-43.701,1
7.69617,0.793,0.271,0.656,-31.311,-9.704,-44.921,1
7.703293,0.776,0.364,0.605,-51.452,-4.272,-46.447,1
7.711611,0.746,0.484,0.536,-72.509,-0.061,-48.4,1
7.718551,0.708,0.603,0.469,-91.491,2.746,-51.696,1
7.726928,0.625,0.687,0.411,-101.562,4.333,-56.396,1
7.735369,0.542,0.763,0.323,-108.825,4.699,-61.34,1
7.742159,0.431,0.82,0.209,-118.408,4.211,-69.03,1
7.750404,0.297,0.854,0.117,-127.441,2.99,-75.866,1
7.758467,0.145,0.85,0.005,-138.977,1.342,-83.007,1
7.766313,-0.046,0.835,-0.104,-154.541,-1.831,-91.125,1
7.77462,-0.326,0.735,-0.227,-176.879,-4.699,-100.952,1
7.782623,-0.508,0.608,-0.341,-192.443,-9.094,-109.313,1
7.789337,-0.674,0.444,-0.439,-196.655,-15.563,-117.248,1
7.798306,-0.835,0.189,-0.515,-186.95,-23.925,-123.413,1
7.805404,-1.022,-0.06,-0.562,-168.518,-34.606,-127.929,1
7.813595,-1.194,-0.375,-0.632,-165.1,-44.616,-128.356,1
7.821591,-1.139,-0.734,-0.679,-164.55,-53.771,-123.718,1
7.830116,-1.185,-1.182,-0.691,-188.415,-66.65,-116.943,1
7.838009,-1.229,-1.392,-0.678,-209.594,-70.8,-100.83,1
7.846276,-1.257,-1.625,-0.732,-192.932,-89.416,-85.51,1
7.854459,-1.284,-1.956,-0.698,-149.658,-102.783,-66.345,1
7.861186,-1.228,-2.177,-0.768,-104.37,-121.337,-42.419,1
7.869744,-1.382,-2.452,-0.821,-89.05,-138.244,-18.371,1
7.877381,-1.618,-2.822,-0.855,-60.119,-157.409,11.047,1
7.886051,-1.795,-3.056,-0.857,-41.503,-175.537,38.757,1
7.894491,-2.151,-3.318,-0.879,-34.729,-192.687,69.152,1
7.901233,-2.486,-3.49,-0.821,2.746,-216.369,106.262,1
7.909658,-2.873,-3.569,-0.789,44.677,-237.853,138.61,1
7.917616,-3.338,-3.797,-0.804,61.828,-259.948,172.546,1
7.925616,-3.878,-4.014,-0.808,38.024,-276.916,208.923,1
7.932624,-4.476,-4.216,-0.677,-15.502,-296.752,257.751,1
7.940912,-5.384,-4.285,-0.509,-65.551,-309.509,303.1,1
7.947817,-5.954,-4.42,-0.335,-166.198,-314.697,353.82,1
7.956034,-6.975,-4.199,0.051,-185.424,-312.438,412.231,1
7.963014,-7.936,-4.209,0.323,-157.165,-320.312,470.52,1
7.970913,-9.017,-4.225,0.657,-140.869,-319.58,532.409,1
7.979205,-10.245,-4.105,0.935,-139.648,-315.368,596.313,1
7.987952,-11.662,-3.984,1.229,-161.132,-304.321,661.682,1
7.994626,-13.267,-3.793,1.596,-200.195,-275.39,744.75,1
8.003344,-14.919,-3.625,1.831,-250.732,-241.516,820.19,1
8.010457,-15.999,-3.292,2.104,-320.8,-190.673,899.902,1
8.01838,-15.999,-2.484,2.349,-375.488,-124.389,979.003,1
8.026396,-15.999,-1.583,2.471,-408.691,-48.583,1052.49,1
8.033334,-15.999,-0.601,2.522,-424.865,38.879,1116.272,1
8.041174,-15.999,0.208,2.465,-430.114,133.239,1169.128,1
8.048152,-15.999,1.155,2.371,-423.034,234.008,1208.007,1
8.056217,-15.999,1.983,2.128,-404.418,336.608,1234.191,1
8.063115,-15.999,2.736,1.782,-398.254,439.941,1250.793,1
8.070528,-15.999,3.507,1.284,-424.987,543.212,1255.554,1
8.079101,-15.999,4.161,0.837,-492.248,657.409,1243.896,1
8.086222,-15.999,4.842,0.226,-551.513,773.925,1216.552,1
8.094502,-15.999,5.089,-0.193,-594.421,897.766,1176.513,1
8.101702,-15.999,4.954,-1.109,-654.907,1020.446,1130.188,1
8.11018,-15.999,4.809,-1.742,-735.839,1145.752,1071.228,1
8.117307,-15.999,4.949,-2.987,-840.454,1270.874,979.003,1
8.125752,-15.999,4.856,-3.603,-981.384,1368.713,861.45,1
8.133761,-15.999,4.887,-4.759,-1187.377,1455.505,690.124,1
8.140698,-15.999,4.766,-6.068,-1349.365,1530.456,461.669,1
8.149455,-15.999,3.762,-7.19,-1569.03,1540.161,188.842,1
8.156097,-15.999,2.908,-7.124,-1755.371,1506.713,-117.675,1
8.164489,-15.999,2.126,-6.581,-1751.953,1385.864,-408.264,1
8.172415,-15.999,1.368,-4.591,-1447.753,1205.871,-634.277,1
8.179045,-15.999,0.678,-3.503,-1031.066,1049.499,-758.3,1
8.187959,-15.999,0.032,-3.457,-624.328,853.454,-819.58,1
8.19581,-15.999,-0.616,-3.074,-390.624,744.262,-823.12,1
8.204519,-15.999,-1.099,-3.394,-239.318,644.226,-803.832,1
8.211334,-15.999,-1.626,-3.321,-183.837,575.378,-780.395,1
8.220993,-15.999,-2.211,-3.435,-205.627,527.282,-752.014,1
8.229056,-14.992,-2.433,-3.266,-317.749,463.684,-722.167,1
8.236122,-13.011,-2.525,-3.014,-431.396,411.315,-699.584,1
8.24444,-11.585,-2.487,-2.623,-506.164,337.402,-674.865,1
8.25323,-10.161,-2.426,-2.256,-486.145,274.108,-649.414,1
8.259656,-8.863,-2.367,-1.976,-410.156,209.899,-618.591,1
8.268495,-7.681,-2.31,-1.737,-303.466,155.578,-582.336,1
8.274757,-6.774,-2.231,-1.599,-223.327,109.497,-545.166,1
8.283109,-5.974,-2.123,-1.412,-181.457,75.927,-508.544,1
8.290107,-5.51,-1.897,-1.301,-158.02,46.936,-473.693,1
8.298884,-5.083,-1.634,-1.146,-120.971,18.31,-437.255,1
8.307253,-4.713,-1.459,-1.019,-90.759,-1.403,-408.874,1
8.313353,-4.436,-1.345,-0.895,-70.617,-16.845,-381.774,1
8.321792,-4.144,-1.236,-0.791,-49.316,-29.602,-357.299,1
8.330058,-3.859,-1.163,-0.706,-25.573,-40.527,-334.411,1
8.338848,-3.496,-1.133,-0.627,-5.92,-49.011,-312.561,1
8.345884,-3.212,-1.129,-0.567,6.53,-56.396,-288.391,1
8.35413,-2.912,-1.125,-0.496,11.962,-60.485,-268.981,1
8.362418,-2.673,-1.113,-0.452,19.897,-64.147,-247.741,1
8.369222,-2.48,-1.069,-0.403,29.724,-65.063,-231.262,1
8.377822,-2.327,-1.038,-0.382,30.7,-64.88,-216.125,1
8.386633,-2.206,-1.003,-0.354,20.141,-61.95,-202.697,1
8.393708,-2.081,-0.961,-0.348,0.61,-58.227,-187.866,1
8.400801,-1.917,-0.904,-0.323,-7.446,-56.03,-176.513,1
8.409298,-1.759,-0.846,-0.283,0.0,-54.565,-165.771,1
8.417263,-1.597,-0.819,-0.254,14.343,-53.588,-156.188,1
8.425123,-1.464,-0.841,-0.252,23.376,-51.269,-146.606,1
8.432022,-1.308,-0.878,-0.248,23.925,-48.095,-135.681,1
8.442334,-1.11,-0.891,-0.249,24.902,-44.616,-126.037,1
8.45058,-0.973,-0.918,-0.271,23.986,-41.32,-115.783,1
8.458432,-0.861,-0.945,-0.279,16.296,-36.499,-106.628,1
8.466285,-0.733,-0.964,-0.33,0.244,-31.677,-96.069,1
8.474099,-0.635,-0.968,-0.356,-12.023,-27.404,-87.219,1
8.481999,-0.506,-0.979,-0.377,-18.066,-24.291,-79.04,1
8.490253,-0.411,-0.985,-0.408,-22.705,-20.507,-69.702,1
8.49724,-0.355,-0.991,-0.446,-28.259,-18.127,-62.072,1
8.505351,-0.291,-0.962,-0.466,-29.846,-15.624,-54.504,1
8.514699,-0.246,-0.956,-0.501,-28.32,-14.16,-47.18,1
8.521391,-0.199,-0.98,-0.525,-31.616,-11.962,-41.015,1
8.529987,-0.153,-0.986,-0.552,-42.724,-9.643,-34.79,1
8.536942,-0.124,-0.963,-0.561,-54.626,-7.08,-28.93,1
8.544642,-0.111,-0.951,-0.578,-63.903,-4.76,-22.399,1
8.553308,-0.112,-0.953,-0.592,-67.077,-3.601,-16.479,1
8.560463,-0.073,-0.95,-0.607,-64.147,-2.624,-10.986,1
8.569229,-0.063,-0.94,-0.622,-56.335,-2.136,-5.31,1
8.576138,-0.054,-0.946,-0.632,-51.513,-1.525,0.976,1
8.583708,-0.039,-0.948,-0.634,-54.138,-0.122,6.347,1
8.591953,-0.024,-0.956,-0.657,-61.096,1.953,11.718,1
8.600228,-0.022,-0.961,-0.669,-71.655,3.967,16.479,1
8.60678,-0.003,-0.977,-0.694,-82.092,6.225,21.667,1
8.615239,0.01,-0.982,-0.711,-89.416,7.934,27.221,1
8.622358,0.026,-0.98,-0.737,-92.102,9.643,33.02,1
8.630528,0.009,-0.975,-0.778,-94.787,10.559,38.513,1
8.637525,0.0,-0.976,-0.799,-95.214,11.84,44.982,1
8.64586,0.049,-0.965,-0.836,-91.369,11.657,51.086,1
8.65252,0.069,-0.95,-0.846,-83.74,10.925,57.373,1
8.661396,0.102,-0.929,-0.856,-72.753,10.986,63.781,1
8.668089,0.147,-0.903,-0.877,-60.546,10.07,70.251,1
8.676783,0.186,-0.897,-0.897,-56.457,10.131,76.354,1
8.683341,0.229,-0.887,-0.926,-62.927,11.535,83.251,1
8.691987,0.304,-0.843,-0.954,-73.852,13.61,90.026,1
8.700424,0.388,-0.81,-1.021,-87.585,15.808,98.754,1
8.707452,0.429,-0.773,-1.061,-100.646,17.883,106.628,1
8.714147,0.465,-0.717,-1.119,-111.877,20.202,114.074,1
8.722589,0.489,-0.632,-1.17,-117.248,21.362,121.032,1
8.730874,0.52,-0.573,-1.228,-120.178,21.606,127.868,1
8.739299,0.531,-0.504,-1.264,-118.713,21.118,133.483,1
8.745895,0.559,-0.435,-1.279,-113.098,19.775,139.465,1
8.754657,0.559,-0.378,-1.273,-103.149,19.042,144.165,1
8.761288,0.6,-0.331,-1.268,-91.613,18.066,148.376,1
8.769641,0.593,-0.272,-1.239,-82.824,17.333,152.221,1
8.777624,0.555,-0.163,-1.206,-71.533,16.906,156.005,1
8.784378,0.565,-0.145,-1.195,-67.871,16.662,158.752,1
8.792753,0.5,-0.104,-1.144,-73.486,16.601,161.193,1
8.79978,0.424,-0.062,-1.112,-84.533,18.554,164.794,1
8.808929,0.425,-0.037,-1.095,-99.487,19.958,166.748,1
8.817383,0.362,-0.015,-1.057,-116.088,21.667,168.151,1
8.824519,0.286,0.007,-1.033,-132.019,24.291,169.372,1
8.832962,0.248,0.028,-1.013,-144.47,26.306,170.104,1
8.839838,0.202,0.066,-0.982,-151.611,28.32,170.471,1
8.847804,0.173,0.091,-0.953,-150.451,29.907,169.982,1
8.854375,0.172,0.105,-0.912,-142.333,31.005,169.921,1
8.862674,0.187,0.117,-0.879,-130.371,31.86,170.043,1
8.869405,0.169,0.129,-0.85,-115.966,32.47,170.349,1
8.877703,0.169,0.141,-0.816,-102.844,32.775,171.508,1
8.885568,0.114,0.147,-0.798,-95.642,33.325,172.363,1
8.892538,0.124,0.143,-0.76,-101.013,35.766,173.461,1
8.899348,0.145,0.156,-0.729,-108.764,36.865,173.828,1
8.908096,0.107,0.163,-0.681,-118.164,39.489,174.072,1
8.914385,0.063,0.156,-0.66,-133.972,43.09,174.438,1
8.920985,0.031,0.185,-0.631,-142.639,48.461,173.889,1
8.92977,0.045,0.17,-0.605,-151.855,49.255,172.79,1
8.937656,0.063,0.171,-0.554,-161.254,57.495,172.973,1
8.944125,0.071,0.176,-0.591,-172.363,60.546,173.339,1
8.952836,0.031,0.184,-0.51,-181.823,65.734,174.072,1
8.961165,0.042,0.192,-0.511,-183.776,71.289,175.598,1
8.968001,0.046,0.21,-0.468,-176.452,73.913,177.246,1
8.974897,0.062,0.187,-0.428,-161.437,78.063,178.466,1
8.98308,0.071,0.163,-0.396,-146.179,80.627,180.114,1
8.990119,0.09,0.137,-0.368,-129.516,84.716,181.823,1
8.998515,0.084,0.116,-0.365,-113.586,87.646,183.166,1
9.005224,0.036,0.107,-0.358,-99.06,91.064,184.631,1
9.013558,-0.012,0.097,-0.374,-88.745,93.933,186.035,1
9.021459,-0.062,0.088,-0.383,-82.458,96.74,187.744,1
9.029278,-0.082,0.086,-0.397,-76.843,100.158,190.429,1
9.037504,-0.098,0.1,-0.414,-71.35,102.478,192.749,1
9.044121,-0.169,0.118,-0.419,-61.401,104.187,194.946,1
9.05198,-0.238,0.14,-0.403,-41.564,104.309,197.814,1
9.060455,-0.227,0.164,-0.387,-10.986,102.478,200.744,1
9.067119,-0.19,0.161,-0.362,24.963,100.463,204.223,1
9.074358,-0.191,0.155,-0.378,54.382,98.754,208.496,1
9.083818,-0.268,0.159,-0.421,67.565,97.106,212.402,1
9.090359,-0.383,0.19,-0.467,66.467,96.74,215.82,1
9.098328,-0.456,0.22,-0.528,52.49,96.313,218.566,1
9.107026,-0.545,0.278,-0.539,26.428,98.388,220.886,1
9.113473,-0.613,0.351,-0.578,4.882,99.792,221.862,1
9.122373,-0.652,0.406,-0.577,-10.009,100.524,221.984,1
9.128945,-0.674,0.455,-0.568,-15.991,101.257,221.801,1
9.135983,-0.67,0.491,-0.566,-12.756,101.074,221.801,1
9.144683,-0.591,0.533,-0.553,-2.319,99.121,222.351,1
9.15132,-0.612,0.581,-0.583,10.803,98.327,223.083,1
9.158202,-0.639,0.62,-0.609,18.127,96.313,223.327,1
9.165865,-0.636,0.671,-0.627,22.888,94.055,224.182,1
9.172809,-0.641,0.727,-0.679,22.155,92.041,223.876,1
9.181284,-0.659,0.781,-0.705,18.981,89.355,223.205,1
9.188293,-0.657,0.832,-0.722,19.104,87.28,222.412,1
9.195613,-0.638,0.872,-0.75,24.963,83.984,221.13,1
9.203832,-0.622,0.899,-0.745,35.4,81.237,220.031,1
9.212595,-0.593,0.915,-0.773,44.738,78.43,218.994,1
9.218701,-0.613,0.939,-0.798,48.339,75.744,217.773,1
9.227134,-0.64,0.966,-0.829,49.438,73.791,216.613,1
9.234882,-0.646,1.002,-0.865,50.842,71.533,214.904,1
9.241845,-0.644,1.038,-0.894,52.612,69.396,213.195,1
9.249908,-0.626,1.064,-0.934,51.513,67.199,210.571,1
9.256738,-0.616,1.087,-0.939,47.546,65.002,207.885,1
9.265614,-0.625,1.105,-0.951,42.724,63.598,204.895,1
9.272152,-0.596,1.124,-0.956,38.146,62.805,201.477,1
9.280939,-0.602,1.13,-0.987,31.372,62.316,197.998,1
9.288483,-0.609,1.144,-1.009,21.85,61.645,194.396,1
9.295233,-0.635,1.163,-1.016,15.197,61.34,190.551,1
9.301998,-0.623,1.182,-1.039,15.075,60.546,187.011,1
9.310056,-0.6,1.196,-1.049,21.423,58.166,183.288,1
9.317201,-0.574,1.203,-1.056,34.24,55.541,179.931,1
9.325512,-0.522,1.186,-1.069,47.668,51.818,176.94,1
9.33425,-0.481,1.16,-1.068,60.363,48.583,174.316,1
9.340804,-0.453,1.122,-1.063,71.655,45.41,172.18,1
9.349727,-0.433,1.087,-1.062,77.27,42.541,170.837,1
9.3568,-0.41,1.071,-1.07,77.331,40.283,169.738,1
9.36425,-0.411,1.074,-1.081,73.12,38.635,168.884,1
9.372087,-0.431,1.072,-1.093,64.27,37.048,167.541,1
9.378644,-0.442,1.06,-1.081,55.541,36.132,166.503,1
9.385422,-0.447,1.047,-1.061,45.104,36.193,165.405,1
9.393296,-0.456,1.038,-1.047,38.818,35.827,164.611,1
9.401198,-0.464,1.041,-1.024,40.039,35.4,164.306,1
9.407916,-0.478,1.049,-1.019,47.912,34.24,163.574,1
9.416302,-0.487,1.061,-1.024,59.692,32.653,163.146,1
9.424317,-0.501,1.065,-1.051,66.894,30.761,161.621,1
9.431148,-0.529,1.059,-1.068,66.284,28.442,160.766,1
9.439477,-0.554,1.055,-1.074,59.387,27.221,159.118,1
9.44835,-0.554,1.043,-1.081,46.752,26.123,157.592,1
9.455331,-0.558,1.041,-1.071,31.86,25.085,155.639,1
9.462333,-0.548,1.039,-1.062,26.489,23.986,154.174,1
9.468979,-0.548,1.027,-1.038,27.465,22.399,152.465,1
9.476247,-0.537,1.009,-1.024,32.958,20.935,151.428,1
9.484354,-0.543,1.009,-1.028,39.611,19.042,150.634,1
9.490774,-0.548,1.025,-1.03,49.499,16.357,149.536,1
9.498797,-0.559,1.033,-1.032,60.302,13.793,148.498,1
9.505737,-0.554,1.037,-1.029,75.866,10.07,147.644,1
9.514034,-0.545,1.032,-1.007,93.933,5.615,146.911,1
9.520644,-0.541,1.025,-0.986,112.67,1.159,145.568,1
9.528547,-0.541,1.001,-0.957,128.601,-3.356,145.141,1
9.536863,-0.549,0.988,-0.938,138.122,-6.896,144.531,1
9.543522,-0.554,0.988,-0.934,139.587,-10.07,143.676,1
9.552406,-0.566,0.985,-0.917,136.047,-12.939,142.395,1
9.558669,-0.565,0.99,-0.892,131.225,-15.686,141.113,1
9.567672,-0.569,0.985,-0.859,127.868,-17.456,139.831,1
9.57432,-0.575,0.99,-0.831,125.122,-18.981,138.671,1
9.582326,-0.572,0.996,-0.812,123.413,-20.812,137.695,1
9.590639,-0.582,1.011,-0.799,124.206,-22.949,136.23,1
9.597271,-0.593,1.033,-0.768,130.798,-25.39,134.765,1
9.606285,-0.589,1.045,-0.737,144.897,-28.869,133.178,1
9.612636,-0.588,1.042,-0.717,164.184,-33.142,131.469,1
9.621501,-0.587,1.029,-0.703,173.95,-35.949,129.699,1
9.628306,-0.583,1.007,-0.685,173.583,-37.658,128.356,1
9.63683,-0.581,1.0,-0.666,166.442,-38.818,126.77,1
9.643253,-0.574,1.0,-0.65,155.212,-39.672,125.122,1
9.652116,-0.597,0.978,-0.633,140.991,-39.916,123.657,1
9.658731,-0.555,0.995,-0.616,124.45,-39.611,122.375,1
9.667744,-0.571,1.003,-0.591,116.638,-39.672,120.422,1
9.673804,-0.586,1.009,-0.578,114.562,-40.161,118.713,1
9.68077,-0.582,1.002,-0.566,114.074,-41.32,116.699,1
9.689122,-0.575,1.0,-0.546,116.699,-42.236,115.234,1
9.696058,-0.587,0.991,-0.534,120.422,-43.09,113.403,1
9.704805,-0.589,0.978,-0.528,118.225,-44.006,111.999,1
9.711204,-0.583,0.974,-0.515,111.999,-44.006,110.29,1
9.719329,-0.591,0.974,-0.492,106.933,-43.945,108.764,1
9.727838,-0.594,0.973,-0.471,107.238,-44.189,107.116,1
9.73436,-0.588,0.982,-0.452,113.22,-44.982,105.163,1
9.741355,-0.585,0.965,-0.441,121.215,-46.02,103.759,1
9.749837,-0.581,0.937,-0.431,126.037,-46.997,102.172,1
9.756843,-0.562,0.919,-0.412,129.089,-47.546,100.952,1
9.7646,-0.576,0.908,-0.403,130.859,-47.851,99.426,1
9.772447,-0.589,0.895,-0.407,127.319,-47.851,98.327,1
9.779076,-0.6,0.889,-0.404,114.807,-47.424,96.618,1
9.78809,-0.612,0.87,-0.4,101.684,-46.813,95.336,1
9.796393,-0.622,0.874,-0.396,82.763,-45.41,93.688,1
9.803376,-0.648,0.871,-0.39,70.434,-43.884,92.407,1
9.812238,-0.673,0.891,-0.39,63.232,-43.457,90.576,1
9.819646,-0.687,0.895,-0.372,62.133,-43.395,89.66,1
9.826375,-0.692,0.898,-0.363,68.786,-43.884,88.012,1
9.833248,-0.705,0.872,-0.352,76.599,-44.677,87.707,1
9.841599,-0.717,0.861,-0.341,85.876,-45.227,86.791,1
9.849621,-0.737,0.857,-0.333,93.322,-45.837,85.998,1
9.856582,-0.756,0.868,-0.336,98.327,-46.081,84.838,1
9.864393,-0.742,0.875,-0.33,100.708,-46.203,83.374,1
9.871387,-0.755,0.857,-0.319,101.013,-46.325,81.848,1
9.879569,-0.763,0.85,-0.304,99.792,-45.898,80.2,1
9.887913,-0.788,0.829,-0.296,96.862,-45.41,78.552,1
9.896176,-0.797,0.828,-0.293,93.811,-44.372,76.782,1
9.903308,-0.827,0.807,-0.288,90.942,-43.395,75.256,1
9.911317,-0.843,0.779,-0.29,86.364,-42.419,73.608,1
9.919691,-0.853,0.753,-0.286,83.251,-41.87,72.509,1
9.927984,-0.857,0.728,-0.274,83.19,-41.137,72.143,1
9.935021,-0.863,0.699,-0.278,83.74,-40.588,71.838,1
9.943239,-0.856,0.669,-0.271,85.144,-40.222,71.655,1
9.949466,-0.825,0.641,-0.271,85.998,-39.611,72.082,1
9.9576,-0.801,0.61,-0.263,87.219,-39.55,72.875,1
9.964698,-0.789,0.598,-0.261,88.5,-39.001,73.608,1
9.973447,-0.785,0.595,-0.271,91.186,-39.306,74.279,1
9.981636,-0.78,0.605,-0.27,97.9,-40.039,74.89,1
9.988102,-0.768,0.615,-0.271,108.703,-41.198,75.134,1
9.995919,-0.762,0.625,-0.274,122.314,-43.212,75.195,1
