timestamp_s,ax,ay,az,gx,gy,gz,label
0.005954,-0.013,0.971,0.277,-0.183,0.366,-0.488,1
0.01297,-0.011,0.973,0.275,-0.671,0.061,0.0,1
0.022042,-0.013,0.969,0.27,-0.976,-0.061,-0.244,1
0.02873,-0.012,0.97,0.268,-0.854,0.366,-0.183,1
0.035885,-0.015,0.966,0.264,-0.671,0.183,-0.305,1
0.043729,-0.014,0.962,0.263,-0.488,-0.061,-0.244,1
0.050971,-0.014,0.969,0.264,-0.244,0.0,-0.305,1
0.058566,-0.019,0.968,0.26,0.244,0.0,-0.305,1
0.067015,-0.02,0.966,0.265,1.037,-0.244,-0.244,1
0.075167,-0.016,0.973,0.268,1.586,-0.244,-0.183,1
0.083469,-0.018,0.969,0.265,1.953,-0.549,-0.061,1
0.089801,-0.017,0.968,0.269,2.441,-0.488,-0.183,1
0.097814,-0.011,0.966,0.27,2.075,-0.549,-0.244,1
0.105837,-0.01,0.97,0.273,1.037,-0.366,-0.244,1
0.112375,-0.011,0.97,0.277,0.183,-0.183,-0.427,1
0.119454,-0.009,0.971,0.277,-0.793,0.061,-0.366,1
0.12797,-0.01,0.972,0.279,-1.586,-0.122,-0.488,1
0.134578,-0.012,0.974,0.278,-2.075,0.0,-0.427,1
0.142964,-0.015,0.973,0.27,-2.075,0.122,-0.366,1
0.149978,-0.011,0.965,0.272,-1.77,-0.122,-0.488,1
0.158412,-0.014,0.962,0.27,-1.953,-0.061,-0.427,1
0.164994,-0.017,0.965,0.262,-0.976,-0.244,-0.061,1
0.174453,-0.015,0.968,0.265,-0.122,-0.183,-0.366,1
0.180986,-0.017,0.964,0.266,0.976,-0.488,-0.244,1
0.189322,-0.016,0.964,0.267,1.586,-0.305,-0.244,1
0.196082,-0.017,0.964,0.27,2.075,-0.671,-0.427,1
0.204039,-0.016,0.964,0.276,2.441,-0.793,-0.366,1
0.212353,-0.013,0.96,0.282,2.075,-0.366,-0.427,1
0.220423,-0.009,0.963,0.283,1.342,-0.366,-0.488,1
0.2283,-0.015,0.962,0.287,0.366,0.061,-0.305,1
0.235176,-0.016,0.962,0.283,-0.488,0.183,-0.183,1
0.243764,-0.012,0.959,0.283,-1.281,0.122,-0.366,1
0.250533,-0.014,0.958,0.275,-1.586,0.427,-0.183,1
0.257533,-0.015,0.961,0.275,-1.464,0.366,0.061,1
0.26573,-0.018,0.957,0.271,-1.281,0.244,0.183,1
0.272372,-0.014,0.959,0.27,-0.671,0.061,0.0,1
0.279341,-0.013,0.959,0.27,-0.061,0.122,0.061,1
0.286319,-0.013,0.961,0.273,0.0,0.244,0.183,1
0.293432,-0.018,0.963,0.273,0.366,0.0,0.305,1
0.302045,-0.014,0.96,0.273,1.037,0.0,0.366,1
0.308619,-0.013,0.967,0.271,1.464,0.183,0.244,1
0.315561,-0.01,0.97,0.271,1.953,0.0,0.305,1
0.324382,-0.011,0.972,0.268,1.953,-0.061,-0.122,1
0.332411,-0.014,0.965,0.266,1.953,-0.183,0.061,1
0.339495,-0.014,0.968,0.266,2.197,-0.183,0.061,1
0.34735,-0.018,0.963,0.267,1.892,-0.122,0.366,1
0.354214,-0.011,0.96,0.274,1.037,-0.244,0.244,1
0.361473,-0.011,0.962,0.277,-0.122,0.122,0.122,1
0.369743,-0.014,0.966,0.282,-0.61,0.061,0.305,1
0.376628,-0.015,0.968,0.278,-0.915,0.244,0.122,1
0.384156,-0.015,0.97,0.278,-0.793,0.366,0.0,1
0.39249,-0.013,0.971,0.277,-0.732,0.061,0.366,1
0.398968,-0.018,0.972,0.278,0.061,0.061,-0.061,1
0.407556,-0.017,0.973,0.28,0.61,0.305,-0.122,1
0.414358,-0.013,0.97,0.274,0.976,0.0,-0.305,1
0.42279,-0.016,0.97,0.273,1.464,-0.122,-0.122,1
0.431134,-0.017,0.972,0.27,1.22,0.183,-0.122,1
0.438184,-0.019,0.966,0.256,1.281,-0.061,0.122,1
0.446554,-0.019,0.96,0.251,1.403,-0.427,-0.183,1
0.455136,-0.015,0.954,0.248,1.342,-0.793,0.122,1
0.461587,-0.009,0.958,0.258,1.159,-0.854,0.244,1
0.470065,-0.011,0.956,0.264,0.122,-1.037,0.061,1
0.478268,-0.013,0.959,0.27,-0.976,-0.976,0.305,1
0.48535,-0.018,0.962,0.274,-1.647,-0.976,0.305,1
0.49335,-0.013,0.959,0.274,-2.563,-0.671,0.488,1
0.501626,-0.005,0.963,0.278,-2.624,-0.793,0.366,1
0.509488,0.0,0.967,0.273,-1.892,-0.915,0.366,1
0.517412,-0.001,0.962,0.279,-0.732,-0.976,0.549,1
0.525305,-0.005,0.968,0.281,1.098,-0.793,0.671,1
0.533369,-0.009,0.968,0.28,2.746,-0.915,0.366,1
0.541315,-0.02,0.968,0.28,3.295,-0.732,0.183,1
0.548269,-0.025,0.971,0.28,2.502,-0.671,0.427,1
0.556598,-0.03,0.966,0.276,0.671,-0.549,0.427,1
0.563545,-0.028,0.975,0.274,-0.549,-0.427,0.244,1
0.571845,-0.019,0.978,0.278,-0.549,-0.427,0.122,1
0.580412,-0.015,0.98,0.274,-0.305,-0.549,-0.061,1
0.587086,-0.016,0.978,0.273,-0.244,-0.671,-0.183,1
0.595449,-0.014,0.976,0.27,-1.22,-0.854,-0.061,1
0.603627,-0.013,0.971,0.263,-2.319,-0.549,-0.244,1
0.611022,-0.004,0.968,0.265,-2.868,-0.671,-0.183,1
0.619675,-0.004,0.971,0.274,-2.502,-0.671,-0.366,1
0.626507,0.002,0.977,0.278,-2.014,-0.61,-0.549,1
0.633931,0.002,0.971,0.288,-1.464,-0.61,-0.427,1
0.641976,-0.003,0.968,0.29,-0.61,-0.427,-0.366,1
0.649818,-0.008,0.964,0.295,0.061,-0.244,-0.183,1
0.65683,-0.012,0.961,0.287,0.854,0.183,-0.244,1
0.663844,-0.016,0.96,0.286,1.22,0.122,-0.183,1
0.671059,-0.019,0.953,0.279,1.647,0.183,-0.549,1
0.679532,-0.024,0.949,0.283,2.014,0.427,-0.61,1
0.686513,-0.023,0.95,0.281,2.014,0.244,-0.305,1
0.694875,-0.023,0.951,0.285,1.464,0.427,-0.061,1
0.702992,-0.022,0.951,0.29,0.183,0.793,-0.122,1
0.710839,-0.021,0.955,0.29,-0.183,0.976,0.061,1
0.717833,-0.02,0.955,0.283,-0.244,1.281,0.183,1
0.72533,-0.021,0.956,0.283,0.122,1.159,0.366,1
0.732404,-0.021,0.951,0.268,0.549,1.098,0.305,1
0.740343,-0.019,0.954,0.268,0.793,0.976,0.549,1
0.747017,-0.017,0.95,0.269,1.037,1.159,0.671,1
0.754955,-0.02,0.953,0.266,0.854,0.976,0.793,1
0.761854,-0.021,0.957,0.264,0.915,1.098,0.915,1
0.76886,-0.014,0.956,0.267,1.281,0.854,1.22,1
0.776458,-0.015,0.963,0.273,1.586,0.793,0.976,1
0.783352,-0.013,0.965,0.271,1.708,0.793,1.098,1
0.791258,-0.011,0.968,0.275,1.586,0.915,1.159,1
0.798222,-0.007,0.967,0.277,1.647,0.854,0.854,1
0.806431,-0.013,0.972,0.274,1.647,1.098,0.732,1
0.813193,-0.012,0.972,0.272,1.892,1.037,0.976,1
0.820146,-0.013,0.97,0.265,2.075,0.793,0.976,1
0.82691,-0.019,0.964,0.263,2.136,0.732,0.915,1
0.835351,-0.023,0.966,0.258,2.624,0.793,0.854,1
0.841747,-0.02,0.969,0.25,2.807,0.488,0.915,1
0.848471,-0.021,0.971,0.25,3.112,0.061,0.854,1
0.856702,-0.023,0.973,0.25,3.234,-0.183,0.793,1
0.863737,-0.018,0.971,0.257,2.441,-0.305,0.732,1
0.872047,-0.013,0.973,0.262,2.075,-0.244,0.671,1
0.880164,-0.012,0.975,0.265,1.525,-0.061,0.732,1
0.886712,-0.011,0.977,0.269,0.488,0.0,0.671,1
0.895145,-0.014,0.974,0.27,-0.122,0.061,0.488,1
0.901848,-0.014,0.979,0.266,-0.061,0.0,0.305,1
0.909862,-0.014,0.979,0.264,0.427,-0.122,0.305,1
0.917318,-0.019,0.972,0.263,0.854,-0.061,0.183,1
0.923895,-0.02,0.974,0.26,1.953,-0.244,0.122,1
0.932334,-0.026,0.978,0.257,2.807,-0.61,0.061,1
0.938797,-0.027,0.965,0.254,2.319,-0.793,-0.061,1
0.946811,-0.023,0.967,0.266,1.647,-1.037,-0.183,1
0.953738,-0.027,0.97,0.268,0.732,-0.793,-0.183,1
0.960725,-0.027,0.973,0.272,0.488,-0.976,-0.122,1
0.970576,-0.022,0.97,0.275,-0.061,-1.159,-0.244,1
0.978284,-0.025,0.971,0.27,-1.159,-0.915,-0.366,1
0.984748,-0.02,0.968,0.277,-2.807,-0.915,-0.366,1
0.993036,-0.021,0.97,0.281,-4.577,-0.854,-0.305,1
0.999743,-0.013,0.973,0.29,-6.042,-0.366,-0.305,1
1.007651,-0.007,0.975,0.29,-6.225,-0.244,-0.305,1
1.016057,-0.008,0.97,0.279,-5.92,-0.061,-0.549,1
1.024175,-0.01,0.97,0.28,-4.333,-0.061,-0.427,1
1.031922,-0.011,0.964,0.274,-2.99,-0.122,-0.854,1
1.040124,-0.02,0.954,0.272,-1.77,-0.244,-0.305,1
1.047167,-0.02,0.952,0.269,-1.525,-0.549,-0.427,1
1.05574,-0.023,0.958,0.273,-1.159,-0.732,-0.183,1
1.06267,-0.025,0.96,0.273,0.671,-0.549,-0.244,1
1.070981,-0.021,0.953,0.275,2.685,-0.915,-0.061,1
1.07753,-0.021,0.955,0.276,4.089,-1.098,-0.061,1
1.08571,-0.02,0.952,0.288,4.15,-0.976,0.0,1
1.092224,-0.02,0.95,0.286,3.662,-0.671,0.122,1
1.099585,-0.025,0.96,0.298,2.807,-0.427,0.183,1
1.107558,-0.013,0.955,0.294,2.502,-0.122,0.244,1
1.114536,-0.014,0.956,0.293,1.159,0.122,0.488,1
1.122315,-0.019,0.951,0.291,0.183,0.366,0.61,1
1.130206,-0.02,0.948,0.284,-0.244,0.549,0.793,1
1.137038,-0.018,0.959,0.286,0.0,0.793,0.915,1
1.144219,-0.026,0.95,0.28,-0.427,0.671,1.098,1
1.152604,-0.021,0.946,0.278,-1.22,0.61,1.281,1
1.159253,-0.022,0.951,0.275,-1.403,0.854,1.342,1
1.167195,-0.024,0.956,0.275,-1.098,0.488,1.525,1
1.173335,-0.019,0.963,0.276,0.366,0.976,1.647,1
1.180452,-0.016,0.958,0.275,2.075,0.488,1.525,1
1.189277,-0.016,0.967,0.282,3.051,0.305,1.647,1
1.195749,-0.019,0.963,0.285,3.051,0.549,1.525,1
1.202315,-0.017,0.975,0.284,2.014,0.427,1.403,1
1.210624,-0.017,0.989,0.276,0.915,0.244,1.525,1
1.217175,-0.01,1.016,0.276,0.976,0.061,1.22,1
1.22391,0.003,1.052,0.284,2.075,-0.366,1.22,1
1.231048,0.016,1.088,0.277,3.417,-0.915,1.037,1
1.238642,0.01,1.109,0.279,3.356,-1.22,0.671,1
1.245951,0.0,1.122,0.293,1.77,-1.708,0.366,1
1.254531,-0.019,1.141,0.333,-2.502,-1.098,-0.183,1
1.262937,-0.046,1.161,0.368,-8.728,-0.061,-0.854,1
1.269888,-0.066,1.167,0.397,-17.272,1.831,-2.258,1
1.277075,-0.067,1.174,0.409,-25.939,4.272,-3.845,1
1.285173,-0.065,1.191,0.396,-33.386,6.713,-5.249,1
1.293012,-0.052,1.199,0.357,-38.33,8.728,-6.835,1
1.299519,-0.043,1.189,0.297,-39.672,9.582,-8.3,1
1.307747,-0.031,1.161,0.226,-40.039,10.131,-10.131,1
1.314957,-0.014,1.136,0.142,-39.55,10.253,-11.84,1
1.323188,-0.002,1.106,0.074,-38.085,8.911,-13.793,1
1.331255,-0.002,1.077,0.031,-35.4,7.08,-15.014,1
1.338274,0.003,1.062,-0.002,-32.775,4.821,-16.113,1
1.346783,0.012,1.054,-0.011,-29.418,1.953,-17.15,1
1.354031,0.018,1.044,-0.014,-25.268,-0.61,-17.883,1
1.362244,0.038,1.049,0.01,-19.775,-3.784,-19.104,1
1.370552,0.045,1.068,0.047,-13.549,-6.164,-20.141,1
1.377609,0.044,1.097,0.076,-6.347,-7.873,-21.301,1
1.385817,0.05,1.101,0.092,-2.258,-9.338,-22.277,1
1.393661,0.051,1.072,0.1,-6.042,-10.314,-22.949,1
1.401813,0.073,1.087,0.107,-13.488,-10.559,-23.803,1
1.409641,0.072,1.103,0.128,-18.615,-10.986,-24.841,1
1.416458,0.063,1.099,0.126,-22.338,-11.413,-25.939,1
1.42444,0.071,1.083,0.131,-24.658,-11.901,-26.855,1
1.432786,0.071,1.059,0.118,-27.954,-12.39,-27.587,1
1.439777,0.048,1.041,0.105,-33.508,-13.0,-28.198,1
1.447795,0.023,1.019,0.086,-36.132,-13.977,-28.442,1
1.45615,0.001,1.002,0.071,-37.841,-15.747,-28.564,1
1.464296,-0.023,0.976,0.06,-38.085,-17.517,-27.954,1
1.471137,-0.027,0.981,0.063,-36.132,-19.104,-28.442,1
1.47953,-0.026,0.971,0.063,-32.592,-21.179,-28.625,1
1.486078,-0.06,0.958,0.076,-28.747,-23.193,-28.93,1
1.494066,-0.065,0.933,0.086,-26.184,-24.536,-28.686,1
1.50389,-0.037,0.921,0.096,-23.925,-25.817,-28.381,1
1.510728,-0.026,0.916,0.115,-20.202,-26.977,-27.893,1
1.51793,0.002,0.92,0.137,-15.075,-27.893,-27.221,1
1.526772,0.022,0.924,0.161,-9.521,-28.442,-27.099,1
1.533642,0.047,0.927,0.203,-4.15,-28.503,-26.245,1
1.54165,0.068,0.941,0.22,-1.281,-27.709,-25.878,1
1.549904,0.087,0.966,0.237,0.183,-26.611,-25.878,1
1.557502,0.094,0.993,0.252,0.488,-24.78,-25.756,1
1.565857,0.082,1.012,0.248,-2.197,-23.315,-26.367,1
1.573683,0.053,1.02,0.23,-8.239,-21.789,-27.099,1
1.580332,0.034,1.002,0.203,-18.92,-20.568,-27.282,1
1.588799,0.026,0.99,0.176,-31.738,-19.47,-27.404,1
1.597084,0.04,0.992,0.159,-43.518,-18.859,-26.794,1
1.604039,0.066,1.013,0.158,-46.813,-18.981,-26.428,1
1.612336,0.092,1.047,0.17,-43.579,-19.042,-26.0,1
1.619079,0.125,1.072,0.187,-36.987,-18.92,-25.573,1
1.626941,0.165,1.106,0.207,-32.47,-18.432,-25.451,1
1.634035,0.197,1.166,0.235,-31.494,-17.028,-26.0,1
1.641587,0.214,1.234,0.238,-34.423,-14.648,-26.855,1
1.648555,0.213,1.297,0.228,-44.128,-12.268,-28.259,1
1.655998,0.233,1.356,0.209,-57.556,-9.826,-29.296,1
1.664711,0.253,1.403,0.202,-77.209,-7.019,-30.639,1
1.672102,0.267,1.407,0.157,-97.534,-2.807,-31.86,1
1.679745,0.311,1.377,0.097,-111.145,-0.976,-32.775,1
1.686401,0.271,1.401,0.083,-112.731,-0.366,-33.325,1
1.694317,0.25,1.427,0.103,-101.379,-1.403,-33.386,1
1.70083,0.271,1.445,0.134,-75.317,-2.624,-34.362,1
1.710281,0.243,1.457,0.137,-41.748,-3.295,-36.01,1
1.717088,0.26,1.418,0.125,-10.253,-5.004,-38.146,1
1.725386,0.378,1.367,-0.02,-5.676,-3.356,-40.527,1
1.73335,0.368,1.273,0.083,-19.47,-1.831,-42.663,1
1.740239,0.381,1.148,0.009,-41.87,3.967,-43.334,1
1.749053,0.357,1.132,0.061,-67.749,4.211,-44.738,1
1.756985,0.405,1.157,0.072,-78.491,10.437,-44.555,1
1.763927,0.404,1.243,0.1,-83.19,9.216,-45.776,1
1.771716,0.454,1.312,0.112,-76.416,12.817,-46.752,1
1.778736,0.475,1.375,0.1,-68.115,11.169,-48.706,1
1.787316,0.477,1.444,0.126,-55.725,12.878,-51.208,1
1.79365,0.5,1.509,0.104,-43.151,11.779,-53.955,1
1.802206,0.542,1.578,0.128,-30.578,12.268,-57.25,1
1.809788,0.592,1.633,0.118,-23.62,12.268,-60.913,1
1.816604,0.603,1.691,0.136,-21.362,13.305,-64.941,1
1.824677,0.617,1.761,0.132,-23.193,14.587,-69.641,1
1.831648,0.593,1.828,0.15,-29.235,16.54,-74.951,1
1.838752,0.579,1.88,0.147,-36.132,18.432,-80.871,1
1.847117,0.555,1.94,0.153,-40.039,19.592,-87.585,1
1.854,0.541,1.977,0.15,-39.123,20.507,-94.36,1
1.861927,0.54,2.005,0.149,-32.836,20.141,-101.135,1
1.869956,0.544,2.0,0.142,-21.789,19.836,-108.093,1
1.87852,0.561,1.972,0.137,-5.859,18.31,-115.722,1
1.88549,0.575,1.936,0.126,7.019,17.7,-121.337,1
1.893782,0.58,1.9,0.116,15.197,17.456,-126.647,1
1.900739,0.581,1.865,0.102,15.624,17.822,-131.713,1
1.9089,0.547,1.829,0.085,5.859,19.348,-137.084,1
1.915546,0.523,1.798,0.069,-11.047,20.874,-142.089,1
1.923449,0.511,1.761,0.06,-28.137,21.972,-146.057,1
1.929916,0.494,1.745,0.062,-46.813,23.071,-150.634,1
1.93887,0.455,1.72,0.053,-57.495,22.949,-155.639,1
1.945321,0.403,1.677,0.042,-63.476,22.155,-160.095,1
1.953182,0.415,1.609,0.017,-68.359,20.996,-164.367,1
1.959655,0.399,1.562,0.005,-71.044,19.348,-167.663,1
1.966643,0.334,1.385,-0.065,-81.115,18.188,-168.945,1
1.975274,0.453,1.4,-0.079,-125.305,16.052,-166.503,1
1.981981,0.52,1.293,-0.067,-140.197,15.136,-172.18,1
1.990162,0.388,1.298,-0.097,-148.254,13.61,-174.377,1
1.996718,0.361,1.225,-0.115,-157.958,7.629,-175.659,1
2.005093,0.341,1.128,-0.122,-166.992,5.004,-176.086,1
2.012036,0.399,1.019,-0.17,-193.298,-0.488,-176.696,1
2.020557,0.193,0.947,-0.166,-219.97,-3.479,-174.987,1
2.0272,0.233,0.909,-0.199,-237.976,-10.681,-173.4,1
2.035662,0.187,0.89,-0.176,-238.769,-16.906,-171.325,1
2.042272,0.152,0.913,-0.164,-213.806,-24.414,-170.898,1
2.050104,0.137,0.933,-0.159,-165.588,-34.24,-170.959,1
2.058606,0.106,0.955,-0.158,-96.557,-44.799,-170.959,1
2.06533,0.073,0.999,-0.139,-6.53,-55.541,-172.424,1
2.07377,0.104,1.029,-0.142,94.238,-64.697,-175.231,1
2.080345,0.154,0.951,-0.171,177.185,-72.021,-178.1,1
2.088714,0.168,0.865,-0.189,226.562,-75.317,-180.419,1
2.096586,0.173,0.769,-0.177,244.201,-75.5,-182.189,1
2.104684,0.2,0.706,-0.179,231.323,-71.166,-182.8,1
2.112534,0.126,0.74,-0.131,206.054,-65.551,-182.25,1
2.120928,0.119,0.751,-0.151,178.955,-61.401,-183.654,1
2.129428,0.147,0.722,-0.081,142.028,-54.809,-182.312,1
2.137441,0.226,0.75,-0.096,102.905,-52.185,-183.532,1
2.143953,0.185,0.763,-0.066,70.8,-49.438,-184.692,1
2.151126,0.168,0.856,-0.029,48.706,-48.461,-184.997,1
2.159577,0.156,0.887,-0.013,45.227,-49.804,-187.866,1
2.166741,0.043,0.89,0.036,62.194,-53.955,-189.514,1
2.173761,0.024,0.829,0.054,86.608,-56.701,-190.246,1
2.182173,0.036,0.732,0.109,94.482,-59.143,-188.72,1
2.18881,0.067,0.662,0.115,106.689,-57.983,-190.429,1
2.19616,-0.085,0.591,0.16,111.145,-57.25,-191.65,1
2.204581,0.122,0.492,0.152,106.994,-51.025,-191.65,1
2.212753,0.155,0.453,0.173,94.055,-46.63,-193.847,1
2.21879,0.062,0.391,0.188,87.89,-38.696,-194.763,1
2.228293,0.176,0.322,0.238,88.806,-35.4,-195.8,1
2.234645,0.274,0.25,0.278,105.224,-26.733,-197.509,1
2.242587,0.304,0.208,0.297,128.295,-20.935,-200.256,1
2.250454,0.233,0.135,0.334,151.123,-10.864,-202.331,1
2.256689,0.103,0.034,0.351,155.029,-2.624,-203.552,1
2.264623,-0.018,-0.036,0.398,144.775,8.666,-202.758,1
2.272599,-0.102,-0.101,0.416,122.619,16.967,-201.416,1
2.28084,-0.205,-0.151,0.468,100.036,26.611,-198.364,1
2.28928,-0.287,-0.192,0.486,83.129,33.264,-195.373,1
2.29591,-0.348,-0.226,0.534,78.369,40.344,-192.016,1
2.303301,-0.367,-0.267,0.547,83.129,45.959,-187.194,1
2.311983,-0.406,-0.314,0.575,96.801,52.734,-182.556,1
2.319838,-0.465,-0.366,0.581,117.797,59.326,-176.086,1
2.327545,-0.555,-0.429,0.608,134.826,67.26,-169.799,1
2.334516,-0.621,-0.512,0.613,145.874,75.561,-162.963,1
2.342421,-0.689,-0.612,0.633,148.681,86.486,-155.212,1
2.350327,-0.782,-0.669,0.641,148.559,97.412,-145.935,1
2.358694,-0.853,-0.808,0.643,145.812,109.558,-136.23,1
2.366795,-0.953,-0.917,0.607,122.192,124.694,-122.863,1
2.374523,-0.961,-1.003,0.58,92.651,138.854,-111.45,1
2.380942,-0.967,-1.074,0.54,65.856,152.709,-98.937,1
2.388739,-0.961,-1.173,0.483,40.222,164.001,-85.632,1
2.396494,-0.961,-1.274,0.451,22.094,175.537,-70.8,1
2.404699,-1.011,-1.395,0.39,10.07,186.096,-54.443,1
2.411686,-1.101,-1.541,0.336,4.882,198.608,-34.057,1
2.419914,-1.211,-1.636,0.271,5.615,207.092,-18.066,1
2.42831,-1.317,-1.738,0.204,11.047,216.247,2.136,1
2.435001,-1.492,-1.854,0.102,20.08,226.318,27.038,1
2.443093,-1.626,-1.875,0.051,31.799,233.581,50.415,1
2.451024,-1.826,-1.862,-0.054,51.757,238.647,74.34,1
2.457684,-2.063,-1.865,-0.13,72.143,242.004,99.121,1
2.46615,-2.27,-1.935,-0.236,78.369,245.849,121.398,1
2.472651,-2.512,-1.96,-0.312,62.499,251.22,148.742,1
2.480996,-2.643,-1.988,-0.408,40.1,257.995,175.72,1
2.48771,-2.902,-1.948,-0.441,3.54,264.282,203.613,1
2.496328,-3.155,-1.864,-0.503,-16.357,269.348,230.224,1
2.50428,-3.575,-1.757,-0.578,-10.864,274.23,257.812,1
2.511308,-3.844,-1.742,-0.7,12.573,275.634,291.259,1
2.519449,-4.12,-1.732,-0.819,39.855,276.245,322.692,1
2.526464,-4.495,-1.736,-0.987,69.213,272.827,356.262,1
2.533896,-4.971,-1.749,-1.16,100.83,267.15,392.517,1
2.542083,-5.462,-1.782,-1.381,136.84,257.385,431.823,1
2.54904,-5.933,-1.923,-1.654,161.865,243.591,474.548,1
2.556021,-6.429,-2.058,-1.921,166.748,226.196,520.568,1
2.564506,-7.042,-2.123,-2.144,165.039,208.984,561.035,1
2.571362,-7.604,-2.14,-2.329,174.194,184.02,611.084,1
2.578338,-8.379,-2.148,-2.557,204.345,149.353,662.353,1
2.586315,-9.246,-2.077,-2.724,260.986,104.431,715.698,1
2.593084,-10.3,-1.957,-2.813,335.144,46.081,769.775,1
2.601609,-11.5,-1.781,-2.833,392.944,-11.657,813.598,1
2.60843,-12.857,-1.52,-2.712,458.679,-103.759,871.398,1
2.616621,-14.294,-1.202,-2.541,500.732,-190.368,914.428,1
2.625034,-15.836,-0.863,-2.309,524.353,-282.043,949.584,1
2.632006,-15.999,-0.379,-1.976,529.418,-375.061,975.707,1
2.639827,-15.999,0.043,-1.66,528.076,-466.674,992.126,1
2.647819,-15.999,0.557,-1.29,522.521,-557.434,998.413,1
2.655811,-15.999,1.152,-0.769,520.813,-645.935,994.873,1
2.6639,-15.999,1.624,-0.307,554.565,-753.417,976.013,1
2.67102,-15.999,1.996,0.158,605.834,-849.182,946.899,1
2.679433,-15.999,2.284,0.63,670.532,-952.148,901.672,1
2.687516,-15.999,2.503,1.289,743.347,-1051.147,841.796,1
2.694186,-15.999,2.51,2.048,828.063,-1160.095,755.798,1
2.702062,-15.999,2.738,2.711,941.711,-1223.266,660.217,1
2.710347,-15.999,3.27,2.981,1096.069,-1289.489,524.475,1
2.718291,-15.999,3.51,3.182,1246.093,-1333.434,349.609,1
2.72461,-15.999,3.497,3.115,1341.369,-1355.651,146.24,1
2.7328,-15.999,3.294,3.045,1387.512,-1328.613,-65.429,1
2.739583,-15.999,2.795,2.783,1381.591,-1262.939,-269.104,1
2.747492,-15.999,2.046,2.721,1321.838,-1178.833,-419.433,1
2.755662,-15.999,1.492,2.516,1162.902,-1022.216,-586.12,1
2.763575,-15.999,1.154,2.432,1053.1,-912.658,-672.241,1
2.771615,-15.999,0.736,2.19,903.808,-755.432,-752.99,1
2.778339,-15.999,0.398,1.784,735.473,-641.479,-792.419,1
2.786722,-15.408,0.361,1.715,574.89,-538.94,-809.936,1
2.794721,-14.659,0.454,1.761,462.829,-458.007,-815.307,1
2.802877,-13.895,0.456,1.791,430.786,-386.718,-813.598,1
2.811233,-13.231,0.25,1.788,435.363,-315.734,-807.495,1
2.818878,-12.428,-0.052,1.753,450.378,-253.295,-794.738,1
2.826518,-11.464,-0.524,1.69,452.392,-194.152,-777.038,1
2.833133,-10.537,-0.941,1.569,408.203,-123.107,-748.413,1
2.841483,-9.733,-1.255,1.465,354.858,-72.082,-720.581,1
2.849394,-8.918,-1.5,1.394,297.973,-26.611,-690.124,1
2.85634,-7.988,-1.794,1.202,254.577,10.131,-658.874,1
2.864415,-7.327,-2.041,1.145,204.711,40.527,-625.061,1
2.872247,-6.576,-2.223,0.969,164.611,64.392,-590.637,1
2.880491,-5.784,-2.372,0.902,145.202,82.031,-555.358,1
2.887286,-5.223,-2.444,0.775,143.371,96.008,-518.92,1
2.896099,-4.601,-2.511,0.655,160.522,108.215,-483.154,1
2.902763,-4.104,-2.676,0.478,159.179,116.577,-438.171,1
2.911892,-3.8,-2.619,0.401,160.461,124.389,-406.616,1
2.918392,-3.515,-2.519,0.311,180.053,127.99,-362.853,1
2.926473,-3.242,-2.437,0.272,204.956,132.873,-325.561,1
2.936093,-2.942,-2.375,0.159,213.562,134.643,-288.94,1
2.943129,-2.684,-2.306,0.141,201.599,140.258,-247.619,1
2.950904,-2.472,-2.201,0.106,179.443,141.601,-214.66,1
2.959028,-2.291,-2.093,0.135,163.94,143.737,-183.959,1
2.965731,-2.105,-2.01,0.12,151.245,143.676,-155.7,1
2.972614,-1.927,-1.942,0.141,135.864,145.263,-129.516,1
2.980986,-1.734,-1.85,0.131,118.469,146.423,-105.468,1
2.988737,-1.556,-1.727,0.148,104.614,147.521,-83.068,1
2.997177,-1.386,-1.588,0.139,93.811,147.705,-63.049,1
3.003892,-1.226,-1.428,0.148,86.669,147.277,-41.137,1
3.012455,-1.103,-1.3,0.141,84.899,145.69,-24.353,1
3.019303,-1.006,-1.178,0.145,86.914,143.493,-8.85,1
3.026574,-0.929,-1.066,0.129,89.843,140.747,5.493,1
3.034625,-0.865,-0.964,0.125,91.491,137.329,18.188,1
3.041342,-0.809,-0.866,0.12,91.491,134.582,27.709,1
3.048472,-0.777,-0.799,0.121,90.209,130.676,38.085,1
3.056534,-0.732,-0.723,0.124,88.5,127.258,47.485,1
3.064412,-0.683,-0.658,0.125,86.242,123.413,55.48,1
3.070811,-0.628,-0.601,0.137,83.74,120.849,61.584,1
3.07754,-0.586,-0.563,0.137,78.43,117.553,67.993,1
3.085012,-0.546,-0.513,0.143,72.326,114.685,73.974,1
3.092968,-0.511,-0.47,0.154,70.068,111.389,79.04,1
3.099291,-0.457,-0.434,0.169,74.707,108.398,82.885,1
3.10708,-0.413,-0.414,0.182,86.242,104.492,86.853,1
3.11439,-0.359,-0.404,0.185,98.51,100.219,91.186,1
3.12138,-0.291,-0.398,0.195,107.36,96.618,95.336,1
3.129649,-0.232,-0.404,0.215,108.52,94.055,99.365,1
3.136138,-0.171,-0.395,0.221,107.055,92.102,102.539,1
3.144339,-0.116,-0.376,0.237,107.055,89.538,106.628,1
3.150926,-0.065,-0.357,0.252,108.947,87.89,110.046,1
3.158852,-0.004,-0.339,0.256,111.206,85.876,113.586,1
3.165124,0.001,-0.312,0.246,113.037,84.533,116.149,1
3.173072,0.051,-0.303,0.238,113.037,82.641,118.469,1
3.180041,0.101,-0.283,0.224,109.558,81.726,120.849,1
3.187839,0.135,-0.265,0.208,103.942,79.833,122.863,1
3.194315,0.205,-0.23,0.214,103.271,78.918,124.45,1
3.20115,0.254,-0.202,0.199,107.116,76.354,126.281,1
3.209134,0.289,-0.173,0.209,113.22,74.34,127.38,1
3.215727,0.336,-0.165,0.192,115.295,71.899,128.601,1
3.223711,0.383,-0.155,0.199,111.816,70.556,129.638,1
3.230137,0.449,-0.14,0.197,104.248,69.763,130.187,1
3.237326,0.521,-0.105,0.2,94.238,68.542,130.615,1
3.246036,0.583,-0.072,0.192,85.266,68.176,130.798,1
3.252096,0.629,-0.044,0.199,75.439,66.65,130.676,1
3.259032,0.678,-0.019,0.212,66.589,65.856,130.065,1
3.266917,0.716,0.011,0.221,58.593,64.819,129.455,1
3.273718,0.756,0.033,0.231,55.48,64.025,128.723,1
3.280321,0.796,0.068,0.232,56.762,62.133,128.173,1
3.288331,0.832,0.095,0.244,61.401,60.485,127.502,1
3.295173,0.852,0.118,0.24,70.8,58.227,126.831,1
3.3017,0.874,0.138,0.249,82.946,56.335,126.098,1
3.310171,0.888,0.147,0.249,94.116,54.626,125.488,1
3.316943,0.905,0.155,0.246,104.797,53.649,124.511,1
3.323475,0.911,0.162,0.244,109.252,53.649,123.779,1
3.330403,0.92,0.164,0.236,107.788,54.443,123.352,1
3.338407,0.932,0.181,0.234,102.6,55.847,122.436,1
3.346179,0.952,0.201,0.232,95.947,57.312,121.887,1
3.352742,0.985,0.233,0.244,89.782,58.837,121.032,1
3.361001,0.98,0.273,0.259,87.219,59.936,120.3,1
3.367927,1.024,0.318,0.268,90.515,60.668,119.323,1
3.374968,1.033,0.357,0.277,98.022,60.913,118.164,1
3.382819,1.024,0.387,0.28,103.454,61.34,116.882,1
3.390555,1.002,0.419,0.288,109.313,61.34,115.783,1
3.3976,0.993,0.448,0.277,114.807,61.645,114.196,1
3.405055,0.966,0.479,0.275,119.873,62.072,112.67,1
3.411982,0.964,0.504,0.258,124.328,62.866,111.267,1
3.420427,0.948,0.518,0.244,123.901,64.147,110.046,1
3.426776,0.936,0.545,0.216,119.262,65.612,109.13,1
3.434878,0.923,0.585,0.21,114.257,67.199,107.543,1
3.44106,0.913,0.637,0.2,113.525,68.054,105.834,1
3.448953,0.9,0.676,0.191,115.966,69.213,103.576,1
3.456399,0.881,0.705,0.181,118.591,69.763,101.989,1
3.462975,0.87,0.718,0.172,122.924,70.434,100.28,1
3.469636,0.861,0.732,0.165,127.258,71.166,98.876,1
3.477508,0.874,0.733,0.155,130.615,71.105,98.144,1
3.484476,0.873,0.752,0.151,135.925,71.289,97.412,1
3.491105,0.89,0.769,0.143,138.61,71.35,97.106,1
3.49802,0.91,0.811,0.137,140.808,72.204,97.412,1
3.50578,0.894,0.865,0.11,136.474,72.143,97.351,1
3.513686,0.858,0.904,0.097,127.441,73.059,96.374,1
3.521589,0.799,0.962,0.067,112.792,74.707,94.909,1
3.528553,0.751,1.012,0.043,96.13,76.354,92.163,1
3.536991,0.734,1.049,0.018,88.317,77.27,89.782,1
3.543567,0.729,1.072,-0.008,84.899,77.88,86.608,1
3.550113,0.72,1.082,-0.03,83.74,78.491,84.045,1
3.557211,0.685,1.107,-0.066,80.81,78.918,80.566,1
3.565237,0.653,1.134,-0.099,74.34,79.345,77.514,1
3.572189,0.609,1.17,-0.142,63.659,80.2,73.669,1
3.58037,0.581,1.198,-0.176,51.025,80.139,69.519,1
3.587113,0.553,1.261,-0.201,41.687,79.895,65.246,1
3.595391,0.58,1.331,-0.215,46.691,78.491,60.546,1
3.60184,0.568,1.359,-0.248,60.302,75.805,55.541,1
3.608816,0.561,1.37,-0.256,77.27,73.791,50.842,1
3.617185,0.551,1.339,-0.279,93.139,72.57,46.691,1
3.623813,0.548,1.311,-0.312,107.91,70.495,42.114,1
3.630773,0.543,1.224,-0.302,113.952,70.922,37.78,1
3.639238,0.506,1.144,-0.29,111.206,71.899,34.423,1
3.645724,0.484,1.065,-0.291,101.806,74.401,31.738,1
3.653635,0.448,0.982,-0.299,89.416,78.063,28.991,1
3.660177,0.454,0.906,-0.275,74.768,80.322,26.306,1
3.668636,0.466,0.851,-0.249,61.096,84.594,25.268,1
3.675134,0.454,0.776,-0.238,51.147,86.486,24.291,1
3.683063,0.469,0.702,-0.184,44.311,89.294,23.925,1
3.689276,0.47,0.742,-0.142,41.381,89.782,24.23,1
3.696663,0.5,0.711,-0.094,52.795,90.332,25.268,1
3.704633,0.527,0.672,-0.119,64.086,90.698,25.939,1
3.711513,0.56,0.623,-0.121,69.946,91.186,27.709,1
3.720037,0.576,0.538,-0.182,61.462,94.36,30.212,1
3.727019,0.582,0.514,-0.185,39.733,97.656,32.653,1
3.734916,0.596,0.534,-0.186,25.573,101.806,34.545,1
3.743106,0.591,0.562,-0.183,21.057,103.149,36.254,1
3.751255,0.568,0.598,-0.202,24.536,106.262,38.452,1
3.757771,0.548,0.635,-0.215,28.015,106.262,39.733,1
3.765114,0.524,0.659,-0.229,33.508,107.36,41.625,1
3.773228,0.5,0.677,-0.239,39.062,107.055,42.907,1
3.779738,0.479,0.699,-0.254,44.372,107.299,44.433,1
3.787264,0.464,0.72,-0.269,47.241,106.384,45.837,1
3.794329,0.447,0.738,-0.269,49.621,106.567,47.119,1
3.802802,0.436,0.761,-0.283,50.781,105.773,48.522,1
3.809571,0.416,0.787,-0.285,50.109,106.079,49.56,1
3.816303,0.405,0.809,-0.289,48.095,106.079,50.292,1
3.823291,0.403,0.822,-0.299,45.715,106.201,50.537,1
3.831671,0.391,0.846,-0.312,41.992,106.445,51.147,1
3.838659,0.386,0.872,-0.322,39.062,106.323,51.086,1
3.846614,0.381,0.892,-0.333,38.635,105.895,51.269,1
3.85442,0.364,0.913,-0.349,39.367,104.98,51.33,1
3.861401,0.369,0.93,-0.362,40.771,103.637,51.33,1
3.869445,0.375,0.949,-0.374,43.273,102.294,51.33,1
3.876567,0.369,0.984,-0.381,49.133,100.83,50.598,1
3.884623,0.353,1.001,-0.393,56.884,98.815,50.231,1
3.892966,0.343,1.011,-0.398,64.025,97.106,49.621,1
3.899589,0.352,1.024,-0.407,67.749,95.642,49.011,1
3.907343,0.343,1.035,-0.416,67.749,94.665,48.4,1
3.914417,0.328,1.043,-0.424,63.354,94.055,47.302,1
3.922673,0.32,1.047,-0.433,55.48,93.505,45.898,1
3.930717,0.31,1.052,-0.438,47.18,93.017,44.067,1
3.937366,0.307,1.056,-0.441,41.137,92.346,42.663,1
3.945316,0.313,1.062,-0.444,39.245,91.308,40.954,1
3.953387,0.318,1.063,-0.448,40.161,89.904,39.123,1
3.960096,0.32,1.063,-0.454,41.748,88.623,37.414,1
3.96814,0.322,1.059,-0.461,42.114,87.036,35.766,1
3.976179,0.327,1.062,-0.478,42.48,85.815,34.179,1
3.982904,0.333,1.067,-0.49,41.442,84.411,32.836,1
3.990867,0.352,1.067,-0.491,39.306,83.557,31.188,1
3.999325,0.357,1.071,-0.491,38.513,82.153,29.907,1
4.006782,0.364,1.069,-0.482,42.602,80.566,28.32,1
4.013174,0.377,1.051,-0.47,50.842,78.796,27.526,1
4.021326,0.397,1.04,-0.473,59.326,77.392,26.794,1
4.028101,0.389,1.036,-0.485,61.828,76.293,26.184,1
4.035909,0.372,1.038,-0.494,58.654,75.988,25.634,1
4.043742,0.359,1.042,-0.504,49.316,75.439,23.986,1
4.050734,0.351,1.041,-0.495,43.151,75.256,22.766,1
4.058723,0.353,1.034,-0.495,39.672,74.89,21.423,1
4.065391,0.348,1.032,-0.494,38.024,74.462,20.629,1
4.073659,0.347,1.038,-0.507,36.376,74.157,19.348,1
4.081024,0.342,1.037,-0.521,33.996,73.547,18.127,1
4.087649,0.334,1.041,-0.528,30.456,73.12,16.906,1
4.094371,0.338,1.05,-0.539,28.137,72.509,15.93,1
4.102621,0.336,1.05,-0.543,28.137,71.105,15.075,1
4.110404,0.331,1.054,-0.562,29.174,69.885,14.221,1
4.11684,0.325,1.055,-0.568,30.822,67.932,13.366,1
4.126175,0.329,1.056,-0.569,34.362,66.162,12.756,1
4.132943,0.335,1.051,-0.571,39.611,63.415,12.268,1
4.139912,0.34,1.032,-0.567,44.067,61.401,12.268,1
4.146556,0.344,1.02,-0.561,49.743,59.265,12.512,1
4.15473,0.339,1.018,-0.562,54.138,56.884,12.573,1
4.161996,0.326,1.01,-0.561,55.908,55.053,12.939,1
4.169902,0.312,1.011,-0.557,55.969,53.161,13.122,1
4.176585,0.296,1.015,-0.555,56.335,51.391,13.061,1
4.183468,0.275,1.01,-0.545,58.227,49.621,13.061,1
4.191925,0.266,1.005,-0.536,62.072,48.156,13.122,1
4.19911,0.26,1.009,-0.525,67.626,47.424,12.756,1
4.205722,0.258,1.008,-0.518,73.547,46.874,12.573,1
4.213775,0.254,1.004,-0.509,80.688,47.607,12.634,1
4.220533,0.254,0.992,-0.512,83.007,49.011,12.39,1
4.227144,0.254,0.989,-0.521,77.209,51.757,12.145,1
4.23512,0.252,0.981,-0.532,64.88,54.565,11.535,1
4.24197,0.236,0.989,-0.533,44.799,58.715,10.864,1
4.249018,0.221,0.995,-0.533,21.85,62.988,10.009,1
4.257478,0.208,1.004,-0.545,-2.136,66.955,9.033,1
4.263985,0.208,1.022,-0.539,-20.385,69.213,7.873,1
4.272172,0.205,1.04,-0.539,-39.978,71.594,6.774,1
4.280851,0.208,1.063,-0.54,-48.767,71.96,5.371,1
4.287363,0.241,1.075,-0.533,-53.466,71.533,4.028,1
4.294225,0.244,1.09,-0.533,-56.091,70.556,2.441,1
4.30249,0.21,1.147,-0.533,-42.297,66.955,0.488,1
4.310792,0.216,1.167,-0.518,-24.658,64.147,-0.854,1
4.317419,0.242,1.181,-0.523,-0.366,60.18,-2.441,1
4.325604,0.272,1.174,-0.513,21.85,55.664,-4.15,1
4.332652,0.3,1.163,-0.515,30.761,53.161,-5.615,1
4.340003,0.311,1.173,-0.499,30.517,51.696,-7.019,1
4.348354,0.344,1.183,-0.489,25.695,51.269,-8.544,1
4.355123,0.327,1.203,-0.478,16.601,51.147,-10.437,1
4.363604,0.332,1.225,-0.478,5.981,51.635,-12.756,1
4.370192,0.343,1.249,-0.47,-2.014,51.757,-15.014,1
4.378502,0.348,1.271,-0.462,-10.986,52.612,-18.005,1
4.385509,0.356,1.293,-0.469,-15.624,52.185,-20.324,1
4.392506,0.375,1.308,-0.461,-16.54,51.757,-23.193,1
4.40094,0.395,1.318,-0.466,-13.488,50.781,-26.367,1
4.407574,0.411,1.325,-0.459,-5.859,49.987,-29.174,1
4.415204,0.424,1.318,-0.46,2.014,48.767,-32.165,1
4.423513,0.429,1.304,-0.461,6.958,48.461,-34.79,1
4.43016,0.433,1.291,-0.473,6.347,48.278,-37.414,1
4.437101,0.42,1.28,-0.479,0.061,48.889,-40.1,1
4.445545,0.416,1.27,-0.488,-8.483,49.499,-42.541,1
4.452169,0.403,1.269,-0.496,-19.592,49.926,-45.593,1
4.460569,0.4,1.265,-0.501,-28.625,50.354,-48.461,1
4.467304,0.393,1.251,-0.511,-33.264,49.804,-51.269,1
4.475771,0.387,1.243,-0.522,-33.569,48.095,-54.138,1
4.482588,0.379,1.221,-0.526,-31.311,46.569,-56.396,1
4.489569,0.372,1.2,-0.531,-26.306,44.921,-58.654,1
4.497756,0.37,1.175,-0.533,-21.057,43.029,-60.791,1
4.50609,0.36,1.15,-0.539,-17.7,41.442,-62.744,1
4.512774,0.359,1.123,-0.548,-17.15,39.855,-64.392,1
4.519705,0.352,1.106,-0.556,-17.395,39.001,-65.979,1
4.528191,0.353,1.086,-0.565,-18.005,37.292,-67.871,1
4.534247,0.354,1.069,-0.571,-18.615,36.071,-69.091,1
4.541952,0.354,1.057,-0.579,-19.226,34.912,-70.129,1
4.550543,0.362,1.041,-0.583,-20.08,33.386,-71.166,1
4.557039,0.366,1.024,-0.588,-20.263,32.104,-72.204,1
4.565177,0.36,1.002,-0.586,-21.301,30.944,-73.059,1
4.573107,0.367,0.992,-0.593,-22.827,29.602,-73.547,1
4.579569,0.364,0.995,-0.597,-23.071,28.503,-74.34,1
4.588383,0.363,0.993,-0.6,-22.277,26.977,-74.707,1
4.5963,0.362,0.999,-0.602,-17.944,25.085,-75.561,1
4.603258,0.354,1.006,-0.604,-12.878,23.559,-76.171,1
4.610224,0.362,1.002,-0.607,-6.652,21.789,-76.721,1
4.61884,0.36,1.004,-0.616,-2.99,20.141,-77.392,1
4.625774,0.352,1.01,-0.623,-2.563,18.737,-78.002,1
4.632713,0.353,1.011,-0.632,-4.211,17.333,-79.162,1
4.640657,0.354,1.013,-0.635,-7.019,16.418,-80.078,1
4.647601,0.349,1.016,-0.643,-11.291,15.014,-81.359,1
4.655592,0.348,1.022,-0.646,-15.808,14.221,-82.885,1
4.662467,0.356,1.027,-0.65,-18.676,12.695,-83.984,1
4.67054,0.365,1.019,-0.65,-19.104,11.108,-85.571,1
4.677514,0.385,1.02,-0.654,-17.944,9.948,-86.791,1
4.684456,0.404,1.014,-0.653,-14.404,7.446,-88.073,1
4.692669,0.431,1.015,-0.653,-6.591,5.065,-89.05,1
4.7011,0.456,1.006,-0.647,2.807,2.441,-90.27,1
4.709273,0.476,0.98,-0.646,13.122,-0.061,-91.308,1
4.715874,0.504,0.966,-0.642,17.883,-1.831,-91.735,1
4.722783,0.506,0.956,-0.644,17.089,-2.868,-92.651,1
4.730875,0.499,0.946,-0.634,11.108,-3.479,-93.2,1
4.737668,0.496,0.947,-0.625,4.211,-3.601,-94.116,1
4.745779,0.491,0.948,-0.615,-4.089,-3.601,-94.665,1
4.752568,0.483,0.95,-0.598,-10.803,-3.967,-95.947,1
4.76067,0.476,0.954,-0.583,-13.488,-4.638,-96.801,1
4.768763,0.479,0.951,-0.566,-11.779,-5.249,-98.266,1
4.775582,0.489,0.944,-0.557,-7.751,-6.591,-99.792,1
4.784083,0.522,0.916,-0.554,-5.981,-7.934,-101.257,1
4.790993,0.497,0.903,-0.531,-10.803,-8.605,-102.478,1
4.79948,0.481,0.899,-0.536,-11.413,-10.131,-103.698,1
4.807953,0.505,0.875,-0.5,-11.047,-10.437,-104.736,1
4.816389,0.535,0.849,-0.501,-14.099,-10.986,-106.14,1
4.824312,0.54,0.831,-0.477,-23.376,-10.864,-107.177,1
4.832426,0.521,0.81,-0.483,-36.132,-11.169,-108.703,1
4.839139,0.511,0.786,-0.456,-46.447,-10.62,-110.229,1
4.847543,0.509,0.75,-0.469,-60.424,-10.681,-111.572,1
4.856021,0.522,0.711,-0.472,-83.984,-10.314,-113.037,1
4.863869,0.576,0.69,-0.482,-102.783,-11.352,-114.196,1
4.872669,0.624,0.666,-0.471,-116.333,-12.634,-114.868,1
4.880728,0.525,0.64,-0.487,-124.938,-15.563,-114.562,1
4.8875,0.285,0.769,-0.501,-119.506,-20.446,-107.604,1
4.895483,0.463,0.806,-0.523,-87.585,-29.968,-110.168,1
4.903425,0.407,0.734,-0.45,-46.203,-34.179,-109.374,1
4.91138,0.432,0.695,-0.515,-25.329,-41.137,-108.886,1
4.918803,0.512,0.632,-0.496,-15.624,-43.884,-110.961,1
4.927428,0.543,0.604,-0.538,-17.517,-42.114,-111.206,1
4.934093,0.524,0.559,-0.541,-29.968,-45.593,-112.731,1
4.942538,0.61,0.503,-0.538,-45.898,-44.433,-111.633,1
4.951008,0.614,0.483,-0.553,-66.528,-47.485,-110.29,1
4.959145,0.589,0.462,-0.517,-82.031,-48.156,-108.337,1
4.965949,0.453,0.439,-0.532,-95.581,-52.062,-106.079,1
4.973882,0.476,0.395,-0.507,-101.379,-53.161,-103.698,1
4.982576,0.624,0.39,-0.526,-105.407,-58.349,-101.806,1
4.990652,0.671,0.441,-0.444,-88.317,-61.218,-99.853,1
4.997713,0.669,0.461,-0.485,-51.208,-64.758,-98.327,1
5.006115,0.617,0.508,-0.445,9.582,-69.58,-97.351,1
5.012734,0.619,0.52,-0.492,70.678,-73.852,-97.961,1
5.019744,0.623,0.492,-0.505,115.905,-75.5,-99.914,1
5.027809,0.64,0.452,-0.549,150.146,-75.561,-102.478,1
5.034114,0.599,0.414,-0.563,160.766,-74.34,-105.346,1
5.042364,0.649,0.362,-0.586,156.616,-71.105,-108.032,1
5.049504,0.68,0.34,-0.619,141.235,-68.115,-109.741,1
5.056258,0.707,0.311,-0.612,126.464,-67.687,-111.45,1
5.064731,0.706,0.27,-0.625,114.135,-64.941,-113.037,1
5.071418,0.764,0.171,-0.588,93.322,-71.044,-113.83,1
5.079486,0.809,0.211,-0.507,102.966,-63.415,-111.633,1
5.086486,0.907,0.197,-0.556,115.478,-73.425,-111.267,1
5.094057,0.849,0.227,-0.517,139.953,-67.749,-109.741,1
5.102321,0.814,0.226,-0.627,151.062,-73.486,-110.229,1
5.109206,0.721,0.217,-0.595,155.395,-70.434,-110.107,1
5.116884,0.702,0.198,-0.684,139.038,-72.265,-110.595,1
5.123916,0.683,0.2,-0.641,113.159,-69.213,-110.412,1
5.13235,0.718,0.207,-0.693,83.557,-71.105,-110.656,1
5.139283,0.729,0.239,-0.625,68.481,-71.716,-109.924,1
5.146515,0.741,0.28,-0.619,69.702,-75.988,-109.497,1
5.154469,0.733,0.307,-0.541,85.998,-79.956,-109.252,1
5.162558,0.749,0.297,-0.519,103.759,-84.655,-109.802,1
5.16958,0.747,0.287,-0.447,116.149,-86.975,-110.717,1
5.176706,0.785,0.267,-0.423,121.154,-88.134,-110.9,1
5.185529,0.809,0.253,-0.368,120.239,-88.745,-111.511,1
5.192271,0.799,0.247,-0.349,114.685,-87.341,-112.365,1
5.198979,0.874,0.238,-0.29,99.548,-86.12,-112.487,1
5.207249,0.845,0.217,-0.273,80.688,-84.289,-112.915,1
5.21392,0.793,0.204,-0.204,58.471,-81.97,-113.525,1
5.222239,0.752,0.171,-0.151,34.423,-79.956,-112.67,1
5.229293,0.707,0.182,-0.081,17.333,-77.636,-112.976,1
5.236334,0.65,0.207,-0.02,12.268,-76.599,-113.891,1
5.244711,0.65,0.223,0.056,20.141,-76.416,-115.417,1
5.2534,0.603,0.239,0.104,41.809,-76.904,-118.469,1
5.26045,0.542,0.241,0.165,71.96,-78.002,-122.375,1
5.269169,0.441,0.201,0.228,109.924,-76.782,-127.319,1
5.276093,0.354,0.165,0.277,142.15,-73.791,-132.324,1
5.284565,0.328,0.098,0.327,174.987,-67.565,-138.488,1
5.292817,0.374,-0.027,0.386,196.35,-56.884,-145.019,1
5.299549,0.359,-0.117,0.421,202.758,-44.616,-147.766,1
5.30789,0.323,-0.22,0.461,194.702,-30.212,-150.451,1
5.315222,0.231,-0.296,0.489,166.503,-12.878,-151.123,1
5.32181,0.017,-0.371,0.533,123.107,2.441,-150.817,1
5.330142,-0.154,-0.409,0.606,89.416,18.737,-149.841,1
5.338414,-0.288,-0.462,0.648,63.11,30.761,-147.766,1
5.344961,-0.372,-0.496,0.717,56.579,42.541,-144.104,1
5.352939,-0.41,-0.576,0.738,70.251,49.011,-138.916,1
5.361735,-0.487,-0.687,0.771,91.491,56.152,-132.019,1
5.368361,-0.604,-0.827,0.782,98.388,61.767,-123.107,1
5.377029,-0.68,-0.937,0.83,98.144,71.899,-112.792,1
5.383942,-0.779,-1.016,0.842,98.999,80.566,-102.722,1
5.392361,-0.695,-1.126,0.841,109.069,94.116,-89.538,1
5.399286,-0.686,-1.281,0.785,101.318,105.224,-76.477,1
5.407992,-0.537,-1.417,0.737,76.538,121.154,-62.988,1
5.414805,-0.526,-1.535,0.654,40.161,136.718,-48.645,1
5.423557,-0.605,-1.619,0.588,4.089,153.747,-33.813,1
5.430242,-0.72,-1.67,0.522,-15.38,165.161,-21.667,1
5.437108,-0.926,-1.692,0.487,-21.362,176.94,-6.53,1
5.445043,-1.002,-1.725,0.422,-7.324,187.072,11.047,1
5.451939,-1.126,-1.774,0.37,14.282,193.054,30.456,1
5.460343,-1.285,-1.795,0.294,40.527,199.707,51.818,1
5.470379,-1.538,-1.814,0.174,66.101,205.688,78.43,1
5.476622,-1.798,-1.791,0.062,81.115,212.036,106.079,1
5.484627,-2.029,-1.78,-0.02,81.665,217.102,130.615,1
5.492897,-2.283,-1.765,-0.09,68.664,224.182,155.334,1
5.499443,-2.583,-1.732,-0.157,47.912,230.773,180.114,1
5.507726,-2.925,-1.659,-0.189,31.677,238.647,204.711,1
5.517345,-3.207,-1.63,-0.261,24.353,244.262,230.102,1
5.52519,-3.537,-1.647,-0.354,22.094,252.258,261.108,1
5.532178,-3.836,-1.708,-0.468,15.869,258.178,289.672,1
5.538945,-4.192,-1.777,-0.605,3.051,265.38,320.739,1
5.547428,-4.651,-1.835,-0.76,-12.756,273.315,353.698,1
5.556721,-5.321,-1.933,-0.94,-24.291,281.86,395.385,1
5.566683,-5.994,-2.081,-1.207,-13.0,285.522,435.363,1
5.574487,-6.585,-2.249,-1.464,18.127,282.775,495.788,1
5.581191,-7.142,-2.353,-1.69,52.856,273.01,546.081,1
5.588866,-7.861,-2.471,-1.875,84.228,256.347,599.731,1
5.595875,-8.902,-2.489,-2.035,111.694,234.13,657.47,1
5.605041,-9.998,-2.341,-2.109,157.043,202.392,716.552,1
5.612879,-11.062,-2.223,-2.345,225.769,162.231,779.235,1
5.621337,-12.45,-2.039,-2.401,301.33,93.933,852.661,1
5.628388,-13.876,-1.722,-2.41,384.338,24.169,915.588,1
5.637073,-15.831,-1.314,-2.316,467.407,-65.551,974.304,1
5.644958,-15.994,-0.889,-2.121,543.273,-179.443,1034.057,1
5.651973,-15.999,-0.383,-1.859,585.327,-287.597,1073.364,1
5.66022,-15.999,0.153,-1.561,607.177,-395.202,1100.341,1
5.670371,-15.999,0.874,-1.104,605.041,-521.606,1114.99,1
5.677519,-15.999,1.515,-0.609,588.378,-641.906,1112.06,1
5.686636,-15.999,2.065,-0.1,577.88,-758.666,1095.764,1
5.6933,-15.999,2.451,0.42,593.2,-864.135,1073.425,1
5.701215,-15.999,2.752,0.988,648.315,-978.088,1036.315,1
5.708262,-15.999,3.246,1.847,768.615,-1093.627,981.75,1
5.717638,-15.999,3.506,2.585,933.044,-1207.275,894.287,1
5.724276,-15.999,3.727,3.176,1069.458,-1308.288,767.822,1
5.731376,-15.999,3.881,3.419,1132.507,-1384.887,606.75,1
5.739615,-15.999,4.123,3.757,1161.01,-1433.349,428.894,1
5.748106,-15.999,4.496,3.613,1306.701,-1460.021,224.243,1
5.75512,-15.999,4.439,3.387,1520.019,-1457.214,-58.837,1
5.76335,-15.999,3.543,2.708,1604.186,-1390.258,-321.35,1
5.772035,-15.999,2.646,2.264,1543.701,-1259.46,-555.664,1
5.77881,-15.999,1.639,1.824,1371.643,-1090.332,-731.994,1
5.787065,-15.999,0.555,1.423,1086.242,-912.841,-843.078,1
5.795474,-15.999,0.202,1.273,651.123,-735.961,-902.648,1
5.802099,-15.999,0.28,1.612,319.885,-626.525,-913.024,1
5.810425,-15.999,0.493,1.749,102.539,-564.392,-902.343,1
5.817298,-15.999,0.694,2.096,10.498,-528.198,-878.662,1
5.8251,-15.999,0.791,2.221,29.235,-509.033,-852.661,1
5.833875,-15.999,0.764,2.527,178.527,-481.384,-828.979,1
5.841383,-15.501,0.27,2.489,424.621,-443.054,-808.471,1
5.849667,-14.114,-0.621,2.419,568.359,-374.755,-794.311,1
5.858149,-12.421,-1.709,2.1,533.325,-298.339,-776.061,1
5.864724,-10.906,-2.619,2.071,338.867,-215.148,-745.056,1
5.872869,-8.828,-3.035,2.02,127.441,-152.832,-706.909,1
5.879948,-7.164,-3.279,2.091,20.019,-112.487,-665.039,1
5.88838,-6.011,-3.335,2.054,32.165,-84.716,-622.985,1
5.896434,-5.48,-3.373,1.99,109.436,-60.363,-572.998,1
5.903365,-5.013,-3.381,1.902,188.293,-36.865,-531.005,1
5.909971,-4.276,-3.397,1.733,266.174,-13.061,-487.67,1
5.919086,-3.713,-3.366,1.492,330.505,14.892,-442.321,1
5.92605,-3.395,-3.3,1.211,347.717,42.053,-396.972,1
5.93408,-3.129,-3.116,0.963,329.833,69.274,-351.44,1
5.942495,-2.828,-2.834,0.726,297.119,93.322,-299.743,1
5.950738,-2.61,-2.609,0.555,268.981,110.229,-257.263,1
5.957065,-2.433,-2.414,0.406,238.464,122.07,-217.956,1
5.965741,-2.255,-2.234,0.286,208.618,131.225,-181.396,1
5.973943,-2.083,-2.055,0.184,181.274,136.23,-148.559,1
5.980979,-1.907,-1.891,0.119,158.325,140.014,-118.408,1
5.989806,-1.708,-1.704,0.066,140.319,141.479,-91.369,1
5.996921,-1.536,-1.562,0.042,128.479,141.357,-63.11,1
6.005182,-1.389,-1.431,0.03,122.619,139.831,-40.954,1
6.011819,-1.274,-1.295,0.041,119.689,138.671,-21.179,1
6.020106,-1.208,-1.151,0.041,119.689,136.291,-2.746,1
6.028605,-1.176,-1.005,0.052,120.666,134.155,13.732,1
6.035206,-1.13,-0.889,0.06,118.835,131.591,29.052,1
6.043479,-1.104,-0.771,0.076,115.051,129.394,42.907,1
6.050034,-1.083,-0.682,0.076,110.595,126.464,55.297,1
6.057723,-1.055,-0.558,0.077,106.689,123.84,66.162,1
6.064781,-0.999,-0.482,0.07,105.651,119.384,75.561,1
6.072421,-0.941,-0.404,0.076,106.628,115.234,84.045,1
6.080091,-0.887,-0.347,0.06,107.238,109.985,91.247,1
6.087295,-0.844,-0.303,0.067,106.445,106.506,96.679,1
6.09521,-0.775,-0.255,0.059,103.393,102.478,102.355,1
6.101731,-0.727,-0.21,0.069,99.426,98.937,107.238,1
6.10955,-0.674,-0.167,0.067,97.106,95.642,111.328,1
6.116504,-0.643,-0.129,0.073,95.031,92.346,114.746,1
6.124182,-0.591,-0.091,0.081,94.848,89.721,117.553,1
6.131159,-0.534,-0.058,0.089,95.642,86.181,119.873,1
6.139549,-0.47,-0.031,0.107,98.632,83.557,121.948,1
6.146324,-0.426,-0.002,0.113,104.248,80.383,123.535,1
6.153216,-0.392,0.006,0.135,113.037,77.026,125.549,1
6.160674,-0.328,0.018,0.143,120.605,74.951,127.014,1
6.167404,-0.32,0.011,0.154,121.459,73.12,128.295,1
6.175213,-0.294,0.016,0.169,118.835,72.57,129.577,1
6.182076,-0.208,0.012,0.171,110.839,71.411,131.042,1
6.190596,-0.141,0.012,0.197,97.9,71.716,132.08,1
6.197529,-0.081,0.02,0.213,83.679,72.326,132.568,1
6.204271,-0.058,0.052,0.244,68.054,72.937,132.568,1
6.210876,-0.005,0.107,0.275,63.476,73.12,131.774,1
6.21883,0.083,0.154,0.312,72.509,71.594,131.286,1
6.225679,0.179,0.202,0.324,87.951,71.044,130.493,1
6.232645,0.348,0.154,0.328,101.989,68.42,129.333,1
6.240422,0.479,0.147,0.348,107.36,69.458,129.333,1
6.247539,0.562,0.149,0.327,106.445,68.054,129.394,1
6.253874,0.653,0.161,0.346,105.407,67.749,129.882,1
6.260863,0.788,0.169,0.326,102.783,66.711,130.004,1
6.26901,0.86,0.181,0.347,99.426,65.856,130.981,1
6.27598,0.919,0.205,0.336,95.092,65.979,131.347,1
6.283001,0.944,0.235,0.342,90.332,65.49,130.92,1
6.291798,0.957,0.26,0.335,87.829,66.711,130.126,1
6.29707,0.968,0.273,0.322,84.899,66.589,129.089,1
6.304026,0.991,0.293,0.325,82.031,68.481,127.868,1
6.31224,1.019,0.314,0.319,80.688,68.664,126.525,1
6.318752,1.047,0.333,0.325,84.899,69.396,125.427,1
6.325825,1.094,0.355,0.309,93.566,69.58,124.45,1
6.333574,1.125,0.367,0.305,103.82,69.58,124.023,1
6.340536,1.158,0.376,0.288,110.168,69.702,123.962,1
6.348366,1.185,0.389,0.277,113.83,70.251,123.901,1
6.354906,1.201,0.411,0.255,113.525,71.289,123.474,1
6.362712,1.193,0.44,0.24,109.924,72.387,122.985,1
6.369596,1.183,0.466,0.228,104.431,73.73,122.741,1
6.377499,1.167,0.509,0.216,95.214,75.317,121.643,1
6.385935,1.139,0.548,0.209,86.791,78.063,120.3,1
6.392507,1.105,0.594,0.2,80.932,79.833,118.103,1
6.40059,1.089,0.643,0.19,80.932,81.909,115.905,1
6.407549,1.093,0.684,0.181,84.472,82.397,113.464,1
6.415799,1.087,0.711,0.185,94.848,83.068,111.267,1
6.422522,1.091,0.734,0.177,107.604,83.007,109.863,1
6.430576,1.095,0.757,0.172,116.76,83.496,108.703,1
6.43687,1.099,0.79,0.168,120.788,84.289,107.788,1
6.445664,1.079,0.833,0.168,118.652,85.998,106.75,1
6.452804,1.038,0.884,0.161,111.633,88.989,105.224,1
6.459801,1.002,0.941,0.161,96.313,92.407,102.478,1
6.468058,0.958,0.998,0.149,83.19,95.642,99.487,1
6.475061,0.907,1.047,0.143,66.65,98.999,95.336,1
6.482096,0.919,1.11,0.109,53.771,102.966,89.233,1
6.488951,0.932,1.202,0.107,52.368,104.37,83.007,1
6.496728,0.95,1.261,0.079,63.415,106.262,78.369,1
6.503529,0.941,1.325,0.05,80.932,105.407,72.57,1
6.511863,0.936,1.357,0.011,98.022,106.018,67.199,1
6.518972,0.948,1.357,-0.058,102.233,105.834,61.767,1
6.527359,0.96,1.383,-0.102,100.219,107.116,57.312,1
6.534225,0.992,1.426,-0.174,96.191,108.032,52.978,1
6.541194,1.021,1.477,-0.25,89.172,108.154,48.217,1
6.549443,1.032,1.536,-0.32,78.063,108.154,42.724,1
6.556319,0.991,1.604,-0.363,67.016,107.727,36.01,1
6.563446,0.967,1.676,-0.394,64.453,106.445,29.235,1
6.571851,0.914,1.728,-0.407,70.19,103.088,23.437,1
6.578618,0.881,1.671,-0.46,76.538,102.111,15.014,1
6.585741,0.886,1.666,-0.456,65.185,101.074,6.591,1
6.595166,0.819,1.678,-0.468,58.654,100.708,-1.525,1
6.602509,0.772,1.671,-0.493,56.091,99.243,-11.596,1
6.609534,0.746,1.659,-0.522,57.25,97.656,-19.958,1
6.617801,0.737,1.623,-0.544,63.72,94.543,-28.198,1
6.625569,0.713,1.573,-0.549,72.998,92.224,-35.522,1
6.632372,0.783,1.509,-0.57,81.97,89.477,-42.297,1
6.639283,0.736,1.5,-0.597,88.073,87.951,-48.583,1
6.646418,0.768,1.43,-0.629,88.195,85.388,-53.344,1
6.654796,0.771,1.395,-0.649,86.303,84.106,-59.265,1
6.66193,0.764,1.339,-0.642,84.228,81.97,-64.331,1
6.669703,0.782,1.28,-0.639,84.96,80.2,-69.641,1
6.678108,0.753,1.208,-0.605,89.233,78.43,-74.34,1
6.684528,0.746,1.133,-0.587,93.749,76.965,-78.857,1
6.692904,0.734,1.082,-0.562,96.984,75.5,-82.946,1
6.700608,0.711,0.979,-0.534,97.839,74.951,-86.425,1
6.707522,0.693,0.902,-0.506,97.534,74.157,-90.026,1
6.715775,0.68,0.839,-0.469,101.623,73.486,-91.979,1
6.722593,0.675,0.761,-0.432,108.093,72.692,-94.055,1
6.730339,0.633,0.667,-0.393,114.196,72.57,-95.275,1
6.738788,0.598,0.602,-0.373,118.347,72.631,-96.374,1
6.746537,0.54,0.512,-0.343,118.957,73.608,-97.045,1
6.753053,0.522,0.437,-0.325,114.562,75.561,-96.984,1
6.760389,0.509,0.374,-0.307,107.849,76.721,-96.801,1
6.768651,0.5,0.335,-0.294,99.365,78.369,-96.252,1
6.775422,0.494,0.312,-0.285,98.388,78.552,-95.581,1
6.784065,0.51,0.304,-0.273,109.008,77.819,-95.52,1
6.791416,0.524,0.292,-0.257,127.929,76.599,-96.008,1
6.798122,0.466,0.266,-0.251,150.573,75.439,-95.947,1
6.805206,0.452,0.213,-0.258,167.968,73.913,-94.421,1
6.813154,0.365,0.168,-0.254,179.565,74.523,-91.613,1
6.820639,0.298,0.123,-0.261,188.842,73.913,-87.585,1
6.827584,0.336,0.054,-0.249,201.293,75.378,-79.162,1
6.835771,0.496,0.013,-0.273,211.12,77.453,-69.519,1
6.844482,0.659,-0.022,-0.248,220.581,82.153,-59.204,1
6.85154,0.738,-0.053,-0.28,228.454,86.12,-48.706,1
6.859267,0.743,-0.08,-0.27,227.05,91.918,-36.743,1
6.865647,0.74,-0.118,-0.322,210.205,96.923,-26.855,1
6.872969,0.651,-0.11,-0.349,190.185,100.646,-19.165,1
6.881207,0.583,-0.104,-0.398,165.222,105.041,-10.131,1
6.889593,0.562,-0.086,-0.431,139.77,107.055,0.0,1
6.896299,0.591,-0.074,-0.479,124.023,108.337,8.85,1
6.904732,0.575,-0.026,-0.52,115.234,106.75,15.624,1
6.911322,0.526,0.075,-0.584,119.567,106.018,20.08,1
6.918156,0.488,0.228,-0.631,144.897,100.28,21.789,1
6.925049,0.42,0.397,-0.669,193.115,94.36,22.399,1
6.932132,0.41,0.484,-0.747,244.75,88.5,23.62,1
6.940254,0.412,0.527,-0.803,293.029,84.289,27.038,1
6.947016,0.412,0.562,-0.927,306.274,80.932,30.151,1
6.953961,0.408,0.615,-1.0,288.94,78.796,32.165,1
6.961898,0.436,0.679,-1.047,244.75,79.162,34.301,1
6.96838,0.416,0.793,-1.059,190.429,78.552,34.851,1
6.976492,0.4,0.916,-1.055,140.197,77.88,33.935,1
6.982942,0.392,1.037,-1.041,107.971,75.073,31.677,1
6.989918,0.4,1.112,-0.999,85.571,70.678,28.503,1
6.997884,0.415,1.197,-0.969,87.036,63.354,24.169,1
7.004527,0.466,1.236,-0.916,111.938,54.443,19.653,1
7.012432,0.527,1.207,-0.909,137.329,47.363,16.235,1
7.019326,0.591,1.166,-0.87,168.395,37.231,12.573,1
7.026208,0.677,1.102,-0.823,197.631,29.907,10.131,1
7.0349,0.72,1.03,-0.818,210.083,23.498,9.033,1
7.04162,0.737,0.979,-0.814,193.847,21.606,7.995,1
7.048681,0.764,0.949,-0.806,162.048,20.874,6.896,1
7.055623,0.809,0.954,-0.775,120.422,21.362,5.615,1
7.062526,0.821,0.982,-0.736,89.172,20.812,3.784,1
7.070808,0.837,1.001,-0.71,76.477,20.141,1.892,1
7.077291,0.85,1.008,-0.682,71.533,18.005,-0.305,1
7.085718,0.865,0.992,-0.655,73.791,15.869,-2.624,1
7.092782,0.895,0.969,-0.637,80.566,12.939,-4.882,1
7.101391,0.912,0.935,-0.608,90.27,9.887,-6.53,1
7.10963,0.93,0.886,-0.583,100.585,7.019,-7.934,1
7.11528,0.952,0.841,-0.539,109.802,4.272,-8.3,1
7.123004,0.958,0.808,-0.518,115.173,2.624,-8.605,1
7.129928,0.965,0.771,-0.506,106.628,2.807,-8.728,1
7.137779,0.932,0.741,-0.469,81.237,4.455,-8.666,1
7.14609,0.915,0.748,-0.441,54.931,6.713,-9.155,1
7.152684,0.908,0.765,-0.405,39.184,7.873,-9.704,1
7.159494,0.866,0.77,-0.371,28.503,9.521,-10.803,1
7.166564,0.832,0.779,-0.352,20.263,9.765,-12.451,1
7.17532,0.815,0.788,-0.325,23.498,9.948,-14.099,1
7.182082,0.791,0.777,-0.298,31.799,8.728,-15.502,1
7.189292,0.779,0.758,-0.274,46.325,8.361,-17.089,1
7.19777,0.781,0.71,-0.263,61.218,6.713,-17.944,1
7.204802,0.795,0.647,-0.227,76.599,5.737,-18.066,1
7.212996,0.808,0.589,-0.209,82.153,5.676,-17.089,1
7.221253,0.851,0.572,-0.184,82.946,6.103,-15.624,1
7.229991,0.841,0.562,-0.165,80.505,7.873,-15.808,1
7.238475,0.775,0.546,-0.163,68.054,10.314,-15.38,1
7.24504,0.737,0.535,-0.144,49.072,13.549,-15.502,1
7.253403,0.698,0.525,-0.132,33.02,15.197,-15.808,1
7.262105,0.758,0.494,-0.134,18.554,18.127,-15.441,1
7.268739,0.79,0.472,-0.137,3.479,19.897,-14.892,1
7.277921,0.797,0.461,-0.153,-17.089,22.094,-14.282,1
7.286327,0.83,0.45,-0.151,-42.297,23.742,-14.038,1
7.292991,0.826,0.479,-0.15,-60.302,25.451,-13.854,1
7.301269,0.795,0.511,-0.158,-68.542,25.512,-13.793,1
7.309674,0.809,0.534,-0.153,-66.345,24.719,-13.488,1
7.318528,0.835,0.58,-0.138,-56.213,23.193,-13.305,1
7.325236,0.824,0.591,-0.154,-38.33,21.484,-13.732,1
7.333463,0.814,0.592,-0.15,-27.16,19.653,-14.038,1
7.340505,0.8,0.578,-0.149,-18.859,17.395,-13.854,1
7.348924,0.817,0.57,-0.134,-12.634,16.052,-13.366,1
7.356804,0.838,0.545,-0.114,-1.281,13.549,-13.427,1
7.365025,0.872,0.523,-0.096,8.728,12.756,-12.634,1
7.372165,0.908,0.507,-0.085,14.77,12.023,-11.718,1
7.380322,0.908,0.539,-0.071,18.371,11.84,-10.742,1
7.38867,0.888,0.574,-0.057,26.611,10.742,-10.925,1
7.395663,0.861,0.603,-0.044,36.865,10.681,-10.314,1
7.403926,0.86,0.651,-0.043,48.645,9.948,-11.657,1
7.41263,0.813,0.694,-0.027,63.232,9.399,-12.939,1
7.419549,0.81,0.721,-0.02,78.43,8.3,-14.648,1
7.427922,0.796,0.717,-0.003,89.233,8.544,-15.808,1
7.434707,0.844,0.711,0.0,95.275,8.605,-16.296,1
7.443154,0.895,0.716,0.024,98.266,9.948,-16.601,1
7.450052,0.886,0.743,0.025,91.308,11.657,-16.967,1
7.458686,0.893,0.751,0.02,77.636,14.16,-17.822,1
7.465763,0.925,0.761,0.008,48.583,16.662,-17.395,1
7.472311,0.963,0.736,0.008,10.437,20.446,-16.418,1
7.480129,0.979,0.786,0.008,-12.084,22.766,-17.211,1
7.487058,0.945,0.845,0.049,-23.681,24.291,-17.517,1
7.495473,0.974,0.906,0.054,-17.028,24.047,-18.066,1
7.501832,1.038,0.951,0.078,0.183,23.437,-19.287,1
7.508884,1.08,0.959,0.084,13.488,22.583,-19.042,1
7.515957,1.082,0.991,0.104,27.954,22.399,-20.69,1
7.524131,1.065,1.066,0.111,37.475,23.01,-22.888,1
7.531026,1.041,1.114,0.124,45.41,23.132,-25.207,1
7.53933,1.012,1.182,0.128,54.443,24.597,-28.747,1
7.546323,0.924,1.29,0.144,71.594,24.719,-33.081,1
7.554417,0.925,1.279,0.071,90.881,23.071,-37.658,1
7.562602,0.875,1.319,0.17,99.975,24.841,-42.053,1
7.569684,0.943,1.337,0.044,117.004,22.766,-47.363,1
7.578419,0.887,1.348,0.119,121.765,22.338,-50.659,1
7.585503,1.102,1.694,0.03,116.271,30.334,-55.358,1
7.59297,1.018,1.662,-0.066,77.331,33.63,-59.387,1
7.599531,1.048,1.622,-0.265,45.471,41.32,-65.734,1
7.606092,0.718,1.719,-0.003,40.039,40.71,-73.913,1
7.613445,0.896,1.763,-0.032,67.382,45.654,-80.139,1
7.621212,0.664,1.739,-0.022,89.538,39.978,-88.928,1
7.628035,0.694,1.666,-0.04,95.214,46.508,-95.031,1
7.635807,0.645,1.599,-0.083,75.927,43.945,-102.966,1
7.643837,0.676,1.551,-0.028,61.95,48.95,-108.886,1
7.651406,0.729,1.483,-0.043,55.114,45.959,-114.257,1
7.659675,0.764,1.415,0.03,57.189,47.851,-120.544,1
7.667957,0.76,1.337,-0.007,59.143,45.288,-126.098,1
7.674572,0.719,1.219,0.036,61.279,46.752,-131.225,1
7.683349,0.717,1.136,0.014,58.837,46.325,-136.352,1
7.690017,0.678,1.019,0.048,57.373,47.79,-140.563,1
7.698045,0.659,0.921,0.032,55.541,47.851,-145.019,1
7.705876,0.623,0.814,0.051,57.312,48.278,-147.399,1
7.712488,0.643,0.716,0.024,61.706,48.4,-150.207,1
7.72083,0.624,0.625,0.036,64.392,49.621,-151.367,1
7.729505,0.626,0.557,0.012,65.368,50.476,-151.977,1
7.736122,0.597,0.499,0.026,66.284,51.818,-152.526,1
7.742851,0.559,0.446,0.013,66.223,54.748,-152.587,1
7.749326,0.497,0.394,0.01,63.476,56.701,-153.137,1
7.756401,0.439,0.334,0.011,59.082,59.997,-153.259,1
7.76424,0.378,0.289,0.008,54.504,61.706,-153.442,1
7.772283,0.321,0.224,0.044,53.71,65.002,-152.893,1
7.779198,0.308,0.174,0.034,54.809,67.321,-152.343,1
7.786495,0.238,0.132,0.075,57.739,68.969,-151.489,1
7.794373,0.235,0.059,0.069,66.223,73.181,-150.329,1
7.801363,0.203,-0.003,0.093,70.739,76.293,-148.986,1
7.809853,0.187,-0.072,0.112,72.692,80.505,-146.667,1
7.817353,0.155,-0.131,0.12,70.556,85.083,-143.676,1
7.825084,0.111,-0.19,0.125,63.171,93.261,-139.343,1
7.833387,0.052,-0.243,0.12,49.072,99.853,-135.803,1
7.840347,-0.017,-0.276,0.116,32.165,106.75,-132.202,1
7.847366,-0.082,-0.315,0.106,17.089,112.792,-128.845,1
7.855631,-0.14,-0.343,0.1,6.958,118.408,-125.183,1
7.863521,-0.175,-0.366,0.086,4.333,122.924,-121.582,1
7.871326,-0.219,-0.406,0.081,7.934,126.403,-117.248,1
7.878301,-0.257,-0.441,0.062,14.282,129.821,-112.731,1
7.886526,-0.315,-0.492,0.044,20.568,132.934,-107.116,1
7.893222,-0.318,-0.518,0.025,25.268,136.047,-100.891,1
7.900352,-0.394,-0.563,-0.001,29.174,138.61,-94.421,1
7.908805,-0.474,-0.616,-0.027,27.587,142.028,-87.524,1
7.916012,-0.513,-0.655,-0.051,22.155,145.324,-80.2,1
7.924619,-0.536,-0.705,-0.074,16.845,148.864,-72.387,1
7.930989,-0.555,-0.756,-0.095,12.268,152.709,-64.147,1
7.939124,-0.577,-0.811,-0.125,7.995,155.761,-55.297,1
7.946204,-0.605,-0.856,-0.169,5.981,159.423,-45.593,1
7.954613,-0.633,-0.889,-0.216,9.277,161.926,-35.705,1
7.961624,-0.676,-0.912,-0.261,20.385,164.245,-22.888,1
7.969667,-0.731,-0.92,-0.317,36.682,165.283,-11.535,1
7.977659,-0.786,-0.944,-0.379,57.189,165.344,0.488,1
7.984682,-0.884,-0.974,-0.433,77.27,165.466,13.61,1
7.99179,-0.96,-1.082,-0.516,83.068,166.687,27.893,1
7.999936,-0.966,-1.205,-0.586,73.364,168.823,41.076,1
8.008317,-0.926,-1.309,-0.662,51.208,171.081,57.373,1
8.017035,-0.94,-1.348,-0.722,33.813,172.607,77.514,1
8.023596,-0.908,-1.362,-0.773,37.902,170.227,95.214,1
8.031527,-0.894,-1.385,-0.869,54.26,168.762,113.525,1
8.038549,-0.865,-1.403,-1.011,79.528,164.306,132.385,1
8.046913,-0.994,-1.362,-1.098,114.501,155.151,152.893,1
8.055667,-1.119,-1.359,-1.162,154.296,145.69,174.804,1
8.061845,-1.299,-1.376,-1.298,182.922,130.92,200.683,1
8.071086,-1.481,-1.392,-1.366,193.481,119.689,224.06,1
8.077751,-1.684,-1.43,-1.463,187.255,109.191,247.131,1
8.085535,-1.876,-1.452,-1.535,171.203,99.67,271.484,1
8.09452,-2.055,-1.444,-1.644,153.991,89.111,295.166,1
8.101068,-2.316,-1.415,-1.731,143.066,75.317,321.838,1
8.109285,-2.616,-1.388,-1.804,140.258,61.95,345.336,1
8.117121,-2.907,-1.348,-1.829,139.343,46.63,368.225,1
8.125896,-3.217,-1.315,-1.88,151.123,29.174,392.822,1
8.1346,-3.473,-1.27,-1.95,188.781,3.417,422.424,1
8.141271,-3.96,-1.2,-2.006,229.614,-27.77,452.331,1
8.149029,-4.348,-1.111,-2.047,254.882,-58.227,477.539,1
8.158004,-4.77,-0.965,-2.033,278.015,-89.416,500.854,1
8.164402,-5.135,-0.854,-2.041,293.212,-126.525,522.094,1
8.17269,-5.541,-0.733,-2.011,295.898,-160.278,541.687,1
8.181021,-6.062,-0.548,-2.001,276.611,-195.922,558.471,1
8.187766,-6.627,-0.325,-1.926,247.375,-228.515,573.242,1
8.196625,-7.222,-0.071,-1.832,207.824,-260.07,586.364,1
8.20336,-7.816,0.203,-1.685,176.147,-287.17,599.67,1
8.209679,-8.422,0.488,-1.535,157.958,-314.636,611.938,1
8.217988,-8.957,0.746,-1.343,153.442,-340.209,623.107,1
8.225129,-9.588,1.064,-1.141,160.034,-366.699,633.117,1
8.233388,-9.98,1.351,-0.96,187.988,-395.324,639.587,1
8.23985,-10.318,1.679,-0.761,222.839,-425.109,640.441,1
8.248672,-10.7,1.998,-0.537,254.272,-455.993,636.108,1
8.255823,-10.979,2.218,-0.359,290.283,-489.868,627.563,1
8.262479,-11.126,2.329,-0.205,326.66,-525.207,614.318,1
8.271309,-11.368,2.392,-0.068,351.928,-554.931,600.219,1
8.278396,-11.547,2.495,0.023,372.863,-597.106,574.707,1
8.286438,-11.522,2.648,0.144,374.633,-625.244,553.833,1
8.293451,-11.421,2.873,0.324,377.502,-664.123,521.301,1
8.30223,-11.393,3.128,0.585,392.211,-692.871,491.332,1
8.308703,-11.571,3.352,0.683,449.89,-724.609,451.11,1
8.317655,-11.663,3.372,0.899,527.099,-755.493,402.465,1
8.324529,-11.696,3.318,1.071,601.989,-781.86,342.712,1
8.33123,-11.564,3.206,1.266,667.48,-802.062,273.315,1
8.340085,-11.455,3.06,1.471,692.443,-807.434,194.885,1
8.346875,-10.706,2.669,1.665,610.717,-795.715,121.826,1
8.353788,-10.103,2.495,1.908,476.501,-767.028,63.537,1
8.361593,-9.737,2.5,2.048,367.37,-737.426,17.944,1
8.36987,-9.088,2.478,2.144,320.556,-710.632,-20.385,1
8.377891,-8.76,2.379,2.116,319.641,-690.185,-56.03,1
8.386233,-8.674,2.326,2.153,327.575,-669.067,-90.332,1
8.393381,-8.237,2.193,2.204,338.134,-648.742,-124.206,1
8.401313,-7.496,1.992,2.315,341.491,-618.225,-162.902,1
8.409787,-6.907,1.756,2.425,333.374,-594.421,-188.293,1
8.416244,-6.229,1.454,2.451,313.354,-554.26,-217.956,1
8.424652,-5.877,1.277,2.425,281.86,-521.118,-237.365,1
8.431216,-5.453,1.108,2.403,244.934,-486.083,-251.77,1
8.439952,-5.143,1.021,2.352,209.411,-453.124,-261.291,1
8.446575,-4.891,0.96,2.306,177.49,-423.278,-267.761,1
8.454829,-4.583,0.916,2.234,152.893,-396.545,-272.094,1
8.461948,-4.355,0.92,2.237,143.432,-371.276,-275.39,1
8.469923,-3.985,0.848,2.196,149.963,-348.022,-278.564,1
8.478894,-3.685,0.729,2.171,155.578,-324.462,-281.25,1
8.485549,-3.369,0.581,2.095,145.08,-297.851,-283.691,1
8.493907,-3.148,0.489,2.056,130.737,-273.742,-284.118,1
8.502174,-2.928,0.415,1.988,115.173,-252.075,-283.752,1
8.508824,-2.712,0.359,1.928,101.257,-231.079,-282.104,1
8.517654,-2.528,0.295,1.859,87.524,-212.402,-279.663,1
8.52413,-2.323,0.245,1.836,78.125,-194.641,-276.245,1
8.532875,-2.135,0.19,1.832,73.913,-178.039,-272.705,1
8.539657,-1.977,0.13,1.827,73.791,-161.376,-268.005,1
8.546665,-1.841,0.085,1.795,73.791,-146.118,-262.817,1
8.555013,-1.728,0.057,1.758,77.087,-130.859,-257.202,1
8.562416,-1.647,0.061,1.686,85.998,-117.431,-251.892,1
8.569406,-1.559,0.062,1.617,102.233,-105.59,-246.948,1
8.579386,-1.486,0.045,1.53,121.765,-94.238,-242.37,1
8.586843,-1.367,-0.021,1.443,126.586,-79.101,-237.182,1
8.594803,-1.21,-0.076,1.369,112.792,-65.246,-231.994,1
8.603395,-1.112,-0.091,1.323,91.186,-49.865,-225.341,1
8.609648,-1.044,-0.108,1.293,73.73,-39.367,-218.872,1
8.618292,-0.99,-0.12,1.295,63.903,-28.503,-211.975,1
8.625256,-0.916,-0.131,1.259,62.622,-20.385,-205.444,1
8.633715,-0.855,-0.127,1.252,71.35,-12.451,-198.425,1
8.640207,-0.751,-0.131,1.203,87.463,-7.324,-191.711,1
8.648686,-0.66,-0.115,1.16,111.083,-1.525,-185.058,1
8.655282,-0.595,-0.116,1.096,137.023,2.441,-178.833,1
8.664058,-0.544,-0.112,1.056,158.935,7.934,-172.729,1
8.671078,-0.476,-0.145,1.008,163.269,14.404,-166.87,1
8.677718,-0.415,-0.182,0.992,140.991,24.169,-160.888,1
8.685975,-0.339,-0.207,0.965,97.045,34.179,-154.541,1
8.69423,-0.285,-0.191,0.982,50.903,43.151,-147.766,1
8.702687,-0.194,-0.171,0.99,16.113,50.659,-141.906,1
8.709414,-0.138,-0.159,0.999,-2.075,55.419,-136.23,1
8.71632,-0.093,-0.136,0.973,-3.845,58.288,-131.103,1
8.723463,-0.056,-0.119,0.962,9.948,57.678,-126.037,1
8.73179,-0.026,-0.107,0.958,38.024,57.373,-120.971,1
8.738493,0.022,-0.11,0.942,72.082,56.335,-115.722,1
8.746514,0.085,-0.135,0.908,102.966,57.067,-110.229,1
8.754379,0.14,-0.168,0.861,122.985,58.898,-104.37,1
8.762657,0.193,-0.189,0.812,131.896,61.706,-98.327,1
8.769674,0.223,-0.205,0.761,130.92,64.636,-92.712,1
8.776533,0.217,-0.212,0.721,123.901,68.237,-87.28,1
8.783635,0.217,-0.236,0.688,109.68,73.303,-82.214,1
8.791921,0.278,-0.25,0.642,86.425,77.209,-77.27,1
8.798585,0.252,-0.251,0.613,63.293,80.505,-73.791,1
8.80734,0.27,-0.251,0.565,37.963,83.007,-69.946,1
8.815018,0.284,-0.23,0.541,21.484,84.96,-66.406,1
8.821814,0.297,-0.215,0.504,15.258,85.51,-63.171,1
8.830502,0.311,-0.205,0.476,18.798,85.083,-60.791,1
8.837491,0.338,-0.2,0.428,27.16,84.472,-58.471,1
8.845838,0.351,-0.208,0.392,37.414,83.19,-55.236,1
8.854292,0.375,-0.21,0.354,49.194,82.641,-52.612,1
8.862305,0.418,-0.208,0.298,62.683,81.787,-49.011,1
8.86893,0.339,-0.214,0.235,71.105,82.153,-45.471,1
8.876844,0.435,-0.215,0.181,67.687,82.275,-42.48,1
8.885543,0.509,-0.203,0.156,66.223,83.496,-39.794,1
8.891916,0.509,-0.18,0.115,66.223,84.045,-37.414,1
8.900168,0.527,-0.158,0.102,71.166,84.411,-35.034,1
8.907,0.573,-0.151,0.064,81.604,84.167,-33.203,1
8.913836,0.605,-0.158,0.043,91.186,83.74,-31.677,1
8.922249,0.581,-0.178,-0.004,96.435,83.557,-29.724,1
8.930666,0.564,-0.209,-0.018,92.834,83.74,-28.015,1
8.937237,0.594,-0.226,-0.048,85.815,82.824,-26.123,1
8.945169,0.656,-0.262,-0.061,76.599,84.106,-24.23,1
8.952095,0.697,-0.297,-0.075,65.124,85.144,-21.789,1
8.960055,0.741,-0.332,-0.089,51.818,86.669,-18.981,1
8.96678,0.791,-0.357,-0.098,35.949,88.562,-16.723,1
8.975171,0.808,-0.376,-0.111,20.385,89.782,-14.526,1
8.98218,0.821,-0.384,-0.116,1.464,90.27,-11.413,1
8.9909,0.839,-0.39,-0.118,-12.39,90.454,-8.605,1
8.997634,0.835,-0.396,-0.131,-26.733,90.881,-7.202,1
9.006061,0.84,-0.388,-0.132,-40.344,91.491,-4.272,1
9.013079,0.886,-0.38,-0.132,-50.598,91.247,-1.525,1
9.01972,0.893,-0.363,-0.126,-56.762,90.881,0.976,1
9.028199,0.896,-0.351,-0.127,-60.485,90.332,3.417,1
9.035999,0.889,-0.338,-0.112,-62.988,90.087,6.286,1
9.044271,0.866,-0.321,-0.106,-64.697,89.721,9.094,1
9.05222,0.828,-0.301,-0.097,-64.941,89.172,11.047,1
9.060433,0.803,-0.287,-0.09,-63.659,88.806,13.427,1
9.068363,0.781,-0.273,-0.079,-63.415,88.806,15.441,1
9.076741,0.765,-0.266,-0.074,-62.927,88.5,17.272,1
9.084204,0.761,-0.258,-0.057,-61.34,88.256,19.897,1
9.092962,0.768,-0.253,-0.054,-59.509,87.951,21.972,1
9.10101,0.782,-0.251,-0.045,-57.373,87.89,24.597,1
9.106995,0.8,-0.254,-0.046,-56.091,87.89,27.099,1
9.115175,0.816,-0.253,-0.039,-55.48,88.317,29.296,1
9.122713,0.809,-0.243,-0.039,-55.358,88.745,31.799,1
9.130941,0.822,-0.234,-0.023,-57.861,88.073,35.034,1
9.137439,0.876,-0.227,-0.046,-55.358,89.843,36.193,1
9.145603,0.869,-0.223,-0.048,-52.917,90.209,37.902,1
9.152579,0.922,-0.231,-0.027,-53.283,90.637,40.039,1
9.16062,0.929,-0.222,-0.043,-53.771,90.576,42.053,1
9.169567,0.961,-0.227,-0.041,-51.818,93.078,44.494,1
9.177474,0.991,-0.216,-0.031,-49.682,92.651,47.241,1
9.184739,1.0,-0.205,-0.035,-40.161,93.933,50.781,1
9.19276,0.979,-0.186,-0.019,-26.428,93.444,53.344,1
9.201068,0.969,-0.172,-0.022,-8.361,93.994,56.457,1
9.209263,0.966,-0.169,-0.02,12.512,92.895,59.814,1
9.21592,0.966,-0.171,-0.019,33.935,93.2,63.476,1
9.222538,0.973,-0.173,-0.027,52.124,91.979,67.26,1
9.229499,0.965,-0.177,-0.025,68.481,92.346,71.166,1
9.236642,0.962,-0.18,-0.044,77.636,91.918,74.584,1
9.244857,0.953,-0.188,-0.035,85.083,92.529,79.284,1
9.251843,0.955,-0.186,-0.056,87.219,93.078,83.618,1
9.25864,0.923,-0.189,-0.051,85.815,94.604,88.317,1
9.266748,0.883,-0.181,-0.067,82.031,96.13,91.857,1
9.273678,0.836,-0.171,-0.066,75.256,97.473,96.435,1
9.281918,0.81,-0.163,-0.086,68.542,99.67,100.585,1
9.290228,0.788,-0.146,-0.086,63.049,101.074,105.773,1
9.297342,0.775,-0.126,-0.101,62.377,102.355,109.191,1
9.304472,0.746,-0.102,-0.107,65.002,102.539,114.257,1
9.312276,0.736,-0.085,-0.118,71.533,102.905,118.652,1
9.320993,0.714,-0.065,-0.12,80.749,103.088,123.535,1
9.327849,0.703,-0.05,-0.127,92.834,103.027,128.54,1
9.336473,0.675,-0.045,-0.13,103.82,102.355,133.972,1
9.343112,0.623,-0.042,-0.149,111.206,102.416,138.854,1
9.3519,0.549,-0.034,-0.164,114.379,101.623,143.31,1
9.358721,0.473,-0.025,-0.175,113.647,100.891,148.193,1
9.365746,0.414,-0.007,-0.189,108.032,100.036,152.648,1
9.372341,0.353,0.008,-0.198,99.731,99.914,156.921,1
9.380527,0.308,0.032,-0.22,88.867,99.548,161.132,1
9.387192,0.269,0.07,-0.218,80.2,99.792,164.489,1
9.395588,0.216,0.129,-0.239,72.448,99.914,167.785,1
9.402322,0.139,0.213,-0.251,70.556,98.876,169.86,1
9.410671,0.054,0.315,-0.265,76.171,97.106,170.227,1
9.417723,-0.014,0.407,-0.281,84.96,95.581,169.799,1
9.424831,-0.08,0.494,-0.306,96.679,93.078,169.494,1
9.431899,-0.123,0.56,-0.323,106.994,90.026,169.555,1
9.438846,-0.16,0.621,-0.345,111.816,87.097,169.25,1
9.447191,-0.181,0.681,-0.365,108.398,84.777,168.518,1
9.454317,-0.186,0.739,-0.379,98.022,83.557,168.334,1
9.46088,-0.201,0.806,-0.402,80.566,83.19,167.297,1
9.469579,-0.23,0.871,-0.413,58.471,83.74,165.649,1
9.476179,-0.239,0.93,-0.42,40.71,84.655,163.635,1
9.483423,-0.247,0.998,-0.428,25.512,85.144,160.705,1
9.49125,-0.244,1.074,-0.426,22.521,84.777,157.226,1
9.499532,-0.221,1.134,-0.429,32.836,83.129,153.686,1
9.507899,-0.201,1.163,-0.434,51.696,80.566,149.658,1
9.515001,-0.183,1.182,-0.454,64.086,77.941,146.484,1
9.523233,-0.179,1.19,-0.465,66.589,75.805,143.737,1
9.531723,-0.174,1.179,-0.476,61.035,74.523,141.174,1
9.538146,-0.169,1.173,-0.467,51.269,74.035,139.099,1
9.545115,-0.179,1.185,-0.477,39.184,74.523,137.268,1
9.55404,-0.209,1.204,-0.484,24.536,74.89,135.559,1
9.562314,-0.217,1.209,-0.484,9.765,75.744,133.361,1
9.568798,-0.186,1.221,-0.475,1.22,75.317,131.469,1
9.577051,-0.155,1.222,-0.463,5.249,74.34,129.455,1
9.583938,-0.134,1.214,-0.45,19.348,72.265,127.868,1
9.592162,-0.11,1.204,-0.437,38.757,69.641,126.953,1
9.599653,-0.113,1.194,-0.435,56.152,66.589,126.464,1
9.607885,-0.125,1.176,-0.433,65.551,64.575,126.22,1
9.6146,-0.143,1.158,-0.427,67.199,63.11,126.098,1
9.623295,-0.155,1.139,-0.416,63.781,62.561,126.281,1
9.630297,-0.17,1.127,-0.419,57.25,62.561,126.831,1
9.638929,-0.183,1.12,-0.405,47.912,62.683,126.647,1
9.645686,-0.193,1.107,-0.401,39.062,63.171,126.77,1
9.653994,-0.217,1.109,-0.384,32.897,62.805,126.953,1
9.660993,-0.2,1.084,-0.365,34.179,62.133,127.38,1
9.669282,-0.194,1.075,-0.346,43.273,60.546,127.929,1
9.676537,-0.214,1.064,-0.33,57.373,58.349,128.784,1
9.685212,-0.238,1.058,-0.326,70.861,56.091,130.432,1
9.692308,-0.254,1.06,-0.334,77.148,54.138,132.019,1
9.701052,-0.285,1.059,-0.337,76.904,52.978,133.056,1
9.70769,-0.297,1.047,-0.332,72.937,51.208,134.46,1
9.71639,-0.333,1.036,-0.318,68.42,49.865,135.437,1
9.722934,-0.325,1.021,-0.299,65.063,47.729,136.718,1
9.731618,-0.311,0.978,-0.286,67.687,44.616,138.61,1
9.738206,-0.293,0.954,-0.247,79.528,41.503,140.625,1
9.746538,-0.296,0.879,-0.228,95.092,36.56,143.981,1
9.753738,-0.317,0.806,-0.2,109.374,32.531,148.498,1
9.763182,-0.289,0.744,-0.194,110.473,28.198,155.639,1
9.769433,-0.265,0.723,-0.17,114.501,26.184,160.888,1
9.777743,-0.376,0.714,-0.185,109.985,24.902,166.809,1
9.786048,-0.574,0.742,-0.204,85.266,26.672,171.569,1
9.793014,-0.705,0.765,-0.219,44.494,28.93,175.598,1
9.800073,-0.773,0.821,-0.204,6.713,32.775,179.382,1
9.808416,-0.835,0.854,-0.22,-26.611,36.865,182.25,1
9.817158,-0.89,0.878,-0.21,-52.001,40.527,184.509,1
9.825453,-0.925,0.892,-0.216,-70.068,43.701,187.622,1
9.834263,-0.903,0.877,-0.205,-74.462,44.677,190.002,1
9.842574,-0.881,0.829,-0.197,-66.528,44.982,192.871,1
9.849232,-0.858,0.81,-0.175,-51.818,43.579,195.861,1
9.857972,-0.883,0.811,-0.187,-27.709,42.602,198.364,1
9.864728,-0.989,0.85,-0.171,-2.685,40.283,199.951,1
9.873067,-1.104,0.9,-0.183,29.052,37.17,200.439,1
9.881138,-1.226,0.94,-0.169,64.819,31.799,200.256,1
9.88812,-1.249,0.937,-0.159,102.661,27.465,200.195,1
9.8964,-1.297,0.95,-0.141,134.46,22.033,199.951,1
9.90523,-1.315,0.903,-0.122,153.991,17.822,201.538,1
9.911901,-1.317,0.843,-0.116,162.597,13.244,203.369,1
9.920623,-1.312,0.849,-0.072,163.635,11.84,204.528,1
9.92673,-1.313,0.875,-0.057,159.484,10.009,206.176,1
9.935327,-1.446,0.97,-0.027,156.921,9.704,206.237,1
9.943577,-1.493,1.073,-0.039,160.583,7.995,202.697,1
9.950483,-1.533,1.143,-0.04,170.104,4.211,197.875,1
9.959022,-1.451,1.157,-0.048,182.617,-0.366,192.871,1
9.966008,-1.412,1.184,-0.015,204.711,-6.591,186.279,1
9.974421,-1.306,1.132,-0.015,215.393,-13.427,180.603,1
9.982709,-1.345,1.16,-0.01,237.487,-20.263,175.109,1
9.989234,-1.293,1.104,-0.016,254.211,-29.968,170.043,1
9.997925,-1.358,1.064,0.008,275.268,-37.78,165.1,1
