timestamp_s,ax,ay,az,gx,gy,gz,label
0.006715,0.885,0.084,-0.44,2.563,-9.277,1.159,1
0.013346,0.882,0.078,-0.437,5.249,-9.582,1.037,1
0.020093,0.88,0.073,-0.425,7.629,-9.399,1.159,1
0.028194,0.882,0.072,-0.414,9.582,-9.277,0.915,1
0.035745,0.894,0.063,-0.406,9.338,-8.972,1.403,1
0.042123,0.9,0.061,-0.408,5.065,-7.995,1.892,1
0.049572,0.898,0.067,-0.411,-0.244,-6.896,2.136,1
0.05666,0.893,0.08,-0.418,-6.103,-6.591,2.38,1
0.065023,0.888,0.095,-0.415,-9.216,-6.042,2.319,1
0.071551,0.886,0.105,-0.417,-9.338,-6.042,2.197,1
0.079803,0.892,0.104,-0.408,-7.507,-6.408,2.38,1
0.087137,0.896,0.1,-0.406,-5.432,-6.164,2.258,1
0.09411,0.912,0.089,-0.408,-3.845,-6.164,2.319,1
0.101106,0.92,0.089,-0.402,-3.601,-5.859,2.502,1
0.109157,0.923,0.095,-0.404,-3.967,-5.859,2.624,1
0.116498,0.926,0.095,-0.406,-3.295,-5.493,2.685,1
0.124968,0.927,0.105,-0.405,-0.671,-5.737,2.807,1
0.13143,0.928,0.104,-0.404,2.319,-5.615,2.685,1
0.139539,0.924,0.105,-0.402,4.028,-5.676,2.807,1
0.145946,0.916,0.102,-0.4,3.234,-5.004,2.807,1
0.154062,0.911,0.098,-0.4,1.525,-4.76,2.807,1
0.160625,0.903,0.107,-0.403,-0.915,-4.089,2.685,1
0.167524,0.898,0.113,-0.402,-2.685,-3.601,2.624,1
0.175162,0.896,0.113,-0.394,-4.394,-3.356,2.624,1
0.183135,0.892,0.116,-0.396,-5.004,-2.868,2.624,1
0.190869,0.896,0.12,-0.399,-5.92,-2.746,2.624,1
0.197412,0.905,0.129,-0.404,-6.347,-2.38,2.502,1
0.204552,0.903,0.126,-0.408,-7.019,-2.075,2.563,1
0.212667,0.916,0.13,-0.416,-7.812,-1.708,2.258,1
0.220422,0.926,0.135,-0.421,-8.361,-1.892,2.197,1
0.22838,0.923,0.136,-0.417,-7.629,-1.953,2.136,1
0.23513,0.918,0.139,-0.42,-6.591,-1.892,1.77,1
0.242524,0.915,0.133,-0.418,-5.676,-1.647,1.708,1
0.249926,0.916,0.137,-0.422,-4.882,-1.647,1.403,1
0.25703,0.911,0.135,-0.424,-3.906,-1.708,1.281,1
0.265077,0.904,0.138,-0.416,-1.953,-1.953,1.037,1
0.271514,0.906,0.134,-0.418,1.159,-1.831,0.854,1
0.279725,0.913,0.131,-0.413,5.126,-2.38,0.488,1
0.285963,0.918,0.124,-0.419,6.958,-2.319,0.488,1
0.294562,0.919,0.113,-0.419,5.92,-2.319,0.366,1
0.300888,0.913,0.112,-0.425,1.953,-1.831,0.366,1
0.308118,0.913,0.114,-0.432,-3.051,-1.525,0.366,1
0.315366,0.907,0.12,-0.434,-7.629,-1.22,0.183,1
0.323593,0.906,0.126,-0.429,-9.155,-1.281,0.183,1
0.330084,0.909,0.133,-0.432,-8.789,-1.403,0.122,1
0.338002,0.913,0.129,-0.43,-7.629,-1.403,-0.061,1
0.346044,0.911,0.128,-0.43,-7.324,-1.464,-0.122,1
0.352718,0.915,0.123,-0.431,-8.361,-1.403,-0.488,1
0.360213,0.915,0.121,-0.434,-10.192,-1.22,-0.427,1
0.368244,0.916,0.124,-0.433,-11.535,-1.098,-0.427,1
0.374988,0.912,0.117,-0.433,-11.291,-1.22,-0.549,1
0.383181,0.918,0.12,-0.432,-8.789,-1.892,-0.671,1
0.39181,0.926,0.114,-0.428,-4.272,-2.075,-0.671,1
0.398248,0.928,0.112,-0.423,-0.244,-2.441,-0.915,1
0.406009,0.934,0.102,-0.421,2.563,-2.624,-0.793,1
0.412519,0.937,0.098,-0.42,3.479,-2.929,-0.488,1
0.421175,0.935,0.104,-0.421,2.807,-2.563,-0.61,1
0.428539,0.924,0.109,-0.417,0.61,-2.441,-0.244,1
0.435195,0.914,0.115,-0.419,-1.586,-2.319,-0.183,1
0.443247,0.904,0.12,-0.424,-3.967,-2.197,-0.549,1
0.449879,0.899,0.127,-0.423,-4.211,-2.136,-0.549,1
0.457806,0.901,0.126,-0.426,-2.746,-2.38,-0.915,1
0.465916,0.9,0.126,-0.423,-0.549,-2.624,-1.159,1
0.473796,0.903,0.123,-0.424,1.892,-2.929,-1.464,1
0.482036,0.906,0.119,-0.424,3.356,-3.417,-1.831,1
0.487992,0.914,0.111,-0.42,4.638,-3.356,-2.136,1
0.496054,0.914,0.101,-0.416,4.638,-3.295,-2.319,1
0.502763,0.92,0.089,-0.412,3.723,-3.112,-2.197,1
0.511546,0.923,0.085,-0.409,2.929,-2.99,-2.197,1
0.517936,0.929,0.088,-0.406,2.502,-2.807,-2.075,1
0.526209,0.935,0.091,-0.405,2.258,-2.746,-2.075,1
0.533079,0.943,0.082,-0.41,1.159,-2.746,-2.319,1
0.541092,0.935,0.087,-0.414,0.244,-2.624,-2.197,1
0.548363,0.928,0.089,-0.413,-0.244,-2.563,-2.685,1
0.557319,0.901,0.091,-0.414,-1.281,-2.38,-2.929,1
0.564234,0.91,0.088,-0.429,-3.295,-1.953,-3.234,1
0.570725,0.907,0.094,-0.434,-4.211,-2.075,-3.784,1
0.578501,0.91,0.093,-0.438,-3.479,-2.014,-3.906,1
0.585734,0.914,0.092,-0.441,-1.586,-2.258,-4.272,1
0.593559,0.93,0.08,-0.439,0.488,-2.502,-4.516,1
0.600351,0.869,0.075,-0.443,3.54,-3.112,-4.211,1
0.608536,0.978,0.074,-0.448,6.164,-2.136,-3.967,1
0.616502,0.991,0.055,-0.471,1.098,-4.028,-3.417,1
0.624725,1.016,0.065,-0.448,-0.732,-2.563,-3.112,1
0.631742,1.003,0.065,-0.49,-2.319,-4.028,-2.624,1
0.638207,1.008,0.065,-0.486,-2.258,-4.089,-1.831,1
0.64548,1.01,0.061,-0.512,-3.234,-4.943,-1.342,1
0.653457,1.011,0.061,-0.508,-4.699,-5.249,-0.671,1
0.660118,1.03,0.062,-0.524,-7.019,-5.798,-0.305,1
0.667572,1.041,0.06,-0.527,-8.605,-6.774,0.122,1
0.675331,1.043,0.065,-0.529,-9.216,-7.629,0.793,1
0.682429,1.055,0.072,-0.531,-8.361,-9.582,1.098,1
0.69063,1.048,0.073,-0.532,-4.516,-11.352,1.892,1
0.697542,1.041,0.074,-0.539,-1.037,-13.366,2.929,1
0.704315,1.034,0.073,-0.549,2.807,-15.319,3.356,1
0.712771,1.053,0.064,-0.555,6.652,-17.7,3.723,1
0.719136,1.046,0.05,-0.546,10.253,-18.676,4.333,1
0.727229,1.044,0.049,-0.56,9.582,-20.324,4.699,1
0.733879,1.089,0.052,-0.576,6.835,-21.301,5.249,1
0.740848,1.064,0.07,-0.587,1.831,-23.254,5.493,1
0.748217,1.11,0.087,-0.591,-2.685,-23.559,5.432,1
0.756211,1.087,0.109,-0.62,-8.605,-26.123,4.882,1
0.764449,1.094,0.122,-0.605,-13.977,-27.099,4.394,1
0.770616,1.127,0.148,-0.619,-21.118,-28.747,3.784,1
0.778434,1.125,0.193,-0.604,-22.827,-30.334,2.929,1
0.785682,1.12,0.251,-0.605,-15.808,-33.691,1.892,1
0.79338,1.127,0.292,-0.598,-4.394,-36.56,0.732,1
0.800277,1.143,0.315,-0.591,11.047,-40.832,-0.61,1
0.807377,1.174,0.339,-0.585,24.475,-44.189,-2.502,1
0.81476,1.16,0.375,-0.584,31.86,-47.058,-4.577,1
0.822687,1.129,0.419,-0.582,33.569,-49.499,-6.53,1
0.830157,1.121,0.465,-0.578,32.348,-51.147,-8.911,1
0.836799,1.119,0.504,-0.563,29.296,-52.917,-12.145,1
0.844212,1.102,0.553,-0.544,25.268,-54.321,-15.991,1
0.851383,1.084,0.593,-0.517,21.728,-55.664,-19.775,1
0.859472,1.085,0.635,-0.481,19.592,-56.823,-23.559,1
0.866003,1.079,0.692,-0.45,21.179,-58.227,-27.526,1
0.873494,1.084,0.728,-0.417,27.709,-60.424,-32.226,1
0.881721,1.096,0.757,-0.372,38.574,-62.072,-37.414,1
0.888193,1.123,0.784,-0.327,49.316,-64.025,-42.236,1
0.895473,1.144,0.788,-0.282,55.419,-64.575,-47.485,1
0.903101,1.181,0.794,-0.244,54.504,-64.758,-51.208,1
0.911529,1.174,0.798,-0.218,49.926,-64.025,-56.579,1
0.918369,1.146,0.818,-0.148,40.1,-62.744,-61.767,1
0.925857,1.139,0.838,-0.122,28.503,-59.814,-67.077,1
0.932851,1.132,0.846,-0.116,16.357,-58.288,-72.387,1
0.941667,1.03,0.851,-0.058,3.723,-56.274,-77.758,1
0.947948,1.067,0.814,-0.029,-6.652,-54.138,-82.824,1
0.956592,1.121,0.844,0.028,-7.995,-51.574,-87.341,1
0.962963,1.062,0.858,0.033,-2.319,-51.147,-92.529,1
0.969627,1.008,0.854,0.07,5.92,-49.682,-97.045,1
0.977212,1.006,0.834,0.081,15.747,-48.339,-102.233,1
0.985271,0.974,0.792,0.095,20.629,-46.63,-107.299,1
0.991524,0.945,0.76,0.097,20.996,-43.457,-112.548,1
0.998918,0.915,0.735,0.094,19.775,-41.32,-116.882,1
1.007232,0.88,0.704,0.106,21.85,-38.818,-121.582,1
1.014572,0.844,0.657,0.097,26.672,-36.254,-126.159,1
1.021353,0.785,0.608,0.105,31.616,-33.996,-130.126,1
1.027922,0.641,0.559,0.091,34.912,-31.372,-133.728,1
1.035739,0.763,0.541,0.108,34.912,-28.198,-136.474,1
1.042493,0.657,0.467,0.093,31.616,-25.329,-139.16,1
1.050553,0.644,0.377,0.086,25.146,-21.057,-141.723,1
1.056976,0.625,0.302,0.095,19.958,-18.127,-143.432,1
1.064674,0.601,0.25,0.097,16.54,-14.831,-145.324,1
1.071569,0.575,0.167,0.109,15.136,-11.535,-146.911,1
1.079947,0.555,0.062,0.113,13.916,-8.178,-148.315,1
1.086643,0.44,-0.019,0.141,15.014,-6.042,-148.986,1
1.094271,0.502,-0.129,0.119,21.85,-2.258,-149.475,1
1.102066,0.487,-0.191,0.125,27.282,0.427,-149.169,1
1.108517,0.407,-0.283,0.148,29.663,4.577,-147.827,1
1.115466,0.396,-0.375,0.143,26.184,8.728,-146.423,1
1.123783,0.36,-0.446,0.152,22.766,14.526,-144.226,1
1.130494,0.329,-0.529,0.143,19.836,18.188,-142.089,1
1.13836,0.263,-0.608,0.153,14.953,23.254,-139.404,1
1.145119,0.212,-0.673,0.147,10.314,28.808,-135.864,1
1.152347,0.154,-0.749,0.142,0.671,33.691,-132.507,1
1.160467,0.096,-0.832,0.137,-5.981,37.902,-129.394,1
1.167087,0.044,-0.922,0.141,-13.183,42.236,-125.061,1
1.174974,0.01,-0.996,0.153,-20.324,46.691,-120.056,1
1.181651,-0.028,-1.073,0.163,-17.761,50.292,-114.318,1
1.189849,-0.072,-1.153,0.172,-10.925,54.016,-107.91,1
1.19612,-0.11,-1.244,0.165,2.38,57.312,-101.562,1
1.204266,-0.189,-1.329,0.196,13.549,59.02,-94.97,1
1.211753,-0.29,-1.438,0.196,25.146,64.025,-85.937,1
1.218199,-0.386,-1.56,0.194,28.259,67.016,-76.721,1
1.226014,-0.459,-1.682,0.211,25.207,73.486,-65.612,1
1.232909,-0.53,-1.776,0.207,19.287,77.331,-56.579,1
1.239993,-0.613,-1.867,0.238,6.713,82.336,-45.104,1
1.248241,-0.643,-1.945,0.288,-4.943,89.782,-32.104,1
1.254969,-0.692,-2.029,0.316,-8.728,95.764,-18.188,1
1.263144,-0.811,-2.063,0.364,-2.685,102.661,-3.723,1
1.269606,-0.873,-2.177,0.385,6.835,106.689,12.939,1
1.276999,-0.951,-2.273,0.398,9.765,114.196,28.259,1
1.284312,-1.082,-2.315,0.345,10.131,119.995,46.02,1
1.291963,-1.29,-2.356,0.37,14.892,126.953,65.307,1
1.298709,-1.414,-2.46,0.315,0.732,134.155,81.909,1
1.307012,-1.551,-2.435,0.321,-2.746,141.357,101.867,1
1.313968,-1.659,-2.416,0.32,24.353,146.118,122.558,1
1.321352,-1.86,-2.455,0.279,58.898,151.0,145.019,1
1.327898,-2.08,-2.479,0.174,78.063,154.357,164.306,1
1.33577,-2.288,-2.485,0.133,90.82,158.63,188.842,1
1.342144,-2.539,-2.468,0.081,102.478,162.597,214.172,1
1.349167,-2.824,-2.447,0.041,115.844,166.992,241.394,1
1.357066,-3.151,-2.409,-0.063,120.727,170.471,265.075,1
1.364037,-3.495,-2.37,-0.112,110.9,173.889,294.494,1
1.371968,-3.789,-2.329,-0.182,103.332,178.039,325.561,1
1.378579,-4.253,-2.245,-0.26,101.257,182.739,357.666,1
1.386501,-4.743,-2.197,-0.375,93.933,184.997,390.991,1
1.392932,-5.16,-2.149,-0.452,95.642,187.316,420.288,1
1.400837,-5.675,-2.118,-0.615,96.008,188.049,456.603,1
1.408673,-6.259,-2.083,-0.749,93.505,185.668,494.445,1
1.415386,-6.895,-2.04,-0.904,95.153,183.227,534.545,1
1.423231,-7.547,-2.007,-1.062,98.999,177.185,569.091,1
1.429908,-8.224,-1.994,-1.192,107.421,168.518,613.159,1
1.436893,-9.1,-1.974,-1.378,113.952,156.311,659.728,1
1.446004,-10.08,-1.888,-1.529,124.999,139.953,707.214,1
1.452587,-11.12,-1.787,-1.645,146.484,117.797,756.225,1
1.460666,-12.256,-1.684,-1.757,175.842,89.965,805.908,1
1.468539,-13.533,-1.542,-1.855,213.012,53.588,856.506,1
1.476952,-15.248,-1.347,-1.896,241.76,11.047,906.799,1
1.484669,-15.999,-1.025,-1.859,274.719,-37.109,955.627,1
1.492302,-15.999,-0.607,-1.79,338.195,-108.947,1007.629,1
1.500415,-15.999,-0.176,-1.686,394.409,-179.443,1045.715,1
1.506799,-15.999,0.291,-1.515,420.41,-256.713,1076.294,1
1.514608,-15.999,0.824,-1.255,418.457,-333.618,1099.06,1
1.521402,-15.999,1.411,-0.924,411.987,-411.376,1112.915,1
1.529189,-15.999,1.904,-0.516,411.987,-492.919,1119.384,1
1.53613,-15.999,2.526,0.006,438.537,-563.781,1118.042,1
1.54363,-15.999,2.99,0.441,523.254,-662.292,1104.736,1
1.551028,-15.999,3.209,1.215,643.432,-776.306,1078.247,1
1.558569,-15.999,2.927,2.123,757.324,-894.592,1036.682,1
1.566831,-15.999,3.339,3.694,895.141,-982.665,979.125,1
1.572943,-15.999,4.622,4.228,1156.127,-1081.359,858.215,1
1.580222,-15.999,4.719,4.395,1381.347,-1189.148,712.097,1
1.58824,-15.999,4.381,4.318,1567.077,-1264.648,497.741,1
1.594965,-15.999,3.805,4.181,1647.827,-1313.781,255.187,1
1.603313,-15.999,3.33,4.086,1615.6,-1290.405,9.704,1
1.609858,-15.999,2.666,3.829,1439.269,-1216.735,-209.167,1
1.618181,-15.999,1.941,3.825,1200.5,-1090.942,-377.624,1
1.624639,-15.999,1.449,3.514,1002.258,-990.173,-479.675,1
1.632614,-15.999,0.986,3.434,791.259,-872.802,-559.326,1
1.640575,-15.999,0.62,3.05,601.745,-769.348,-606.872,1
1.647206,-15.889,0.617,2.966,458.984,-686.95,-633.972,1
1.65415,-15.01,0.715,2.928,400.573,-612.365,-649.475,1
1.662125,-14.087,0.755,2.909,420.715,-547.973,-664.306,1
1.670295,-13.071,0.557,2.748,469.787,-484.069,-678.344,1
1.676817,-12.034,0.17,2.614,498.718,-427.673,-686.34,1
1.683766,-11.087,-0.231,2.406,480.895,-355.59,-687.561,1
1.691537,-10.138,-0.48,2.241,410.827,-286.193,-679.199,1
1.699753,-9.451,-0.516,2.122,352.539,-227.05,-664.794,1
1.706701,-8.912,-0.516,2.011,320.19,-175.17,-646.85,1
1.714751,-8.481,-0.532,1.899,298.278,-128.906,-626.525,1
1.721051,-7.929,-0.589,1.745,277.954,-88.256,-605.041,1
1.729532,-7.389,-0.727,1.65,246.52,-52.551,-580.688,1
1.737381,-6.867,-0.858,1.52,201.11,-17.761,-554.016,1
1.743807,-6.317,-0.958,1.424,156.433,3.601,-532.043,1
1.75081,-5.905,-1.015,1.375,115.905,27.099,-504.943,1
1.758457,-5.463,-1.048,1.267,96.435,43.579,-479.186,1
1.766992,-5.03,-1.107,1.188,94.848,56.518,-454.65,1
1.773511,-4.616,-1.194,1.071,98.999,67.626,-431.152,1
1.781511,-4.229,-1.251,0.969,103.637,77.88,-408.264,1
1.788473,-3.887,-1.323,0.847,103.088,87.89,-386.169,1
1.796646,-3.622,-1.35,0.768,102.783,96.496,-363.708,1
1.803279,-3.322,-1.396,0.701,104.919,104.187,-341.491,1
1.811309,-3.051,-1.46,0.614,100.83,110.168,-323.608,1
1.817933,-2.889,-1.473,0.562,87.28,117.309,-302.124,1
1.827048,-2.685,-1.449,0.515,77.026,123.229,-280.883,1
1.83522,-2.446,-1.433,0.446,68.969,127.441,-257.202,1
1.842184,-2.249,-1.436,0.393,59.02,130.31,-237.487,1
1.850162,-2.045,-1.447,0.342,43.151,132.812,-218.811,1
1.858214,-1.794,-1.425,0.308,27.099,134.277,-200.866,1
1.866032,-1.592,-1.399,0.279,18.066,134.033,-181.152,1
1.873142,-1.437,-1.368,0.275,18.066,133.239,-165.1,1
1.881192,-1.296,-1.343,0.245,18.676,132.202,-149.963,1
1.88799,-1.16,-1.313,0.217,18.859,130.737,-135.253,1
1.896184,-1.028,-1.261,0.201,20.935,129.15,-121.52,1
1.902999,-0.927,-1.215,0.175,23.62,127.502,-110.229,1
1.910854,-0.818,-1.182,0.155,26.672,125.244,-97.656,1
1.917462,-0.72,-1.135,0.138,26.428,122.924,-84.899,1
1.925513,-0.615,-1.092,0.129,27.16,120.361,-73.181,1
1.93235,-0.52,-1.042,0.124,29.479,117.248,-62.194,1
1.94054,-0.442,-1.002,0.128,31.494,114.624,-51.025,1
1.947944,-0.386,-0.957,0.138,31.799,112.426,-40.832,1
1.95496,-0.342,-0.907,0.14,31.921,110.717,-31.372,1
1.963315,-0.29,-0.869,0.147,32.714,108.703,-22.583,1
1.969844,-0.237,-0.834,0.145,33.569,107.788,-15.747,1
1.977786,-0.168,-0.809,0.142,34.667,106.506,-7.934,1
1.984347,-0.094,-0.757,0.14,37.597,105.163,-0.427,1
1.992012,-0.035,-0.706,0.132,44.311,103.393,6.347,1
1.998858,0.018,-0.661,0.129,50.292,101.44,12.023,1
2.005753,0.063,-0.642,0.125,54.26,99.792,18.127,1
2.014015,0.12,-0.609,0.116,52.429,98.144,23.681,1
2.020331,0.197,-0.565,0.106,51.086,96.008,28.381,1
2.027993,0.265,-0.52,0.107,52.612,93.444,33.142,1
2.034824,0.324,-0.464,0.102,57.189,89.66,37.17,1
2.042959,0.372,-0.429,0.103,60.058,86.791,39.794,1
2.049439,0.416,-0.412,0.102,59.997,83.435,42.602,1
2.056721,0.47,-0.369,0.115,59.204,80.2,44.799,1
2.063662,0.525,-0.323,0.136,59.204,77.148,46.569,1
2.071519,0.576,-0.272,0.155,61.035,73.974,48.095,1
2.078127,0.603,-0.234,0.164,63.293,71.105,48.645,1
2.085875,0.651,-0.194,0.189,67.321,68.115,48.889,1
2.09288,0.705,-0.161,0.204,72.265,65.185,49.56,1
2.100573,0.773,-0.139,0.22,74.279,62.866,49.987,1
2.108552,0.814,-0.098,0.229,72.937,61.889,49.926,1
2.11507,0.867,-0.07,0.226,70.129,60.485,49.377,1
2.122112,0.938,-0.038,0.225,68.542,59.509,48.706,1
2.130256,1.015,-0.005,0.218,68.664,58.166,47.668,1
2.137056,1.092,0.031,0.209,74.401,56.579,46.447,1
2.144199,1.151,0.066,0.203,83.618,54.443,44.921,1
2.151851,1.189,0.076,0.204,89.782,53.222,43.64,1
2.158887,1.227,0.097,0.188,91.125,52.001,42.663,1
2.167173,1.259,0.113,0.174,87.829,51.574,41.259,1
2.173741,1.273,0.132,0.163,81.909,51.635,39.489,1
2.180697,1.291,0.156,0.147,76.66,51.879,38.269,1
2.189316,1.315,0.187,0.143,72.021,51.818,36.743,1
2.196073,1.32,0.23,0.13,72.875,51.33,35.034,1
2.202857,1.303,0.279,0.111,79.223,50.476,33.02,1
2.211101,1.295,0.324,0.083,86.425,49.316,31.066,1
2.218104,1.282,0.367,0.074,96.069,47.485,28.503,1
2.225264,1.27,0.416,0.059,105.957,45.043,25.146,1
2.232203,1.231,0.449,0.048,114.746,43.151,21.606,1
2.240663,1.204,0.462,0.032,120.544,41.931,17.211,1
2.247417,1.202,0.433,0.014,121.276,40.893,13.488,1
2.254394,1.207,0.391,-0.002,113.952,41.748,10.253,1
2.261409,1.197,0.376,-0.025,104.003,42.663,8.056,1
2.268477,1.175,0.378,-0.048,95.642,43.09,5.371,1
2.275722,1.171,0.394,-0.057,97.961,42.541,3.051,1
2.284218,1.16,0.416,-0.065,107.177,41.259,1.708,1
2.291069,1.099,0.412,-0.075,120.178,39.489,-0.793,1
2.29991,1.144,0.418,-0.05,133.239,37.658,-2.563,1
2.307537,1.184,0.38,-0.085,140.869,38.879,-4.394,1
2.314391,1.144,0.366,-0.08,139.038,38.208,-6.164,1
2.321409,1.109,0.362,-0.087,138.244,39.489,-7.812,1
2.329776,1.117,0.345,-0.086,140.441,39.306,-9.033,1
2.337138,1.104,0.319,-0.091,145.141,40.588,-9.948,1
2.343527,1.082,0.293,-0.125,146.545,41.015,-10.62,1
2.351734,1.095,0.28,-0.138,147.033,41.809,-11.169,1
2.359334,1.043,0.269,-0.168,145.629,42.419,-11.657,1
2.366288,1.033,0.256,-0.18,144.775,43.395,-12.207,1
2.374555,1.033,0.256,-0.21,146.362,43.823,-12.756,1
2.382574,1.038,0.258,-0.216,151.489,43.701,-12.878,1
2.390496,1.028,0.277,-0.227,159.24,43.457,-12.878,1
2.397124,1.018,0.279,-0.246,166.32,42.602,-13.305,1
2.405979,0.993,0.289,-0.242,171.081,42.236,-13.427,1
2.41302,0.985,0.3,-0.249,174.011,41.87,-13.854,1
2.419815,0.976,0.307,-0.251,175.17,41.625,-13.671,1
2.426512,0.949,0.317,-0.252,174.682,41.687,-13.366,1
2.433896,0.934,0.334,-0.262,172.851,41.625,-13.305,1
2.442263,0.904,0.345,-0.281,171.813,41.015,-13.427,1
2.449222,0.896,0.354,-0.289,170.471,40.771,-13.732,1
2.457027,0.895,0.364,-0.286,171.386,40.71,-13.793,1
2.464145,0.906,0.39,-0.289,178.344,40.344,-13.916,1
2.472564,0.901,0.402,-0.305,187.316,39.611,-14.099,1
2.479489,0.875,0.418,-0.306,194.702,39.184,-14.343,1
2.488377,0.879,0.434,-0.317,200.317,38.818,-14.465,1
2.49538,0.857,0.457,-0.324,201.354,38.94,-15.075,1
2.502294,0.875,0.48,-0.34,201.782,39.001,-15.38,1
2.509314,0.876,0.492,-0.355,197.631,38.94,-15.808,1
2.517746,0.87,0.499,-0.375,189.27,39.184,-16.723,1
2.524193,0.866,0.512,-0.374,178.955,39.794,-17.517,1
2.532691,0.901,0.525,-0.382,172.058,40.222,-18.676,1
2.539677,0.93,0.543,-0.39,170.837,40.222,-19.836,1
2.548135,0.927,0.551,-0.39,172.546,39.123,-21.24,1
2.554806,0.93,0.561,-0.396,189.575,39.245,-22.155,1
2.561036,0.915,0.568,-0.375,201.477,36.804,-23.193,1
2.570433,0.952,0.543,-0.428,208.679,36.865,-23.864,1
2.577195,0.945,0.542,-0.389,206.603,36.315,-24.78,1
2.58405,0.94,0.522,-0.416,201.721,36.682,-24.963,1
2.592017,0.934,0.527,-0.407,191.894,37.109,-25.39,1
2.598974,0.924,0.525,-0.398,180.786,38.085,-25.817,1
2.607375,0.917,0.522,-0.406,168.579,38.513,-26.306,1
2.615559,0.896,0.528,-0.373,159.729,38.94,-26.733,1
2.622292,0.861,0.515,-0.378,155.944,38.33,-27.16,1
2.6288,0.836,0.497,-0.372,155.212,37.658,-27.709,1
2.636767,0.763,0.495,-0.322,162.475,35.278,-27.343,1
2.643831,0.856,0.474,-0.299,178.649,34.301,-27.343,1
2.652164,0.789,0.465,-0.331,195.068,35.644,-27.099,1
2.658825,0.795,0.441,-0.353,197.448,34.24,-27.832,1
2.665903,0.765,0.404,-0.326,190.429,37.719,-27.77,1
2.673916,0.769,0.381,-0.347,174.499,39.001,-28.076,1
2.680853,0.763,0.369,-0.315,158.325,41.625,-28.381,1
2.688998,0.778,0.355,-0.308,144.897,43.945,-28.381,1
2.696906,0.747,0.339,-0.288,134.582,45.776,-28.747,1
2.70494,0.748,0.318,-0.272,129.028,47.119,-28.503,1
2.712888,0.752,0.304,-0.249,127.929,47.79,-27.77,1
2.719957,0.766,0.28,-0.25,128.479,49.194,-27.038,1
2.726584,0.776,0.257,-0.252,127.502,49.255,-26.184,1
2.733651,0.775,0.238,-0.248,126.159,50.048,-25.024,1
2.741792,0.787,0.224,-0.255,124.389,50.109,-23.498,1
2.748816,0.802,0.222,-0.25,124.328,50.292,-22.216,1
2.75669,0.818,0.221,-0.253,124.755,50.72,-20.324,1
2.763958,0.832,0.233,-0.256,125.671,51.147,-19.042,1
2.771527,0.857,0.255,-0.277,126.708,51.94,-17.639,1
2.780292,0.871,0.259,-0.287,127.99,52.062,-16.54,1
2.786625,0.869,0.27,-0.287,132.568,52.185,-15.014,1
2.793575,0.853,0.268,-0.279,141.723,52.307,-14.282,1
2.801964,0.827,0.267,-0.274,154.357,52.246,-12.573,1
2.808721,0.82,0.262,-0.274,166.381,52.307,-10.742,1
2.817173,0.808,0.25,-0.287,170.532,54.138,-8.911,1
2.825582,0.777,0.246,-0.312,160.705,56.213,-7.263,1
2.83209,0.766,0.243,-0.333,139.892,58.532,-6.286,1
2.838988,0.774,0.259,-0.344,116.516,61.279,-5.432,1
2.846165,0.785,0.28,-0.349,98.083,62.622,-4.638,1
2.85462,0.796,0.308,-0.345,89.599,64.331,-4.333,1
2.861015,0.79,0.341,-0.372,86.242,64.88,-4.089,1
2.869209,0.791,0.384,-0.389,89.843,65.185,-3.967,1
2.876098,0.807,0.423,-0.431,99.487,64.636,-3.662,1
2.884816,0.782,0.44,-0.464,109.13,64.758,-3.662,1
2.891653,0.797,0.414,-0.505,114.135,64.147,-3.479,1
2.899987,0.795,0.405,-0.507,113.403,64.819,-3.967,1
2.906947,0.746,0.404,-0.503,111.328,65.185,-3.723,1
2.915361,0.74,0.405,-0.51,110.351,66.101,-3.906,1
2.922593,0.758,0.422,-0.508,110.29,66.894,-4.333,1
2.929781,0.778,0.437,-0.539,106.628,68.115,-4.394,1
2.937658,0.815,0.469,-0.573,95.642,68.725,-5.065,1
2.945909,0.855,0.507,-0.623,86.425,68.908,-5.737,1
2.954672,0.877,0.564,-0.663,78.918,68.603,-6.774,1
2.961616,0.883,0.606,-0.706,72.082,67.687,-8.056,1
2.968889,0.865,0.644,-0.74,70.861,65.856,-9.399,1
2.976389,0.823,0.668,-0.753,72.631,64.392,-10.742,1
2.983689,0.773,0.687,-0.763,78.063,61.828,-12.329,1
2.991273,0.74,0.71,-0.778,89.416,59.204,-13.793,1
2.998808,0.721,0.712,-0.784,105.285,55.419,-15.441,1
3.005879,0.714,0.692,-0.788,120.361,52.246,-16.967,1
3.013954,0.728,0.66,-0.787,128.479,49.316,-18.005,1
3.020581,0.753,0.636,-0.791,128.479,47.607,-18.676,1
3.027749,0.765,0.63,-0.776,123.84,46.813,-19.348,1
3.035691,0.769,0.643,-0.768,113.281,46.874,-20.263,1
3.043525,0.801,0.665,-0.76,106.262,45.654,-21.911,1
3.050343,0.793,0.69,-0.742,100.402,45.654,-23.254,1
3.058802,0.793,0.657,-0.74,84.96,44.189,-24.536,1
3.067142,0.816,0.683,-0.75,70.8,46.142,-25.451,1
3.073949,0.797,0.723,-0.742,61.157,44.067,-26.794,1
3.082198,0.811,0.749,-0.755,62.133,43.212,-28.015,1
3.088498,0.809,0.755,-0.769,66.589,40.771,-29.296,1
3.097296,0.809,0.749,-0.769,74.279,38.879,-30.944,1
3.10561,0.83,0.735,-0.779,80.505,35.766,-32.592,1
3.112542,0.828,0.716,-0.764,83.496,34.545,-34.118,1
3.12116,0.795,0.694,-0.773,80.81,33.02,-35.583,1
3.128186,0.791,0.694,-0.739,77.575,32.287,-36.987,1
3.134932,0.827,0.707,-0.732,78.186,31.372,-37.841,1
3.14159,0.825,0.712,-0.714,80.81,29.785,-39.184,1
3.148695,0.781,0.711,-0.7,84.594,29.174,-39.916,1
3.156988,0.768,0.708,-0.702,83.923,28.198,-41.198,1
3.164604,0.758,0.705,-0.7,77.941,27.832,-42.663,1
3.171097,0.757,0.69,-0.691,70.8,27.404,-44.25,1
3.177984,0.784,0.683,-0.681,66.955,27.16,-45.104,1
3.185123,0.808,0.672,-0.673,66.467,26.367,-46.081,1
3.192902,0.799,0.669,-0.666,71.838,25.268,-47.058,1
3.199934,0.818,0.627,-0.645,73.242,23.437,-48.522,1
3.206858,0.82,0.602,-0.583,74.096,25.085,-49.865,1
3.213942,0.836,0.559,-0.58,72.326,25.39,-50.476,1
3.222171,0.851,0.549,-0.55,71.899,26.489,-50.17,1
3.228816,0.826,0.546,-0.547,70.678,27.16,-50.659,1
3.237543,0.789,0.534,-0.538,67.565,28.259,-50.292,1
3.244605,0.776,0.535,-0.546,66.04,28.747,-49.865,1
3.252954,0.755,0.539,-0.551,64.941,28.625,-49.804,1
3.259521,0.727,0.538,-0.54,63.72,29.235,-49.865,1
3.266444,0.725,0.534,-0.538,62.744,29.113,-50.231,1
3.274833,0.743,0.525,-0.52,64.147,29.602,-50.659,1
3.283178,0.759,0.51,-0.512,65.551,29.663,-51.33,1
3.28972,0.772,0.486,-0.493,67.321,30.273,-51.879,1
3.296801,0.784,0.473,-0.487,69.58,30.517,-52.673,1
3.304842,0.872,0.474,-0.46,76.416,30.822,-53.649,1
3.311464,0.864,0.458,-0.389,93.017,32.226,-55.114,1
3.318655,0.835,0.444,-0.444,103.515,31.616,-55.541,1
3.327519,0.761,0.427,-0.419,113.159,31.616,-55.664,1
3.334146,0.695,0.428,-0.451,114.868,32.775,-55.48,1
3.342602,0.648,0.43,-0.442,112.304,32.958,-54.87,1
3.349753,0.614,0.425,-0.454,107.177,33.813,-54.504,1
3.356777,0.595,0.424,-0.435,99.182,34.667,-54.016,1
3.365121,0.623,0.42,-0.44,92.468,35.583,-53.527,1
3.372293,0.668,0.419,-0.416,88.562,36.071,-52.795,1
3.378977,0.725,0.408,-0.407,88.562,36.621,-51.635,1
3.385632,0.77,0.396,-0.4,90.759,36.865,-50.109,1
3.393646,0.802,0.38,-0.403,93.017,38.208,-47.668,1
3.400572,0.85,0.36,-0.414,90.209,38.757,-44.799,1
3.408625,0.887,0.348,-0.422,83.496,39.794,-41.687,1
3.415279,0.892,0.356,-0.429,75.866,40.466,-38.94,1
3.422225,0.856,0.368,-0.426,71.044,41.198,-36.743,1
3.430676,0.808,0.379,-0.438,66.345,41.564,-34.362,1
3.437379,0.764,0.382,-0.439,62.133,42.297,-31.982,1
3.445256,0.709,0.398,-0.452,58.288,42.602,-29.602,1
3.453167,0.677,0.412,-0.455,53.71,42.907,-28.198,1
3.460026,0.654,0.419,-0.468,49.133,43.151,-27.221,1
3.468892,0.643,0.43,-0.469,45.715,43.518,-26.245,1
3.475628,0.636,0.434,-0.475,45.349,43.457,-26.0,1
3.484597,0.639,0.435,-0.463,48.583,43.701,-26.123,1
3.491175,0.632,0.43,-0.468,53.405,43.579,-25.817,1
3.500144,0.63,0.429,-0.471,60.607,43.334,-25.695,1
3.506741,0.628,0.418,-0.477,66.223,42.724,-24.78,1
3.515404,0.656,0.399,-0.482,68.298,43.029,-23.864,1
3.522119,0.708,0.386,-0.491,64.025,43.579,-22.888,1
3.530369,0.776,0.375,-0.494,56.274,44.555,-21.728,1
3.537125,0.828,0.384,-0.511,48.461,45.288,-20.996,1
3.543871,0.849,0.402,-0.516,40.893,45.898,-20.202,1
3.552583,0.847,0.422,-0.527,38.085,46.264,-20.202,1
3.559338,0.822,0.448,-0.539,41.076,46.081,-20.629,1
3.565916,0.777,0.478,-0.559,48.583,45.471,-21.423,1
3.572827,0.708,0.479,-0.575,57.739,44.25,-22.338,1
3.580974,0.707,0.493,-0.581,64.88,43.212,-23.193,1
3.587575,0.692,0.482,-0.596,71.96,41.687,-23.681,1
3.595421,0.726,0.492,-0.599,79.162,40.71,-24.047,1
3.602589,0.779,0.499,-0.612,86.242,39.367,-23.986,1
3.609376,0.839,0.498,-0.617,94.299,37.963,-23.62,1
3.616299,0.894,0.489,-0.634,98.327,36.804,-22.705,1
3.624645,0.929,0.477,-0.64,95.764,35.644,-21.24,1
3.631588,0.978,0.478,-0.671,85.021,35.827,-19.897,1
3.638514,0.958,0.478,-0.692,71.228,35.644,-18.737,1
3.645669,0.964,0.5,-0.712,53.771,35.949,-17.333,1
3.653433,0.945,0.514,-0.731,36.926,35.583,-16.54,1
3.660542,0.934,0.548,-0.737,25.756,35.095,-15.38,1
3.668832,0.9,0.571,-0.741,19.226,32.958,-15.197,1
3.675736,0.86,0.603,-0.739,18.31,31.616,-15.686,1
3.684016,0.822,0.631,-0.742,18.066,28.869,-17.395,1
3.69106,0.753,0.659,-0.731,18.859,27.77,-20.324,1
3.697681,0.657,0.69,-0.732,22.583,26.0,-23.742,1
3.705975,0.597,0.703,-0.727,29.663,24.597,-26.794,1
3.712377,0.545,0.705,-0.732,35.949,22.766,-29.357,1
3.719601,0.512,0.688,-0.714,39.733,22.155,-30.944,1
3.727805,0.508,0.687,-0.712,40.832,20.874,-32.653,1
3.73471,0.532,0.669,-0.694,39.916,20.385,-34.24,1
3.743493,0.579,0.641,-0.695,35.278,20.507,-35.705,1
3.75008,0.629,0.639,-0.685,29.113,19.348,-36.743,1
3.756801,0.68,0.65,-0.676,26.489,18.493,-38.024,1
3.76555,0.693,0.676,-0.662,27.404,16.479,-39.489,1
3.772618,0.692,0.683,-0.641,31.127,15.38,-40.771,1
3.779645,0.7,0.689,-0.623,37.292,13.0,-42.297,1
3.786516,0.716,0.678,-0.604,44.494,11.108,-43.945,1
3.793455,0.73,0.645,-0.59,50.781,9.094,-45.715,1
3.801898,0.732,0.607,-0.562,53.161,7.873,-46.691,1
3.809055,0.711,0.569,-0.533,53.527,6.591,-47.424,1
3.815998,0.751,0.528,-0.505,54.382,6.225,-48.583,1
3.824554,0.745,0.488,-0.482,54.321,5.737,-48.95,1
3.832677,0.752,0.445,-0.444,54.138,6.347,-49.316,1
3.839072,0.776,0.408,-0.413,53.71,7.141,-48.828,1
3.847039,0.775,0.375,-0.379,52.246,8.666,-48.767,1
3.855486,0.764,0.354,-0.35,48.95,10.559,-48.4,1
3.861887,0.753,0.328,-0.322,44.372,12.695,-47.79,1
3.868527,0.751,0.304,-0.296,40.039,15.502,-47.302,1
3.876905,0.744,0.285,-0.26,37.597,18.127,-46.997,1
3.883195,0.749,0.265,-0.221,36.499,21.24,-46.63,1
3.891516,0.744,0.246,-0.185,37.536,24.414,-46.142,1
3.89864,0.758,0.217,-0.156,39.062,26.794,-45.776,1
3.905342,0.774,0.198,-0.137,41.015,29.907,-44.677,1
3.912082,0.837,0.165,-0.099,43.457,33.325,-42.846,1
3.920241,0.93,0.145,-0.075,45.166,36.865,-40.344,1
3.927458,0.991,0.138,-0.05,48.278,39.367,-37.658,1
3.934077,0.97,0.136,-0.039,48.217,42.297,-35.095,1
3.940965,0.964,0.135,-0.032,43.884,45.593,-32.226,1
3.948111,0.984,0.146,-0.036,36.987,48.95,-30.334,1
3.956412,1.006,0.142,-0.052,24.719,52.062,-28.442,1
3.962915,0.953,0.166,-0.064,11.718,55.236,-27.404,1
3.96982,0.917,0.185,-0.077,1.159,58.227,-26.184,1
3.978388,0.9,0.209,-0.087,-5.065,60.607,-24.78,1
3.986378,0.921,0.224,-0.128,-8.117,63.232,-23.315,1
3.992993,0.925,0.245,-0.156,-7.568,66.345,-20.751,1
4.00129,0.913,0.274,-0.221,-6.591,68.359,-18.676,1
4.008719,0.879,0.326,-0.281,-14.831,69.824,-17.761,1
4.016999,0.849,0.359,-0.337,-27.282,71.594,-17.944,1
4.023177,0.767,0.394,-0.371,-40.466,74.523,-18.31,1
4.030963,0.637,0.447,-0.446,-55.419,77.514,-18.493,1
4.039399,0.458,0.5,-0.567,-71.166,77.331,-20.263,1
4.047644,0.703,0.519,-0.558,-82.58,77.88,-22.644,1
4.054329,0.709,0.559,-0.667,-76.232,78.369,-25.024,1
4.062589,0.554,0.562,-0.733,-59.936,74.951,-27.282,1
4.069298,0.527,0.575,-0.804,-40.893,75.073,-27.832,1
4.077204,0.584,0.61,-0.863,-27.587,71.594,-29.785,1
4.085649,0.59,0.615,-0.886,-13.549,71.166,-30.944,1
4.094253,0.563,0.659,-0.916,-2.868,69.03,-32.714,1
4.100853,0.535,0.671,-0.896,4.394,68.786,-34.973,1
4.109226,0.505,0.656,-0.895,-0.915,68.481,-36.926,1
4.116284,0.52,0.664,-0.865,-7.873,67.993,-39.306,1
4.12343,0.576,0.661,-0.838,-8.605,65.979,-41.625,1
4.132665,0.588,0.659,-0.786,-2.807,63.72,-44.067,1
4.140862,0.654,0.621,-0.767,1.22,61.401,-46.813,1
4.147912,0.612,0.591,-0.739,-7.751,59.997,-48.522,1
4.154778,0.603,0.579,-0.743,-22.766,58.41,-50.964,1
4.163208,0.593,0.576,-0.729,-31.86,57.25,-52.978,1
4.169662,0.605,0.584,-0.747,-31.982,54.443,-55.175,1
4.178164,0.591,0.585,-0.721,-24.78,51.818,-56.945,1
4.184772,0.566,0.574,-0.727,-14.343,49.804,-58.959,1
4.193433,0.512,0.545,-0.742,-7.629,47.119,-61.218,1
4.199536,0.47,0.489,-0.76,-3.967,45.532,-63.354,1
4.206549,0.475,0.426,-0.778,0.732,43.212,-64.758,1
4.215107,0.498,0.379,-0.802,13.488,40.832,-66.04,1
4.222811,0.503,0.295,-0.864,25.451,37.353,-66.467,1
4.229571,0.54,0.248,-0.89,46.142,32.348,-66.345,1
4.237246,0.578,0.186,-0.934,60.668,27.709,-65.185,1
4.245018,0.6,0.14,-0.957,70.556,23.071,-63.476,1
4.252053,0.587,0.112,-0.979,78.063,18.432,-61.157,1
4.260499,0.575,0.1,-0.984,87.036,14.038,-58.776,1
4.267507,0.537,0.09,-1.007,97.778,8.666,-56.335,1
4.274389,0.534,0.069,-1.006,110.168,3.417,-54.077,1
4.281788,0.562,0.053,-1.012,127.197,-1.403,-51.391,1
4.289003,0.555,0.015,-1.025,137.451,-6.408,-49.011,1
4.297805,0.599,-0.03,-1.055,135.314,-10.559,-45.837,1
4.306298,0.616,-0.033,-1.069,132.141,-15.747,-42.907,1
4.314173,0.623,-0.029,-1.069,134.826,-20.446,-39.611,1
4.322272,0.592,-0.042,-1.072,129.15,-22.949,-37.292,1
4.328786,0.535,-0.059,-1.092,105.468,-21.301,-34.912,1
4.337043,0.499,-0.029,-1.103,77.697,-20.263,-32.836,1
4.344078,0.503,0.009,-1.117,58.959,-17.089,-31.005,1
4.351243,0.493,0.021,-1.135,35.827,-13.244,-28.686,1
4.359207,0.525,0.066,-1.127,8.666,-9.887,-26.184,1
4.367871,0.585,0.158,-1.093,-3.906,-8.178,-24.047,1
4.374425,0.651,0.223,-1.043,1.037,-8.972,-21.789,1
4.382344,0.715,0.252,-1.012,12.695,-10.314,-20.141,1
4.389488,0.792,0.266,-0.97,19.348,-11.779,-18.859,1
4.396381,0.837,0.292,-0.927,20.629,-13.183,-17.211,1
4.403412,0.844,0.328,-0.872,21.057,-13.427,-16.479,1
4.411558,0.791,0.371,-0.825,22.033,-13.61,-16.113,1
4.418657,0.762,0.393,-0.79,25.085,-14.465,-15.991,1
4.425549,0.75,0.417,-0.74,26.611,-14.099,-16.235,1
4.434049,0.74,0.446,-0.705,21.179,-13.0,-16.723,1
4.440587,0.728,0.479,-0.67,9.704,-11.657,-17.211,1
4.447494,0.703,0.531,-0.627,-1.098,-9.582,-18.31,1
4.455816,0.637,0.575,-0.579,-15.014,-7.934,-19.958,1
4.464132,0.606,0.611,-0.541,-26.916,-5.249,-21.728,1
4.471588,0.596,0.661,-0.49,-32.592,-3.295,-24.658,1
4.478255,0.541,0.7,-0.43,-31.738,-0.183,-27.832,1
4.487915,0.479,0.723,-0.39,-31.249,2.746,-31.982,1
4.494531,0.475,0.736,-0.335,-28.442,5.432,-36.01,1
4.502753,0.457,0.732,-0.286,-25.817,8.666,-40.344,1
4.509738,0.436,0.713,-0.24,-25.939,12.084,-44.738,1
4.51826,0.425,0.698,-0.178,-27.893,16.479,-49.194,1
4.525158,0.409,0.686,-0.133,-29.541,20.751,-53.466,1
4.531669,0.361,0.661,-0.09,-31.921,25.085,-57.739,1
4.541145,0.321,0.62,-0.049,-33.508,29.907,-61.279,1
4.548921,0.329,0.584,-0.018,-30.273,34.24,-65.185,1
4.555494,0.39,0.481,0.037,-19.653,39.367,-68.725,1
4.563565,0.334,0.402,0.079,-16.113,44.738,-70.251,1
4.570197,0.331,0.297,0.116,-11.657,50.354,-71.411,1
4.577974,0.356,0.198,0.145,-6.958,57.006,-71.594,1
4.587383,0.353,0.048,0.151,-5.92,62.805,-70.861,1
4.593966,0.367,-0.054,0.175,-3.356,70.8,-68.359,1
4.602555,0.296,-0.169,0.181,-1.586,77.331,-64.819,1
4.609491,0.267,-0.286,0.199,-0.61,84.167,-60.119,1
4.617736,0.293,-0.406,0.2,0.183,91.796,-54.26,1
4.625789,0.271,-0.482,0.197,6.53,98.632,-47.485,1
4.632454,0.177,-0.534,0.19,18.493,105.468,-39.001,1
4.640174,0.106,-0.6,0.142,30.761,111.633,-29.418,1
4.648509,0.009,-0.642,0.107,36.499,118.774,-19.836,1
4.656557,-0.11,-0.67,0.064,30.09,125.549,-10.314,1
4.662924,-0.299,-0.657,0.02,15.991,133.85,-0.793,1
4.670929,-0.456,-0.687,-0.018,-2.441,141.723,8.789,1
4.679402,-0.511,-0.738,-0.052,-25.817,151.855,18.554,1
4.68813,-0.577,-0.737,-0.111,-46.752,158.874,27.648,1
4.695175,-0.7,-0.724,-0.17,-56.274,165.283,36.682,1
4.703538,-0.817,-0.726,-0.25,-56.945,170.471,47.302,1
4.710481,-0.883,-0.735,-0.318,-49.072,174.499,56.335,1
4.718973,-0.988,-0.769,-0.401,-41.809,177.612,66.406,1
4.726485,-1.116,-0.797,-0.487,-44.799,182.434,77.27,1
4.733144,-1.208,-0.8,-0.584,-52.49,186.767,87.768,1
4.740047,-1.295,-0.78,-0.658,-50.598,190.124,98.449,1
4.74834,-1.375,-0.758,-0.746,-39.367,192.443,109.313,1
4.757091,-1.502,-0.738,-0.837,-25.39,193.42,121.154,1
4.763212,-1.615,-0.703,-0.94,-5.615,192.687,132.873,1
4.770163,-1.742,-0.696,-1.045,11.413,190.734,145.874,1
4.778747,-1.926,-0.723,-1.134,14.038,191.345,159.545,1
4.785851,-2.006,-0.814,-1.281,-11.413,193.176,174.011,1
4.793985,-2.058,-0.873,-1.414,-54.87,196.777,188.781,1
4.801854,-2.151,-0.874,-1.537,-84.35,196.594,202.697,1
4.811621,-2.199,-0.912,-1.64,-89.66,196.899,220.397,1
4.818169,-2.22,-0.958,-1.807,-91.247,192.626,236.328,1
4.826487,-2.382,-0.995,-1.971,-88.073,188.11,252.807,1
4.834696,-2.547,-1.044,-2.188,-75.317,180.114,270.324,1
4.841681,-2.734,-1.118,-2.351,-50.537,169.189,292.785,1
4.848852,-2.938,-1.168,-2.51,-31.616,157.592,314.025,1
4.857783,-3.241,-1.228,-2.654,-16.235,144.226,336.669,1
4.864785,-3.513,-1.316,-2.766,-3.54,131.958,361.083,1
4.873013,-3.808,-1.417,-2.964,-15.686,119.14,388.244,1
4.880039,-4.217,-1.46,-3.161,-34.606,106.506,417.419,1
4.888041,-4.704,-1.466,-3.366,-63.293,90.515,451.782,1
4.89633,-5.216,-1.438,-3.567,-70.312,74.462,481.872,1
4.90411,-5.752,-1.399,-3.819,-43.09,52.795,512.39,1
4.912057,-6.3,-1.444,-4.091,6.103,21.85,543.823,1
4.919467,-6.939,-1.486,-4.352,49.56,-14.404,576.843,1
4.927996,-7.744,-1.495,-4.563,77.575,-57.373,610.229,1
4.935131,-8.578,-1.441,-4.772,113.769,-112.67,650.329,1
4.943051,-9.485,-1.367,-4.957,141.479,-170.349,682.128,1
4.951235,-10.448,-1.191,-4.987,174.56,-234.252,711.73,1
4.959528,-11.627,-0.992,-4.958,227.905,-320.19,740.783,1
4.967773,-12.725,-0.748,-4.771,286.132,-403.991,758.85,1
4.974853,-13.955,-0.482,-4.473,339.05,-495.666,768.981,1
4.981926,-15.268,-0.203,-3.985,361.816,-587.402,770.019,1
4.989824,-15.999,0.166,-3.457,402.343,-676.757,763.854,1
4.996724,-15.999,0.439,-2.818,415.222,-766.784,746.643,1
5.004988,-15.999,0.737,-2.156,403.503,-843.383,723.022,1
5.011563,-15.999,1.013,-1.507,385.375,-903.991,699.462,1
5.018831,-15.999,1.246,-0.972,373.413,-965.698,669.189,1
5.026573,-15.999,1.544,-0.368,377.929,-1025.085,634.521,1
5.034992,-15.999,1.776,0.1,410.644,-1083.74,592.224,1
5.04136,-15.999,1.979,0.465,473.327,-1148.681,537.902,1
5.049707,-15.999,2.166,0.775,559.265,-1216.552,467.651,1
5.058076,-15.999,2.354,1.051,652.221,-1281.738,378.295,1
5.067345,-15.999,2.421,1.464,751.953,-1340.637,270.141,1
5.074026,-15.999,2.508,1.921,861.328,-1392.272,101.501,1
5.082949,-15.999,2.507,2.256,904.602,-1407.47,-38.757,1
5.089441,-15.999,2.554,2.622,943.847,-1399.597,-186.462,1
5.097397,-15.999,2.5,2.998,952.392,-1361.999,-337.951,1
5.10577,-15.999,2.321,3.295,950.805,-1292.175,-484.985,1
5.113907,-15.999,2.005,3.5,931.03,-1189.819,-637.878,1
5.122664,-15.999,1.508,3.614,882.019,-1065.307,-746.215,1
5.130883,-15.999,0.853,3.552,751.098,-920.41,-836.852,1
5.138753,-15.999,0.535,3.281,672.607,-795.471,-884.033,1
5.145205,-15.999,0.449,2.919,696.35,-701.049,-918.151,1
5.153179,-15.999,0.171,2.635,763.671,-591.613,-944.03,1
5.161696,-15.999,-0.261,1.982,764.16,-480.102,-961.852,1
5.169909,-15.999,-0.532,1.717,696.899,-349.304,-966.186,1
5.178273,-15.999,-0.855,1.395,613.952,-251.831,-957.336,1
5.187181,-15.999,-1.264,1.259,501.22,-151.245,-934.143,1
5.193948,-15.199,-1.585,1.042,398.498,-82.946,-906.799,1
5.2021,-14.31,-1.916,0.977,281.188,-29.174,-875.061,1
5.210072,-13.387,-2.191,0.92,171.508,5.126,-841.613,1
5.216657,-12.497,-2.47,1.027,96.13,24.597,-802.123,1
5.223703,-11.803,-2.655,1.128,123.962,25.756,-763.915,1
5.23152,-10.947,-2.89,1.19,205.993,33.569,-730.712,1
5.238635,-9.352,-3.474,0.996,272.827,44.494,-686.828,1
5.246997,-7.98,-3.936,0.916,271.911,64.453,-639.221,1
5.25493,-6.805,-4.1,0.92,269.104,78.369,-590.393,1
5.261471,-6.055,-4.057,1.018,333.435,91.125,-540.405,1
5.269843,-5.549,-4.047,0.959,414.184,106.506,-487.976,1
5.278011,-5.072,-3.98,0.892,460.998,120.971,-434.631,1
5.284964,-4.497,-3.852,0.834,487.304,140.197,-378.662,1
5.29186,-3.981,-3.62,0.77,497.497,154.724,-321.777,1
5.300329,-3.559,-3.316,0.734,496.643,170.898,-265.38,1
5.30692,-3.159,-3.029,0.657,478.027,181.091,-211.242,1
5.315221,-2.923,-2.731,0.644,446.166,190.429,-159.545,1
5.322989,-2.784,-2.41,0.612,403.991,195.007,-113.525,1
5.331301,-2.537,-2.044,0.637,364.562,197.753,-66.467,1
5.337921,-2.333,-1.738,0.64,347.656,194.58,-31.311,1
5.346279,-2.222,-1.464,0.672,342.285,190.063,-0.305,1
5.352846,-2.142,-1.229,0.685,334.96,184.814,27.465,1
5.360859,-2.062,-1.014,0.687,329.833,179.626,48.095,1
5.36873,-1.998,-0.849,0.676,319.58,172.119,73.059,1
5.377131,-1.953,-0.702,0.674,311.096,165.527,91.918,1
5.383759,-1.926,-0.578,0.658,302.917,157.958,108.52,1
5.392526,-1.906,-0.487,0.646,289.794,151.0,123.291,1
5.399629,-1.912,-0.421,0.626,266.601,144.714,136.23,1
5.406416,-1.892,-0.353,0.631,240.234,139.648,145.751,1
5.414479,-1.845,-0.279,0.661,204.833,133.178,157.043,1
5.421101,-1.8,-0.206,0.694,181.457,128.234,165.222,1
5.429562,-1.744,-0.142,0.719,167.236,125.183,170.166,1
5.436243,-1.692,-0.109,0.724,154.663,121.276,175.353,1
5.444759,-1.593,-0.082,0.725,148.193,117.309,179.626,1
5.451433,-1.463,-0.073,0.716,144.409,112.426,183.593,1
5.458191,-1.321,-0.077,0.709,141.418,108.52,187.377,1
5.466973,-1.168,-0.096,0.689,133.85,104.492,190.856,1
5.475097,-1.036,-0.097,0.69,124.511,101.745,194.091,1
5.482204,-0.965,-0.077,0.687,115.844,98.51,196.716,1
5.488939,-0.932,-0.058,0.685,109.374,95.947,198.425,1
5.497078,-0.899,-0.043,0.672,101.501,93.261,199.645,1
5.504917,-0.893,-0.018,0.665,95.886,91.491,200.744,1
5.51192,-0.881,0.01,0.675,93.322,88.195,200.927,1
5.519041,-0.893,0.036,0.659,94.421,87.951,200.317,1
5.527716,-0.875,0.03,0.626,88.134,83.74,198.608,1
5.534782,-0.899,0.029,0.635,73.852,83.862,196.655,1
5.543091,-0.822,0.029,0.576,60.852,80.993,194.091,1
5.550189,-0.665,0.026,0.578,62.683,77.819,191.101,1
5.556565,-0.5,-0.014,0.542,69.335,72.509,188.11,1
5.566185,-0.335,-0.057,0.553,75.683,70.19,185.913,1
5.572854,-0.143,-0.103,0.538,77.575,66.589,184.082,1
5.581008,-0.014,-0.119,0.561,81.054,64.208,182.922,1
5.588985,0.042,-0.112,0.566,83.74,61.889,181.579,1
5.595527,0.059,-0.086,0.584,89.294,61.34,180.725,1
5.604306,0.066,-0.062,0.581,96.618,59.753,180.236,1
5.611085,0.049,-0.026,0.603,107.543,57.678,178.894,1
5.618156,0.047,-0.01,0.581,115.051,54.138,177.062,1
5.625097,0.027,-0.011,0.599,114.685,52.673,175.048,1
5.632889,0.036,-0.002,0.599,110.229,51.635,172.729,1
5.64023,0.058,0.002,0.612,103.881,49.865,169.128,1
5.64796,0.106,-0.008,0.607,92.895,50.354,165.405,1
5.65599,0.216,-0.027,0.617,75.012,50.231,161.621,1
5.662405,0.32,-0.027,0.632,59.082,52.001,158.081,1
5.670193,0.41,0.006,0.649,51.696,52.368,154.663,1
5.676798,0.477,0.039,0.657,55.603,52.612,151.611,1
5.685052,0.528,0.062,0.651,63.842,51.879,148.315,1
5.691693,0.547,0.086,0.659,70.129,51.269,145.385,1
5.698767,0.583,0.103,0.66,77.148,50.964,142.761,1
5.705759,0.609,0.133,0.67,83.251,50.659,139.587,1
5.713908,0.666,0.201,0.677,97.351,51.147,136.84,1
5.720692,0.689,0.214,0.687,118.225,48.095,133.483,1
5.729077,0.703,0.215,0.7,135.07,46.997,130.676,1
5.736278,0.741,0.212,0.705,141.662,44.738,127.624,1
5.7424,0.749,0.211,0.731,138.854,44.921,125.366,1
5.749265,0.78,0.209,0.715,128.906,45.532,122.619,1
5.75635,0.786,0.205,0.734,115.112,48.095,118.713,1
5.763291,0.813,0.213,0.71,102.661,50.964,116.21,1
5.770225,0.856,0.216,0.697,88.989,52.49,113.037,1
5.777231,0.89,0.231,0.698,81.97,55.358,110.168,1
5.784343,0.886,0.262,0.676,80.688,55.969,107.543,1
5.792143,0.877,0.288,0.676,82.153,57.678,104.248,1
5.798837,0.889,0.321,0.657,91.979,58.166,101.501,1
5.805791,0.894,0.329,0.637,105.895,57.861,98.083,1
5.814566,0.924,0.321,0.622,117.126,57.617,94.97,1
5.820943,0.952,0.317,0.6,122.924,58.044,92.834,1
5.82789,0.983,0.325,0.592,128.417,57.312,90.759,1
5.836336,0.996,0.336,0.583,133.239,57.495,88.928,1
5.843043,0.975,0.348,0.568,138.305,57.312,86.547,1
5.851366,0.941,0.352,0.552,143.127,57.8,84.655,1
5.858363,0.909,0.352,0.536,143.493,57.373,82.458,1
5.865407,0.888,0.354,0.526,140.563,59.02,80.566,1
5.873451,0.862,0.369,0.507,136.352,59.448,79.04,1
5.880229,0.825,0.377,0.486,130.554,61.096,77.087,1
5.887091,0.816,0.375,0.451,125.122,62.255,74.707,1
5.894424,0.789,0.408,0.434,126.281,64.147,72.937,1
5.902348,0.789,0.412,0.385,130.615,63.232,71.289,1
5.909132,0.771,0.403,0.384,137.329,63.72,69.091,1
5.916173,0.768,0.395,0.331,144.409,62.988,67.138,1
5.923039,0.756,0.374,0.313,150.146,62.438,65.551,1
5.930123,0.772,0.345,0.282,153.076,61.706,64.941,1
5.938396,0.788,0.319,0.251,155.029,60.424,64.819,1
5.945103,0.803,0.296,0.229,156.311,59.875,65.185,1
5.951997,0.822,0.284,0.219,155.151,58.41,65.795,1
5.959634,0.836,0.276,0.21,152.526,57.678,66.589,1
5.966375,0.853,0.273,0.196,147.216,56.274,67.26,1
5.97457,0.864,0.284,0.202,141.174,55.725,67.81,1
5.98104,0.875,0.298,0.191,133.911,54.687,68.054,1
5.988457,0.871,0.312,0.196,127.441,53.71,68.237,1
5.99689,0.851,0.327,0.191,124.938,52.795,68.298,1
6.003778,0.875,0.324,0.193,125.915,51.513,68.42,1
6.010679,0.847,0.365,0.189,135.192,51.208,68.481,1
6.017763,0.829,0.381,0.173,144.836,49.682,67.871,1
6.024433,0.818,0.39,0.17,156.86,48.706,67.504,1
6.03144,0.801,0.395,0.149,166.809,48.034,66.955,1
6.039627,0.774,0.395,0.145,172.424,47.729,67.016,1
6.046585,0.745,0.395,0.132,175.231,47.668,66.528,1
6.053674,0.728,0.389,0.134,172.607,48.217,66.162,1
6.061737,0.7,0.392,0.122,166.259,49.499,65.734,1
6.068684,0.684,0.384,0.125,156.738,50.72,65.368,1
6.077114,0.672,0.391,0.128,147.888,52.368,64.758,1
6.085287,0.676,0.387,0.13,136.657,53.71,63.964,1
6.091403,0.671,0.396,0.132,125.793,55.847,63.171,1
6.100255,0.694,0.409,0.134,118.347,57.006,61.95,1
6.107229,0.686,0.416,0.125,109.985,57.983,61.279,1
6.115241,0.679,0.424,0.123,94.421,59.143,60.18,1
6.122268,0.75,0.435,0.142,90.27,60.424,58.654,1
6.128851,0.712,0.473,0.131,82.336,61.645,57.312,1
6.137033,0.713,0.49,0.127,75.073,63.659,55.786,1
6.144023,0.782,0.514,0.123,68.481,63.903,54.077,1
6.151818,0.785,0.538,0.128,66.65,65.856,52.612,1
6.158663,0.777,0.568,0.103,67.016,66.528,51.269,1
6.16711,0.801,0.609,0.094,72.937,67.016,49.743,1
6.174044,0.877,0.642,0.079,82.214,66.528,48.767,1
6.180998,0.894,0.677,0.072,90.087,65.979,47.607,1
6.189304,0.879,0.689,0.066,95.764,65.856,45.959,1
6.195931,0.872,0.711,0.043,96.984,66.223,44.311,1
6.203019,0.886,0.73,0.024,92.651,66.223,42.541,1
6.210776,0.889,0.747,0.016,85.388,66.955,40.161,1
6.219438,0.938,0.772,0.007,78.857,67.199,37.719,1
6.226064,0.953,0.826,0.002,79.65,67.443,34.362,1
6.23308,0.991,0.821,-0.03,92.041,65.795,32.592,1
6.241541,0.951,0.802,-0.022,96.74,65.002,30.029,1
6.248369,0.928,0.827,-0.035,106.201,63.049,28.137,1
6.254937,0.906,0.845,-0.032,124.755,60.974,26.123,1
6.263184,0.897,0.834,-0.039,141.662,59.753,24.108,1
6.269582,0.867,0.812,-0.07,147.766,58.288,21.972,1
6.278008,0.867,0.799,-0.067,143.371,58.227,20.446,1
6.286249,0.861,0.791,-0.076,132.812,58.593,18.554,1
6.293252,0.832,0.787,-0.067,122.802,59.265,16.174,1
6.300806,0.824,0.778,-0.06,117.431,59.997,13.793,1
6.307454,0.795,0.757,-0.055,115.478,60.302,11.718,1
6.314142,0.792,0.73,-0.053,112.731,61.645,9.338,1
6.32287,0.815,0.673,-0.053,96.923,63.11,7.019,1
6.330109,0.795,0.679,-0.043,90.576,64.636,3.784,1
6.337153,0.857,0.633,-0.002,82.397,64.392,2.258,1
6.343874,0.889,0.656,0.038,65.734,69.763,0.488,1
6.350918,1.059,0.666,-0.054,38.696,71.533,-2.441,1
6.358515,1.087,0.769,-0.094,-0.427,80.261,-5.187,1
6.366392,0.949,0.666,-0.266,-53.283,83.679,-10.986,1
6.373237,0.655,0.588,-0.229,-92.529,92.163,-14.709,1
6.381856,0.604,0.648,-0.349,-104.675,95.458,-18.066,1
6.390273,0.592,0.767,-0.358,-89.538,96.557,-23.376,1
6.397761,0.604,0.738,-0.416,-57.861,94.421,-29.357,1
6.405684,0.608,0.628,-0.458,-18.066,93.261,-34.973,1
6.414274,0.703,0.542,-0.488,11.535,90.026,-38.452,1
6.420962,0.804,0.484,-0.447,42.175,87.402,-41.137,1
6.427425,0.856,0.482,-0.419,79.772,83.618,-42.663,1
6.434502,0.967,0.432,-0.41,115.356,79.406,-42.602,1
6.442609,0.959,0.402,-0.426,150.451,75.988,-41.015,1
6.449714,0.842,0.405,-0.441,171.203,72.265,-38.513,1
6.456639,0.76,0.367,-0.42,187.072,71.533,-35.522,1
6.463775,0.788,0.352,-0.475,189.147,71.228,-33.386,1
6.471515,0.771,0.351,-0.458,181.152,71.472,-30.7,1
6.478518,0.483,0.335,-0.476,159.057,75.134,-27.465,1
6.485568,0.526,0.315,-0.476,128.234,77.331,-24.597,1
6.493548,0.55,0.317,-0.453,102.416,80.688,-22.888,1
6.50097,0.601,0.342,-0.468,78.674,81.542,-21.057,1
6.509598,0.685,0.373,-0.473,69.58,81.298,-19.775,1
6.515729,0.772,0.395,-0.505,75.378,79.04,-17.822,1
6.524262,0.878,0.412,-0.506,91.308,76.293,-14.709,1
6.530971,0.927,0.415,-0.547,107.788,72.875,-10.742,1
6.538862,0.882,0.421,-0.562,117.248,70.556,-7.629,1
6.545419,0.849,0.421,-0.574,118.896,69.763,-4.638,1
6.552344,0.884,0.428,-0.584,112.06,68.847,-1.953,1
6.559385,0.889,0.424,-0.584,101.501,69.335,-0.183,1
6.567711,0.929,0.442,-0.62,82.885,70.251,0.793,1
6.574266,0.964,0.47,-0.631,64.575,71.044,0.549,1
6.582244,1.105,0.511,-0.666,55.603,70.922,-1.281,1
6.58919,1.263,0.562,-0.691,53.955,67.993,-6.042,1
6.596954,1.218,0.615,-0.699,66.223,65.002,-13.0,1
6.605316,1.062,0.652,-0.693,91.43,62.011,-21.179,1
6.613135,0.901,0.616,-0.719,104.064,60.485,-26.0,1
6.620178,0.804,0.561,-0.762,96.069,58.959,-28.442,1
6.628317,0.75,0.539,-0.774,79.589,58.227,-28.381,1
6.635036,0.711,0.542,-0.774,58.166,56.091,-27.404,1
6.643099,0.665,0.563,-0.752,51.025,53.588,-25.817,1
6.650085,0.655,0.587,-0.729,53.833,51.208,-24.353,1
6.657239,0.664,0.573,-0.689,62.133,47.851,-22.277,1
6.665166,0.685,0.608,-0.663,73.425,45.227,-20.996,1
6.673217,0.751,0.604,-0.614,83.74,43.334,-19.897,1
6.680835,0.729,0.608,-0.601,92.163,41.076,-19.714,1
6.68962,0.785,0.611,-0.576,92.895,40.527,-20.568,1
6.696224,0.834,0.604,-0.577,85.876,39.794,-22.399,1
6.705107,0.844,0.61,-0.556,75.622,40.466,-25.268,1
6.711543,0.826,0.615,-0.557,65.917,40.71,-28.015,1
6.719303,0.824,0.616,-0.554,57.067,40.832,-30.883,1
6.727261,0.808,0.629,-0.561,51.696,40.344,-33.081,1
6.734396,0.767,0.649,-0.553,52.734,39.306,-35.522,1
6.741112,0.746,0.656,-0.551,58.349,38.208,-37.902,1
6.749705,0.792,0.644,-0.542,64.758,37.109,-39.855,1
6.757367,0.83,0.627,-0.544,69.702,35.4,-41.564,1
6.764354,0.854,0.604,-0.541,71.655,33.996,-42.297,1
6.771398,0.859,0.6,-0.543,71.228,32.714,-42.785,1
6.779456,0.796,0.615,-0.544,70.739,32.165,-42.907,1
6.788023,0.753,0.606,-0.527,69.519,32.226,-43.823,1
6.796243,0.757,0.596,-0.557,65.002,32.531,-45.104,1
6.80336,0.74,0.593,-0.543,57.8,33.264,-46.752,1
6.811505,0.715,0.601,-0.563,50.537,33.63,-48.461,1
6.81862,0.695,0.6,-0.579,43.64,33.02,-50.903,1
6.826951,0.665,0.598,-0.623,37.597,32.409,-53.771,1
6.834,0.664,0.59,-0.642,34.179,30.395,-56.701,1
6.841236,0.679,0.57,-0.656,36.193,28.564,-58.898,1
6.849171,0.718,0.535,-0.645,41.137,26.123,-59.875,1
6.857929,0.788,0.489,-0.634,45.532,24.902,-59.936,1
6.864532,0.908,0.453,-0.615,47.058,23.681,-59.143,1
6.872298,0.983,0.426,-0.597,46.813,22.705,-56.945,1
6.879316,0.973,0.425,-0.589,44.25,20.996,-55.114,1
6.887596,0.901,0.433,-0.578,39.184,20.812,-53.222,1
6.894809,0.833,0.443,-0.587,30.883,20.202,-52.612,1
6.901772,0.763,0.457,-0.583,22.216,20.324,-52.673,1
6.908731,0.721,0.464,-0.582,16.662,20.08,-53.466,1
6.917422,0.706,0.466,-0.579,15.869,18.981,-54.565,1
6.923979,0.701,0.465,-0.569,21.423,17.578,-55.603,1
6.930973,0.695,0.447,-0.56,31.799,15.686,-56.518,1
6.938002,0.686,0.413,-0.557,41.748,14.343,-57.373,1
6.946346,0.687,0.369,-0.553,49.926,12.756,-57.861,1
6.953491,0.689,0.32,-0.542,52.062,12.023,-57.495,1
6.95998,0.708,0.27,-0.539,51.147,11.413,-56.823,1
6.968667,0.697,0.231,-0.532,49.743,10.864,-55.541,1
6.975653,0.697,0.19,-0.541,47.912,10.559,-53.527,1
6.982625,0.71,0.169,-0.542,45.898,10.07,-51.147,1
6.990988,0.75,0.152,-0.567,47.668,9.277,-48.522,1
6.997931,0.773,0.155,-0.542,56.518,8.239,-45.471,1
7.005936,0.793,0.161,-0.527,72.387,7.324,-42.175,1
7.012987,0.758,0.177,-0.507,87.829,6.713,-40.466,1
7.020287,0.7,0.182,-0.509,103.881,6.408,-39.123,1
7.029171,0.693,0.165,-0.505,110.961,5.493,-38.269,1
7.037393,0.701,0.118,-0.544,105.59,7.08,-36.865,1
7.04403,0.705,0.115,-0.506,96.862,8.544,-35.339,1
7.050817,0.728,0.16,-0.491,83.312,8.483,-33.996,1
7.059072,0.764,0.126,-0.442,72.326,12.084,-31.433,1
7.066142,0.836,0.08,-0.556,42.114,12.817,-29.968,1
7.07452,0.807,0.096,-0.489,28.198,17.15,-27.16,1
7.081366,0.812,0.133,-0.545,26.916,14.831,-25.085,1
7.089112,0.772,0.156,-0.486,41.076,15.075,-22.827,1
7.097073,0.779,0.157,-0.551,56.396,13.366,-21.118,1
7.105329,0.748,0.154,-0.534,68.42,12.145,-19.348,1
7.11214,0.763,0.135,-0.558,69.702,12.268,-17.639,1
7.12038,0.772,0.12,-0.562,60.119,13.122,-16.54,1
7.127379,0.797,0.13,-0.568,51.025,13.793,-15.075,1
7.134172,0.8,0.16,-0.565,45.349,13.366,-13.671,1
7.142085,0.784,0.184,-0.557,49.133,13.183,-12.39,1
7.149276,0.803,0.161,-0.61,45.715,11.596,-11.901,1
7.15633,0.795,0.172,-0.583,39.794,10.742,-10.681,1
7.164514,0.817,0.137,-0.667,20.751,11.413,-9.277,1
7.171469,0.8,0.136,-0.671,-12.512,11.535,-8.605,1
7.178513,0.803,0.151,-0.703,-46.02,13.549,-7.446,1
7.187123,0.838,0.181,-0.733,-72.998,12.756,-6.958,1
7.19385,0.869,0.213,-0.74,-82.58,12.329,-6.774,1
7.200828,0.867,0.263,-0.75,-79.467,8.483,-6.835,1
7.208852,0.844,0.285,-0.732,-65.307,4.943,-6.896,1
7.217127,0.806,0.287,-0.754,-51.33,1.22,-7.263,1
7.225203,0.787,0.286,-0.747,-44.494,-1.159,-7.812,1
7.231818,0.799,0.295,-0.736,-43.945,-2.807,-8.178,1
7.238792,0.798,0.306,-0.711,-49.011,-4.394,-8.789,1
7.246913,0.8,0.321,-0.672,-55.419,-4.455,-9.338,1
7.25384,0.829,0.309,-0.635,-63.842,-4.882,-9.399,1
7.261726,0.88,0.323,-0.6,-67.321,-5.004,-10.009,1
7.269967,0.908,0.328,-0.567,-65.551,-5.92,-10.742,1
7.278246,0.92,0.33,-0.566,-59.265,-7.69,-11.474,1
7.285407,0.947,0.333,-0.548,-48.278,-9.582,-11.291,1
7.29391,0.966,0.348,-0.541,-28.564,-11.535,-10.375,1
7.300836,0.967,0.361,-0.528,-10.803,-13.122,-10.681,1
7.307863,0.965,0.371,-0.52,0.0,-13.916,-11.657,1
7.316206,0.934,0.335,-0.524,0.915,-13.977,-11.779,1
7.323121,0.933,0.353,-0.515,-4.76,-12.817,-13.244,1
7.3312,0.938,0.387,-0.519,-6.286,-13.366,-15.502,1
7.338184,0.94,0.414,-0.521,0.366,-14.892,-18.005,1
7.346971,0.877,0.426,-0.516,13.0,-16.784,-20.324,1
7.354049,0.895,0.406,-0.499,31.188,-18.066,-22.216,1
7.362808,0.931,0.379,-0.498,43.518,-19.653,-23.376,1
7.369606,0.937,0.348,-0.5,52.185,-20.874,-24.658,1
7.377559,0.94,0.326,-0.499,51.635,-21.606,-25.39,1
7.384261,0.942,0.318,-0.489,50.17,-21.484,-25.512,1
7.392168,0.951,0.326,-0.494,53.833,-22.277,-25.756,1
7.399026,0.942,0.331,-0.48,62.255,-23.315,-26.733,1
7.407351,0.918,0.319,-0.478,68.115,-23.864,-27.282,1
7.413982,0.908,0.3,-0.474,65.795,-23.681,-28.564,1
7.422415,0.897,0.289,-0.474,58.532,-23.315,-30.151,1
7.42887,0.873,0.281,-0.47,48.95,-22.888,-31.921,1
7.437284,0.868,0.259,-0.467,39.672,-22.583,-33.264,1
7.444001,0.89,0.232,-0.459,33.142,-22.705,-33.813,1
7.452283,0.9,0.21,-0.448,25.817,-22.094,-34.79,1
7.459982,0.935,0.181,-0.446,18.493,-21.911,-35.156,1
7.467026,0.939,0.152,-0.429,8.789,-20.69,-35.522,1
7.474966,0.952,0.141,-0.424,0.244,-20.019,-35.644,1
7.483016,0.965,0.143,-0.41,-2.258,-19.897,-35.705,1
7.490036,0.944,0.146,-0.391,1.22,-20.202,-35.827,1
7.497189,0.944,0.158,-0.361,13.732,-20.935,-35.888,1
7.504847,0.958,0.144,-0.339,34.179,-22.155,-36.254,1
7.513348,0.987,0.113,-0.309,54.443,-23.437,-36.865,1
7.520872,1.015,0.061,-0.284,69.946,-24.108,-36.743,1
7.528479,1.035,0.004,-0.252,73.547,-23.681,-36.437,1
7.535043,1.089,-0.053,-0.215,64.208,-22.094,-35.705,1
7.543261,1.117,-0.09,-0.185,48.828,-20.385,-34.362,1
7.551546,1.132,-0.085,-0.146,37.292,-18.615,-32.531,1
7.558101,1.14,-0.059,-0.124,36.254,-18.371,-30.517,1
7.566858,1.112,-0.05,-0.108,39.001,-17.883,-28.442,1
7.573179,1.176,-0.062,-0.123,35.949,-18.066,-26.367,1
7.581534,1.177,-0.13,-0.118,-3.479,-10.253,-23.742,1
7.589906,1.196,-0.057,-0.143,-34.179,-10.131,-22.216,1
7.59623,1.194,0.019,-0.068,-33.508,-5.31,-20.141,1
7.605197,1.125,0.073,-0.138,-32.714,-3.845,-18.981,1
7.611887,1.156,0.132,-0.111,-31.066,-2.014,-18.554,1
7.618358,1.151,0.183,-0.121,-29.174,0.183,-18.676,1
7.62711,1.158,0.22,-0.119,-29.907,1.525,-18.737,1
7.635478,1.187,0.259,-0.135,-34.912,5.249,-20.08,1
7.642829,1.173,0.323,-0.125,-38.33,7.324,-22.155,1
7.651062,1.189,0.368,-0.147,-36.865,9.765,-24.047,1
7.657056,1.183,0.434,-0.141,-33.874,10.437,-26.672,1
7.667136,1.207,0.477,-0.151,-26.794,12.39,-29.479,1
7.673865,1.222,0.53,-0.173,-18.493,12.023,-33.691,1
7.682199,1.208,0.573,-0.167,-10.681,12.634,-36.621,1
7.688814,1.143,0.611,-0.143,-4.028,11.779,-40.161,1
7.69582,1.064,0.644,-0.102,5.432,11.413,-42.968,1
7.704271,0.962,0.653,-0.077,19.592,9.704,-46.081,1
7.711144,0.82,0.668,-0.026,37.658,8.117,-48.706,1
7.71801,0.708,0.657,0.009,50.537,7.202,-51.879,1
7.72517,0.618,0.665,0.044,62.683,6.774,-54.809,1
7.733489,0.623,0.657,0.059,70.251,8.3,-58.349,1
7.74028,0.705,0.629,0.031,72.753,11.169,-62.561,1
7.749,0.757,0.588,0.02,68.725,15.563,-66.833,1
7.754556,0.808,0.55,-0.01,60.424,22.094,-70.861,1
7.762412,0.859,0.537,-0.023,52.612,26.855,-74.584,1
7.770238,0.886,0.528,-0.033,47.485,33.142,-78.247,1
7.776719,0.868,0.516,-0.035,44.494,37.231,-82.763,1
7.783579,0.783,0.479,-0.03,40.1,42.114,-86.242,1
7.791935,0.705,0.437,-0.034,30.151,45.776,-89.05,1
7.798417,0.62,0.335,-0.03,6.286,51.574,-91.43,1
7.806744,0.564,0.298,-0.016,-21.789,57.739,-94.604,1
7.815012,0.476,0.238,-0.031,-46.752,62.622,-97.839,1
7.821831,0.415,0.18,-0.023,-63.11,67.626,-101.44,1
7.829923,0.413,0.094,-0.045,-71.411,71.35,-104.675,1
7.836451,0.352,0.016,-0.034,-73.364,73.73,-107.604,1
7.844786,0.302,-0.082,-0.063,-71.044,76.965,-110.229,1
7.851512,0.212,-0.164,-0.044,-64.025,77.88,-111.694,1
7.859973,0.195,-0.263,-0.052,-47.058,81.359,-112.426,1
7.868923,0.134,-0.372,-0.077,-27.648,83.312,-112.487,1
7.875849,0.032,-0.475,-0.096,-7.141,87.463,-110.412,1
7.884871,-0.021,-0.559,-0.113,17.7,91.003,-106.323,1
7.892758,-0.016,-0.654,-0.165,33.264,95.947,-100.646,1
7.899721,-0.089,-0.761,-0.2,30.273,101.135,-92.346,1
7.908358,-0.151,-0.808,-0.253,26.062,106.689,-84.716,1
7.915159,-0.237,-0.83,-0.317,24.78,109.802,-76.538,1
7.923564,-0.341,-0.86,-0.328,26.611,112.976,-67.993,1
7.930213,-0.412,-0.865,-0.36,37.963,112.67,-58.837,1
7.938972,-0.538,-0.856,-0.358,61.523,113.098,-48.583,1
7.945926,-0.567,-0.953,-0.435,85.388,114.624,-36.804,1
7.954135,-0.656,-1.032,-0.472,103.454,116.516,-24.047,1
7.961165,-0.738,-1.083,-0.52,110.9,118.347,-10.681,1
7.968203,-0.808,-1.119,-0.551,108.581,120.056,4.15,1
7.976153,-0.883,-1.159,-0.594,98.327,122.375,20.507,1
7.983936,-0.937,-1.224,-0.644,85.021,125.488,37.536,1
7.990745,-1.046,-1.218,-0.67,68.969,128.051,55.725,1
7.997679,-1.146,-1.214,-0.718,66.101,129.943,74.34,1
8.004915,-1.228,-1.236,-0.768,64.941,129.638,91.186,1
8.013834,-1.282,-1.263,-0.813,68.237,130.004,112.487,1
8.020045,-1.393,-1.287,-0.889,69.152,127.99,134.765,1
8.028003,-1.536,-1.278,-0.944,66.101,127.014,157.531,1
8.03505,-1.788,-1.255,-1.032,68.054,123.779,180.725,1
8.042987,-2.005,-1.234,-1.072,77.087,121.215,205.627,1
8.050902,-2.222,-1.219,-1.152,84.655,116.149,230.59,1
8.058723,-2.444,-1.202,-1.189,89.172,112.121,256.896,1
8.065756,-2.676,-1.17,-1.254,89.904,107.543,284.24,1
8.07427,-2.896,-1.122,-1.293,89.416,101.989,311.706,1
8.082601,-3.156,-1.06,-1.322,93.322,95.336,340.454,1
8.090592,-3.532,-1.003,-1.357,96.557,86.181,375.061,1
8.09756,-3.865,-0.993,-1.428,89.294,77.514,406.433,1
8.105872,-4.355,-0.98,-1.488,75.866,69.213,439.27,1
8.112308,-4.833,-0.976,-1.554,60.913,59.631,474.487,1
8.121011,-5.229,-1.006,-1.618,47.607,49.621,512.573,1
8.129285,-5.916,-1.001,-1.69,33.569,36.437,559.265,1
8.136959,-6.518,-1.004,-1.78,26.306,23.803,602.294,1
8.143973,-7.25,-0.998,-1.841,35.278,5.004,647.399,1
8.15266,-7.939,-0.991,-1.873,67.81,-16.54,695.007,1
8.159397,-8.796,-0.941,-1.938,125.976,-50.476,742.37,1
8.168176,-10.076,-0.942,-2.007,191.772,-94.177,789.794,1
8.176157,-11.206,-0.908,-2.069,260.925,-154.663,843.688,1
8.184191,-12.821,-0.839,-1.967,285.705,-216.003,884.765,1
8.192612,-14.241,-0.666,-1.863,315.002,-286.865,929.016,1
8.201249,-15.892,-0.46,-1.688,337.097,-354.186,960.571,1
8.207838,-15.999,-0.206,-1.54,348.083,-420.227,984.741,1
8.216434,-15.999,0.046,-1.322,329.895,-497.802,1004.089,1
8.225375,-15.999,0.583,-1.0,318.969,-558.532,1018.005,1
8.23158,-15.999,1.212,-0.658,366.271,-640.93,1023.864,1
8.240364,-15.999,1.737,-0.324,454.345,-725.463,1015.197,1
8.248327,-15.999,2.206,0.078,548.645,-824.951,990.295,1
8.25502,-15.999,2.68,0.601,654.846,-938.049,950.195,1
8.261906,-15.999,3.226,1.253,800.17,-1053.833,886.84,1
8.270328,-15.999,3.689,1.901,964.66,-1176.33,794.006,1
8.278462,-15.999,4.256,2.47,1206.481,-1297.424,655.7,1
8.286897,-15.999,4.473,2.831,1512.145,-1419.067,456.909,1
8.297128,-15.999,4.603,3.127,1869.445,-1492.797,186.035,1
8.304863,-15.999,3.873,2.521,1999.938,-1440.307,-337.524,1
8.312695,-15.999,2.617,2.206,1894.47,-1249.206,-641.601,1
8.320917,-15.999,1.379,2.242,1293.456,-981.567,-859.619,1
8.329156,-15.999,0.84,2.295,859.68,-803.527,-925.17,1
8.335687,-15.999,0.674,2.253,437.255,-662.17,-944.03,1
8.342661,-15.999,0.845,2.389,219.055,-567.26,-932.922,1
8.350651,-15.999,1.035,2.311,194.03,-504.821,-916.686,1
8.359236,-15.999,1.161,2.333,299.621,-456.054,-909.118,1
8.366206,-15.999,1.151,2.193,431.03,-405.517,-909.851,1
8.373937,-15.542,0.967,1.985,539.001,-337.524,-912.536,1
8.381149,-14.762,0.712,1.704,594.848,-262.329,-912.902,1
8.390787,-13.915,0.449,1.505,608.52,-179.26,-904.663,1
8.397889,-12.939,0.072,1.327,576.355,-100.463,-886.169,1
8.406306,-11.986,-0.251,1.27,506.408,-23.071,-859.374,1
8.412939,-11.148,-0.56,1.156,383.117,47.302,-822.387,1
8.420057,-10.442,-0.75,1.13,276.916,93.627,-786.804,1
8.428417,-9.934,-0.829,1.087,197.265,123.718,-750.244,1
8.436242,-8.807,-0.916,1.088,174.194,146.484,-715.759,1
8.444029,-8.341,-1.171,0.92,150.451,158.386,-681.579,1
8.45084,-7.714,-1.358,0.904,132.263,171.63,-644.47,1
8.458972,-7.055,-1.415,0.809,132.324,180.358,-610.168,1
8.467025,-6.494,-1.637,0.74,147.705,181.274,-575.5,1
8.474928,-5.977,-1.748,0.656,170.349,187.866,-539.001,1
8.481526,-5.429,-1.889,0.525,182.495,192.932,-496.704,1
8.489159,-4.985,-2.018,0.388,171.508,200.683,-467.224,1
8.497588,-4.664,-2.075,0.287,137.817,206.115,-432.556,1
8.504701,-4.318,-2.101,0.21,110.046,211.059,-398.62,1
8.511302,-3.967,-2.11,0.105,99.182,210.144,-366.21,1
8.518699,-3.559,-2.131,0.066,102.233,207.58,-334.777,1
8.527143,-3.325,-2.142,-0.041,99.06,202.27,-304.565,1
8.535544,-2.878,-2.23,-0.079,94.787,198.974,-276.062,1
8.543686,-2.577,-2.211,-0.118,80.749,193.298,-243.408,1
8.551688,-2.311,-2.166,-0.113,80.993,186.523,-216.064,1
8.558396,-2.029,-2.125,-0.121,84.533,179.687,-190.063,1
8.566416,-1.894,-2.079,-0.117,83.374,172.485,-165.893,1
8.574613,-1.765,-2.033,-0.106,82.031,166.503,-142.944,1
8.582661,-1.604,-1.982,-0.109,76.049,160.339,-117.614,1
8.590955,-1.427,-1.928,-0.113,67.138,155.334,-96.984,1
8.597853,-1.276,-1.854,-0.122,56.274,150.085,-77.819,1
8.60613,-1.169,-1.763,-0.13,46.386,144.653,-60.058,1
8.614496,-1.103,-1.671,-0.127,38.757,138.61,-43.64,1
8.622968,-0.999,-1.596,-0.135,31.677,131.164,-26.55,1
8.629336,-0.887,-1.546,-0.131,21.728,125.427,-12.756,1
8.637345,-0.748,-1.479,-0.129,13.366,119.323,0.0,1
8.645919,-0.662,-1.38,-0.114,12.695,110.534,13.61,1
8.653807,-0.62,-1.297,-0.102,19.592,102.905,24.108,1
8.661808,-0.575,-1.227,-0.095,29.174,94.36,33.691,1
8.668493,-0.525,-1.169,-0.083,38.146,85.998,42.175,1
8.676444,-0.46,-1.11,-0.075,44.616,78.491,50.048,1
8.684706,-0.412,-1.043,-0.061,48.217,70.617,56.762,1
8.691326,-0.364,-0.971,-0.013,51.391,62.683,62.744,1
8.698194,-0.321,-0.9,0.031,56.64,55.175,68.115,1
8.706015,-0.28,-0.85,0.074,64.208,47.607,72.448,1
8.714669,-0.243,-0.811,0.106,70.922,40.771,76.11,1
8.722965,-0.183,-0.771,0.151,78.552,33.508,79.406,1
8.729998,-0.132,-0.732,0.199,90.393,27.343,82.031,1
8.736627,-0.119,-0.707,0.26,103.332,22.155,84.289,1
8.743617,-0.096,-0.68,0.29,111.572,17.517,86.059,1
8.751854,-0.109,-0.677,0.338,112.487,14.709,87.158,1
8.759138,-0.116,-0.677,0.365,104.919,13.061,87.28,1
8.767561,-0.106,-0.659,0.392,94.604,12.573,87.646,1
8.775933,-0.036,-0.696,0.428,83.923,11.657,88.012,1
8.783045,0.044,-0.732,0.456,75.927,11.84,89.355,1
8.789711,0.141,-0.779,0.468,71.655,10.681,90.515,1
8.798058,0.172,-0.796,0.492,68.786,11.352,92.224,1
8.805023,0.244,-0.822,0.506,66.101,10.07,93.811,1
8.812056,0.314,-0.836,0.501,68.298,10.131,95.642,1
8.819715,0.362,-0.834,0.508,73.242,8.422,97.473,1
8.826691,0.408,-0.811,0.502,81.909,7.812,98.815,1
8.833758,0.449,-0.806,0.507,86.791,6.164,99.487,1
8.841965,0.464,-0.77,0.5,92.224,5.249,100.28,1
8.848514,0.513,-0.763,0.507,95.275,2.258,100.646,1
8.855681,0.526,-0.768,0.526,97.778,1.892,100.952,1
8.863975,0.562,-0.779,0.505,94.97,-0.61,101.135,1
8.870545,0.612,-0.801,0.516,87.768,0.0,101.501,1
8.87842,0.671,-0.812,0.492,79.345,-1.037,101.989,1
8.885596,0.712,-0.801,0.496,76.599,-1.159,102.355,1
8.894404,0.752,-0.792,0.475,77.697,-1.77,102.661,1
8.901014,0.764,-0.769,0.462,84.533,-2.685,102.905,1
8.909399,0.761,-0.756,0.445,92.773,-3.784,103.149,1
8.91577,0.789,-0.736,0.434,102.783,-5.004,103.515,1
8.924158,0.852,-0.723,0.425,114.685,-6.652,103.698,1
8.931308,0.869,-0.708,0.432,130.065,-7.629,104.248,1
8.939055,0.889,-0.703,0.418,144.042,-8.789,104.797,1
8.947308,0.884,-0.697,0.407,152.587,-9.521,104.98,1
8.955439,0.874,-0.684,0.367,155.212,-9.826,105.468,1
8.962044,0.897,-0.678,0.352,154.479,-10.253,105.957,1
8.969978,0.902,-0.646,0.328,155.761,-10.437,106.689,1
8.976901,0.935,-0.648,0.314,159.057,-10.864,106.811,1
8.985829,0.918,-0.64,0.292,154.968,-10.559,107.421,1
8.992155,0.956,-0.625,0.263,147.033,-10.559,107.543,1
9.000208,0.957,-0.59,0.27,139.648,-10.009,108.154,1
9.008115,0.974,-0.546,0.281,137.756,-10.62,108.642,1
9.015042,0.971,-0.476,0.301,142.15,-10.803,108.154,1
9.024042,0.931,-0.427,0.288,149.658,-11.718,107.482,1
9.031221,0.969,-0.381,0.299,155.09,-12.756,106.384,1
9.039233,0.962,-0.357,0.287,158.386,-12.878,105.346,1
9.045557,0.928,-0.331,0.269,155.395,-13.061,104.431,1
9.053503,0.966,-0.301,0.27,149.108,-11.535,103.332,1
9.062106,0.957,-0.263,0.252,140.319,-10.192,101.806,1
9.068371,0.943,-0.212,0.229,131.225,-8.056,99.853,1
9.076684,0.984,-0.182,0.216,121.215,-6.53,97.717,1
9.085489,1.009,-0.148,0.202,113.769,-4.76,95.642,1
9.091749,1.049,-0.11,0.2,111.633,-3.906,93.505,1
9.098791,1.087,-0.075,0.218,113.525,-2.99,91.43,1
9.106863,1.152,-0.049,0.213,116.882,-3.051,89.782,1
9.113656,1.176,-0.03,0.246,120.422,-2.319,88.012,1
9.122163,1.201,-0.012,0.249,123.718,-2.014,86.303,1
9.128664,1.194,0.003,0.272,124.633,-1.464,84.655,1
9.136421,1.184,0.016,0.276,121.826,-0.183,82.397,1
9.14435,1.162,0.037,0.281,115.844,1.098,80.139,1
9.150823,1.151,0.058,0.285,107.788,2.746,77.758,1
9.157909,1.107,0.091,0.284,99.914,4.211,75.073,1
9.165742,1.072,0.12,0.272,98.144,6.347,72.937,1
9.172613,1.116,0.149,0.251,97.229,6.958,69.458,1
9.180726,1.057,0.157,0.246,99.548,8.85,66.345,1
9.18745,1.053,0.158,0.213,100.83,9.765,63.049,1
9.19403,1.036,0.165,0.202,100.463,11.291,59.875,1
9.201876,1.025,0.173,0.173,98.327,13.061,57.128,1
9.208938,1.031,0.176,0.161,95.642,14.953,54.138,1
9.216382,1.022,0.183,0.141,93.811,16.662,52.001,1
9.224948,1.013,0.195,0.12,91.857,18.005,49.438,1
9.232045,0.983,0.208,0.105,91.552,19.958,46.691,1
9.238715,0.97,0.217,0.08,91.857,21.24,43.823,1
9.24704,0.957,0.215,0.064,92.712,22.399,41.076,1
9.253426,0.944,0.204,0.044,92.163,24.047,38.452,1
9.261405,0.931,0.201,0.025,89.294,25.329,36.01,1
9.268241,0.887,0.193,-0.003,87.829,26.672,34.301,1
9.276017,0.919,0.182,-0.018,85.083,27.099,31.982,1
9.282672,0.892,0.176,-0.038,83.984,28.381,29.907,1
9.290737,0.875,0.163,-0.059,83.312,28.259,27.709,1
9.299026,0.839,0.18,-0.101,98.51,29.418,26.0,1
9.306328,0.835,0.156,-0.064,109.497,25.512,23.803,1
9.314239,0.847,0.117,-0.107,119.262,27.221,23.071,1
9.321266,0.885,0.08,-0.109,121.154,24.047,22.521,1
9.329319,0.891,0.06,-0.131,123.229,24.658,22.216,1
9.338131,0.892,0.047,-0.126,123.229,22.949,21.972,1
9.345099,0.903,0.04,-0.141,125.244,23.376,22.46,1
9.352104,0.895,0.038,-0.147,124.572,21.911,23.071,1
9.360983,0.893,0.038,-0.157,123.291,22.583,23.681,1
9.367873,0.896,0.043,-0.175,118.774,21.179,24.108,1
9.374938,0.912,0.051,-0.174,114.318,21.484,24.475,1
9.383218,0.92,0.052,-0.195,109.313,19.958,24.78,1
9.390018,0.91,0.053,-0.193,105.224,19.47,25.085,1
9.398461,0.924,0.064,-0.206,101.806,17.15,25.39,1
9.405034,0.917,0.075,-0.199,102.539,15.991,25.695,1
9.41302,0.907,0.077,-0.212,105.957,14.465,25.695,1
9.421639,0.895,0.069,-0.211,110.778,13.183,25.573,1
9.427958,0.9,0.06,-0.224,114.013,12.573,26.0,1
9.434939,0.916,0.061,-0.226,115.295,12.39,26.916,1
9.443166,0.919,0.063,-0.244,114.196,12.145,27.465,1
9.449787,0.913,0.064,-0.253,111.206,12.023,28.259,1
9.457732,0.894,0.064,-0.265,104.187,12.512,28.686,1
9.464228,0.913,0.072,-0.268,94.726,12.756,29.235,1
9.472609,0.911,0.069,-0.285,82.702,13.549,29.418,1
9.479701,0.907,0.07,-0.292,69.58,14.099,29.602,1
9.488096,0.917,0.089,-0.298,58.837,14.404,29.357,1
9.494185,0.932,0.1,-0.309,50.048,15.258,29.174,1
9.501062,0.94,0.116,-0.313,46.386,15.136,28.991,1
9.509923,0.965,0.139,-0.306,49.743,14.892,28.503,1
9.516677,0.977,0.163,-0.307,58.105,14.038,28.015,1
9.524908,0.983,0.171,-0.298,67.993,13.244,27.587,1
9.532112,0.984,0.174,-0.303,76.232,13.122,27.221,1
9.538356,0.985,0.169,-0.311,79.528,12.817,26.855,1
9.545322,0.995,0.172,-0.307,81.054,13.061,26.611,1
9.554069,0.992,0.166,-0.312,78.002,13.549,26.611,1
9.560679,1.0,0.163,-0.313,70.129,14.404,26.672,1
9.567317,0.993,0.169,-0.31,59.631,15.624,26.916,1
9.575626,0.974,0.169,-0.314,46.874,17.456,26.977,1
9.584091,0.946,0.173,-0.317,31.311,19.348,26.672,1
9.590908,0.935,0.18,-0.329,20.507,20.385,26.428,1
9.598701,0.917,0.184,-0.345,10.009,21.24,25.878,1
9.606517,0.93,0.182,-0.363,3.723,21.545,25.268,1
9.613267,0.931,0.187,-0.38,2.075,20.996,24.963,1
9.621512,0.947,0.196,-0.39,6.774,20.507,25.085,1
9.628346,0.975,0.206,-0.388,14.587,19.592,25.329,1
9.636991,0.998,0.209,-0.388,26.672,18.493,25.817,1
9.64239,1.014,0.208,-0.391,39.245,17.517,26.794,1
9.650313,0.987,0.202,-0.398,46.081,16.845,27.465,1
9.65715,0.972,0.19,-0.397,44.494,17.089,27.893,1
9.66545,0.96,0.197,-0.382,39.001,18.066,28.32,1
9.672031,0.914,0.198,-0.39,29.296,18.981,29.296,1
9.680022,0.877,0.191,-0.394,13.793,20.324,29.602,1
9.688084,0.87,0.185,-0.385,-1.403,22.155,30.212,1
9.694924,0.875,0.176,-0.395,-16.784,23.559,30.273,1
9.702745,0.886,0.162,-0.388,-30.09,25.146,30.456,1
9.711696,0.892,0.145,-0.393,-40.466,26.245,31.311,1
9.71864,0.882,0.129,-0.394,-47.668,27.221,31.799,1
9.725635,0.893,0.103,-0.387,-52.246,27.709,32.897,1
9.733955,0.886,0.095,-0.382,-53.161,27.893,34.362,1
9.740548,0.875,0.083,-0.369,-50.903,28.32,35.705,1
9.748695,0.9,0.081,-0.354,-44.433,27.893,37.292,1
9.757148,0.919,0.08,-0.322,-33.752,27.526,39.001,1
9.763704,0.932,0.075,-0.307,-21.301,26.123,41.198,1
9.770827,0.923,0.067,-0.278,-9.521,24.841,43.579,1
9.779058,0.926,0.055,-0.263,-2.807,24.169,46.691,1
9.785563,0.913,0.056,-0.254,0.183,23.132,49.316,1
9.793905,0.899,0.062,-0.249,1.708,22.949,51.879,1
9.800919,0.888,0.073,-0.25,2.746,22.216,54.138,1
9.807503,0.869,0.083,-0.252,3.906,21.667,55.969,1
9.816298,0.843,0.091,-0.253,6.408,21.179,58.227,1
9.823226,0.822,0.102,-0.256,11.718,20.324,60.546,1
9.829632,0.8,0.109,-0.248,18.432,18.92,61.767,1
9.83793,0.769,0.118,-0.24,27.465,17.822,63.293,1
9.846242,0.745,0.127,-0.228,37.902,16.357,64.514,1
9.852743,0.718,0.141,-0.213,49.926,15.014,66.101,1
9.861023,0.695,0.146,-0.207,62.561,13.061,67.382,1
9.867741,0.66,0.149,-0.199,74.279,11.23,68.786,1
9.874751,0.647,0.147,-0.198,81.359,10.253,70.068,1
9.882844,0.642,0.143,-0.19,87.158,9.033,71.655,1
9.891116,0.647,0.137,-0.191,88.134,8.239,74.035,1
9.898233,0.656,0.136,-0.201,83.923,8.117,76.11,1
9.904818,0.671,0.145,-0.209,77.392,8.3,78.186,1
9.913284,0.692,0.163,-0.221,68.603,8.544,80.444,1
9.92117,0.715,0.18,-0.228,58.166,8.605,82.946,1
9.927825,0.722,0.204,-0.227,51.818,8.85,84.594,1
9.934918,0.739,0.222,-0.232,45.715,9.216,86.791,1
9.942988,0.744,0.241,-0.234,40.1,9.704,88.989,1
9.94953,0.739,0.264,-0.245,32.958,10.192,90.881,1
9.957844,0.729,0.285,-0.25,23.925,11.047,92.712,1
9.964596,0.72,0.298,-0.256,14.831,11.596,94.238,1
9.97146,0.696,0.331,-0.264,3.479,12.512,95.886,1
9.979905,0.672,0.363,-0.268,-6.225,13.488,97.595,1
9.987058,0.642,0.398,-0.271,-13.671,13.61,99.06,1
9.994044,0.621,0.433,-0.275,-17.089,14.099,100.28,1
