timestamp_s,ax,ay,az,gx,gy,gz,label
0.004793,0.702,0.742,0.019,1.342,1.22,0.671,1
0.012657,0.705,0.742,0.02,0.793,1.159,0.61,1
0.019633,0.708,0.744,0.022,0.549,1.159,0.488,1
0.027483,0.71,0.746,0.023,0.671,0.854,0.305,1
0.035637,0.707,0.74,0.021,0.427,0.976,0.183,1
0.042465,0.709,0.74,0.026,0.305,0.793,0.122,1
0.049892,0.707,0.738,0.021,0.244,0.61,0.0,1
0.059368,0.713,0.733,0.021,0.427,0.732,-0.305,1
0.066331,0.709,0.731,0.03,0.488,0.671,-0.549,1
0.074313,0.708,0.732,0.025,0.183,0.61,-0.244,1
0.081249,0.711,0.73,0.03,0.0,0.488,-0.122,1
0.089611,0.71,0.732,0.029,-0.183,0.671,-0.305,1
0.096532,0.708,0.733,0.031,0.061,0.488,-0.183,1
0.105199,0.703,0.729,0.026,0.061,0.244,-0.488,1
0.112074,0.705,0.731,0.029,0.0,0.366,-0.427,1
0.119778,0.703,0.731,0.028,0.061,0.183,-0.488,1
0.127301,0.705,0.731,0.029,0.122,0.183,-0.549,1
0.134284,0.708,0.723,0.028,0.366,0.122,-0.549,1
0.142848,0.707,0.722,0.027,0.061,0.183,-0.61,1
0.151438,0.702,0.728,0.03,-0.183,0.122,-0.366,1
0.157561,0.705,0.729,0.025,-0.366,0.0,-0.488,1
0.166648,0.708,0.731,0.022,-0.427,0.061,-0.488,1
0.174414,0.705,0.733,0.021,-0.061,0.0,-0.793,1
0.181407,0.704,0.733,0.017,0.244,-0.061,-0.854,1
0.190554,0.712,0.729,0.019,-0.427,-0.305,-0.793,1
0.198227,0.707,0.734,0.026,-0.305,-0.732,-0.915,1
0.206903,0.71,0.726,0.027,0.549,-0.793,-0.854,1
0.214777,0.71,0.725,0.034,0.488,-0.793,-0.854,1
0.22217,0.709,0.723,0.043,0.366,-0.732,-0.915,1
0.231042,0.704,0.725,0.048,0.427,-0.732,-0.732,1
0.238828,0.702,0.719,0.048,0.244,-0.488,-0.61,1
0.245975,0.704,0.725,0.051,0.061,-0.366,-0.549,1
0.253761,0.703,0.717,0.043,0.183,-0.366,-0.793,1
0.261567,0.704,0.722,0.044,0.061,-0.488,-0.732,1
0.269562,0.704,0.72,0.046,-0.122,-0.244,-0.671,1
0.27825,0.704,0.713,0.048,-0.122,-0.305,-0.427,1
0.285355,0.7,0.713,0.047,-0.122,-0.427,-0.549,1
0.294501,0.7,0.708,0.052,-0.183,-0.061,-0.61,1
0.301935,0.702,0.709,0.056,-0.549,0.0,-0.366,1
0.310122,0.701,0.708,0.06,-0.61,0.0,-0.427,1
0.318075,0.699,0.71,0.062,-0.488,0.244,0.061,1
0.325241,0.701,0.709,0.057,-0.488,0.488,-0.122,1
0.332847,0.705,0.707,0.054,-0.244,0.671,0.061,1
0.340809,0.706,0.707,0.057,-0.305,0.732,0.061,1
0.348846,0.707,0.708,0.058,-0.61,0.549,0.244,1
0.355329,0.708,0.703,0.06,-1.098,0.854,0.366,1
0.363029,0.709,0.706,0.061,-1.281,1.159,0.427,1
0.37065,0.708,0.705,0.062,-1.464,1.281,0.61,1
0.37971,0.704,0.708,0.064,-1.708,1.342,0.793,1
0.386782,0.704,0.713,0.064,-1.525,1.586,0.915,1
0.394603,0.702,0.714,0.062,-1.342,1.647,1.037,1
0.401986,0.703,0.714,0.063,-1.159,1.892,1.159,1
0.409727,0.704,0.711,0.058,-1.22,2.258,1.22,1
0.419268,0.701,0.714,0.05,-1.037,2.258,1.037,1
0.426177,0.701,0.722,0.05,-0.549,2.319,1.403,1
0.433958,0.704,0.716,0.052,-0.732,2.685,1.403,1
0.442972,0.705,0.711,0.046,-0.549,2.441,1.647,1
0.45004,0.702,0.717,0.047,-0.244,2.563,1.586,1
0.457581,0.701,0.713,0.05,-0.427,2.685,1.525,1
0.465574,0.702,0.715,0.049,-0.732,2.685,1.586,1
0.473108,0.704,0.722,0.046,-1.098,2.807,1.464,1
0.480762,0.706,0.718,0.045,-0.671,2.807,1.586,1
0.489907,0.702,0.724,0.044,-0.305,2.929,1.708,1
0.497671,0.704,0.721,0.038,-0.183,3.173,1.525,1
0.504781,0.705,0.722,0.04,-0.122,2.868,1.708,1
0.512439,0.704,0.719,0.036,0.244,3.112,1.708,1
0.521517,0.707,0.723,0.03,0.488,3.051,1.77,1
0.528773,0.698,0.72,0.028,0.488,3.173,1.77,1
0.535131,0.696,0.725,0.025,0.732,2.868,1.647,1
0.543873,0.697,0.722,0.02,0.61,2.99,1.708,1
0.551826,0.697,0.726,0.011,0.122,2.685,2.075,1
0.558589,0.699,0.729,0.015,-0.183,2.929,2.136,1
0.567065,0.701,0.73,0.016,-0.488,2.807,2.075,1
0.573611,0.707,0.733,0.008,-0.549,2.624,1.892,1
0.580862,0.706,0.736,0.016,-0.427,2.746,1.892,1
0.588289,0.707,0.742,0.014,-0.061,2.258,1.647,1
0.597575,0.709,0.744,0.012,-0.427,2.319,1.77,1
0.603678,0.705,0.745,0.014,-0.061,2.197,1.708,1
0.61054,0.703,0.748,0.015,-0.427,2.136,1.525,1
0.618521,0.707,0.754,0.015,-0.732,2.075,1.281,1
0.625816,0.703,0.755,0.006,-0.854,2.136,1.22,1
0.633283,0.705,0.754,0.009,-0.61,2.014,0.976,1
0.641462,0.701,0.749,0.006,-0.732,1.77,0.793,1
0.648248,0.7,0.752,0.008,-0.549,1.831,0.671,1
0.655191,0.7,0.751,0.007,-0.488,1.525,0.549,1
0.662653,0.698,0.75,0.004,-0.366,1.708,0.366,1
0.671183,0.696,0.748,0.004,-0.366,1.525,0.183,1
0.677917,0.698,0.745,0.002,0.244,1.342,0.244,1
0.684673,0.698,0.744,0.006,0.0,1.22,0.122,1
0.693698,0.697,0.744,0.0,0.0,1.22,0.122,1
0.702325,0.701,0.747,-0.005,-0.061,0.915,0.122,1
0.707768,0.694,0.74,-0.003,0.061,0.732,0.122,1
0.7169,0.695,0.739,-0.001,-0.061,0.732,-0.183,1
0.723999,0.695,0.741,-0.002,-0.183,0.488,-0.122,1
0.731559,0.699,0.737,-0.002,-0.244,0.122,-0.244,1
0.740697,0.7,0.738,0.002,0.0,0.061,-0.366,1
0.747156,0.701,0.732,0.002,0.0,0.0,-0.305,1
0.754992,0.7,0.73,0.003,0.061,-0.183,-0.427,1
0.762522,0.704,0.731,0.007,-0.122,-0.183,-0.366,1
0.771104,0.704,0.729,0.01,0.122,-0.183,-0.366,1
0.777556,0.705,0.724,0.008,-0.366,-0.305,-0.488,1
0.784899,0.701,0.73,0.008,0.183,-0.061,-0.305,1
0.793082,0.701,0.725,0.013,-0.366,-0.549,-0.244,1
0.802332,0.704,0.724,0.011,-0.427,-0.61,-0.305,1
0.810083,0.701,0.727,0.011,-0.366,-0.427,-0.122,1
0.819129,0.705,0.731,0.016,-0.122,-0.854,-0.244,1
0.826139,0.704,0.728,0.017,0.0,-0.732,-0.366,1
0.834741,0.702,0.728,0.013,0.366,-0.488,-0.488,1
0.841602,0.698,0.728,0.019,0.366,-0.854,-0.183,1
0.849845,0.701,0.727,0.022,0.61,-0.793,-0.061,1
0.857397,0.702,0.727,0.023,0.427,-0.854,-0.122,1
0.866267,0.697,0.726,0.024,0.305,-0.671,-0.061,1
0.874952,0.7,0.729,0.024,-0.122,-0.793,-0.122,1
0.881963,0.698,0.73,0.027,0.122,-0.732,-0.183,1
0.889639,0.702,0.73,0.025,0.244,-0.549,-0.122,1
0.897261,0.701,0.728,0.025,0.061,-0.915,-0.122,1
0.905558,0.699,0.729,0.023,0.0,-0.793,-0.244,1
0.914134,0.7,0.728,0.023,0.244,-0.976,-0.122,1
0.92148,0.703,0.728,0.02,0.488,-0.854,-0.122,1
0.928812,0.7,0.727,0.025,0.244,-0.732,-0.244,1
0.938011,0.704,0.726,0.026,0.244,-0.976,-0.305,1
0.945079,0.701,0.728,0.027,0.305,-0.854,-0.061,1
0.952544,0.704,0.728,0.031,0.305,-1.037,0.0,1
0.961751,0.702,0.726,0.034,0.732,-1.037,-0.061,1
0.968629,0.702,0.719,0.041,0.61,-0.976,0.0,1
0.976734,0.7,0.72,0.041,0.305,-0.793,0.061,1
0.983667,0.694,0.724,0.041,0.061,-0.549,0.183,1
0.991356,0.699,0.721,0.045,0.366,-0.427,0.122,1
1.000443,0.698,0.718,0.042,0.305,-0.427,0.366,1
1.007025,0.7,0.724,0.04,0.183,-0.183,0.366,1
1.01534,0.697,0.723,0.037,0.549,-0.244,0.488,1
1.023095,0.701,0.725,0.035,0.549,-0.183,0.427,1
1.030057,0.698,0.722,0.035,0.427,0.0,0.366,1
1.037963,0.7,0.728,0.037,0.305,-0.305,0.366,1
1.045332,0.701,0.724,0.04,0.183,0.061,0.488,1
1.054823,0.696,0.727,0.039,0.488,-0.061,0.549,1
1.062517,0.695,0.729,0.037,0.244,0.122,0.61,1
1.070919,0.7,0.73,0.041,-0.244,0.366,0.61,1
1.079327,0.7,0.727,0.039,-0.122,0.427,0.488,1
1.085028,0.701,0.726,0.034,0.244,0.488,0.61,1
1.092503,0.699,0.728,0.037,0.122,0.366,0.488,1
1.100019,0.7,0.731,0.029,0.0,0.305,0.732,1
1.108189,0.699,0.732,0.027,-0.366,0.549,0.549,1
1.116189,0.701,0.736,0.026,0.122,0.488,0.61,1
1.12364,0.703,0.737,0.024,0.061,0.305,0.549,1
1.130404,0.699,0.735,0.027,-0.061,0.244,0.549,1
1.137626,0.697,0.735,0.026,0.427,0.183,0.61,1
1.145422,0.696,0.732,0.03,0.549,0.183,0.427,1
1.15353,0.7,0.73,0.029,0.488,0.366,0.61,1
1.161174,0.7,0.73,0.031,0.061,0.244,0.671,1
1.168569,0.706,0.728,0.032,-0.122,0.305,0.61,1
1.174968,0.701,0.731,0.034,0.061,0.549,0.61,1
1.182731,0.705,0.732,0.031,0.122,0.61,0.549,1
1.1907,0.707,0.74,0.03,0.0,0.61,0.488,1
1.199142,0.706,0.736,0.027,-0.061,0.61,0.305,1
1.206822,0.703,0.733,0.024,0.366,0.488,0.488,1
1.213645,0.701,0.733,0.019,0.305,0.732,0.488,1
1.220935,0.701,0.734,0.019,-0.061,0.671,0.366,1
1.228988,0.7,0.738,0.015,0.061,0.61,0.183,1
1.237266,0.698,0.736,0.016,0.427,0.61,0.244,1
1.244292,0.698,0.732,0.02,0.793,0.488,0.122,1
1.252966,0.7,0.733,0.019,0.671,0.488,0.0,1
1.260051,0.699,0.729,0.022,0.366,0.427,0.0,1
1.268277,0.696,0.724,0.023,0.244,0.366,0.244,1
1.275521,0.696,0.725,0.022,0.305,0.305,0.305,1
1.282284,0.694,0.727,0.024,0.122,0.122,0.305,1
1.290991,0.691,0.724,0.02,-0.122,0.427,0.488,1
1.297733,0.697,0.727,0.021,-0.366,0.122,0.427,1
1.305884,0.695,0.724,0.022,-0.427,0.305,0.488,1
1.314806,0.699,0.729,0.024,0.0,0.305,0.671,1
1.32196,0.701,0.729,0.026,0.0,0.122,0.61,1
1.329579,0.698,0.728,0.023,0.366,0.244,0.488,1
1.336743,0.702,0.733,0.026,0.305,0.244,0.671,1
1.345229,0.702,0.736,0.029,0.244,0.244,0.671,1
1.351618,0.7,0.738,0.025,0.122,0.183,0.427,1
1.359022,0.7,0.735,0.027,0.122,0.366,0.488,1
1.367524,0.703,0.737,0.03,0.0,0.427,0.366,1
1.374961,0.7,0.74,0.028,-0.122,0.366,0.366,1
1.381374,0.7,0.736,0.027,-0.122,0.427,0.244,1
1.388962,0.699,0.733,0.028,-0.366,0.549,0.244,1
1.397319,0.699,0.733,0.026,-0.305,0.549,0.122,1
1.404589,0.693,0.731,0.022,0.0,0.488,0.0,1
1.411903,0.691,0.726,0.024,0.0,0.61,0.244,1
1.418742,0.696,0.731,0.024,0.549,0.366,0.122,1
1.425898,0.694,0.723,0.022,0.244,0.366,0.366,1
1.435116,0.694,0.722,0.017,-0.061,0.305,0.488,1
1.442425,0.691,0.717,0.016,-0.061,0.366,0.427,1
1.448725,0.692,0.716,0.016,0.244,0.183,0.61,1
1.456536,0.693,0.718,0.015,0.183,0.183,0.854,1
1.463448,0.691,0.716,0.018,0.0,0.183,0.976,1
1.472575,0.696,0.719,0.015,0.244,0.122,0.976,1
1.479174,0.694,0.718,0.017,0.305,-0.183,1.098,1
1.487819,0.697,0.714,0.021,0.183,0.305,1.037,1
1.494855,0.693,0.711,0.025,0.061,-0.183,1.098,1
1.503549,0.698,0.712,0.027,-0.061,0.0,1.281,1
1.511189,0.699,0.709,0.028,-0.366,0.305,1.342,1
1.519583,0.701,0.707,0.036,-0.732,0.061,1.342,1
1.52791,0.7,0.704,0.038,-0.793,0.366,1.831,1
1.53454,0.702,0.704,0.043,-1.159,0.488,1.892,1
1.543316,0.701,0.703,0.045,-1.098,0.427,2.136,1
1.549976,0.697,0.708,0.045,-0.732,0.61,2.38,1
1.557953,0.696,0.708,0.048,-0.671,0.549,2.563,1
1.56589,0.694,0.714,0.049,-0.488,0.793,2.929,1
1.57437,0.695,0.715,0.049,-0.122,0.854,2.868,1
1.582055,0.692,0.718,0.05,0.061,1.22,2.929,1
1.589174,0.691,0.72,0.049,-0.122,1.403,2.99,1
1.595566,0.693,0.725,0.05,0.061,1.586,3.417,1
1.604495,0.689,0.729,0.045,-0.183,1.831,3.356,1
1.610739,0.693,0.732,0.043,-0.488,1.831,3.417,1
1.619752,0.688,0.732,0.043,-0.305,1.953,3.295,1
1.626114,0.687,0.732,0.038,-0.305,2.136,3.234,1
1.635064,0.687,0.733,0.041,0.122,2.136,3.234,1
1.641783,0.684,0.737,0.039,0.244,2.441,3.112,1
1.648889,0.683,0.735,0.04,0.122,2.563,3.112,1
1.656999,0.687,0.739,0.039,0.244,2.624,3.417,1
1.664185,0.689,0.738,0.04,0.427,2.563,3.234,1
1.673539,0.692,0.74,0.041,0.427,2.868,3.051,1
1.679166,0.694,0.736,0.045,0.671,2.868,3.234,1
1.687542,0.691,0.742,0.036,0.427,2.99,3.356,1
1.694335,0.691,0.743,0.038,-0.061,2.929,3.295,1
1.703177,0.688,0.742,0.037,-0.366,3.356,3.173,1
1.710642,0.692,0.742,0.036,-0.305,3.417,3.173,1
1.719357,0.692,0.738,0.033,-0.793,3.356,3.173,1
1.726397,0.69,0.739,0.033,-0.732,3.295,3.356,1
1.734212,0.692,0.74,0.029,-0.671,3.417,3.112,1
1.741641,0.688,0.741,0.025,-1.037,3.723,3.173,1
1.749663,0.689,0.743,0.026,-0.549,3.601,3.356,1
1.758026,0.691,0.747,0.024,-0.305,3.784,3.112,1
1.765687,0.684,0.742,0.023,-0.305,3.723,3.173,1
1.77412,0.685,0.743,0.022,-0.793,3.967,3.234,1
1.78099,0.687,0.736,0.027,-1.342,3.784,3.234,1
1.788317,0.686,0.736,0.029,-1.159,3.845,3.112,1
1.797015,0.684,0.735,0.037,0.427,3.967,3.234,1
1.80393,0.692,0.738,0.046,2.624,4.15,3.356,1
1.811038,0.682,0.743,0.053,4.577,3.906,3.234,1
1.819361,0.69,0.75,0.058,8.056,3.845,3.234,1
1.82718,0.706,0.742,0.06,10.314,4.089,2.99,1
1.834151,0.727,0.722,0.063,4.455,3.967,2.868,1
1.841497,0.658,0.737,0.093,0.488,5.126,3.112,1
1.849212,0.669,0.739,0.084,1.525,6.225,3.112,1
1.858017,0.699,0.714,0.064,-3.356,6.225,3.601,1
1.864743,0.701,0.713,0.075,-12.817,7.385,4.699,1
1.873834,0.645,0.755,0.067,-14.526,8.483,4.211,1
1.880811,0.696,0.744,0.055,-11.23,7.934,3.723,1
1.887963,0.714,0.737,0.066,-7.568,7.141,3.906,1
1.896831,0.688,0.727,0.073,-8.972,7.202,3.601,1
1.903795,0.709,0.724,0.078,-10.375,7.507,3.845,1
1.912386,0.703,0.718,0.093,-14.709,7.446,4.15,1
1.919966,0.679,0.733,0.104,-13.0,8.789,4.394,1
1.928117,0.683,0.729,0.085,-12.817,9.46,4.455,1
1.935095,0.674,0.734,0.078,-15.441,10.253,4.699,1
1.943284,0.663,0.74,0.067,-17.883,11.23,4.882,1
1.951442,0.663,0.747,0.055,-19.958,11.901,5.004,1
1.959503,0.66,0.745,0.044,-22.155,12.512,5.065,1
1.968065,0.675,0.75,0.035,-21.972,13.061,4.882,1
1.974766,0.677,0.758,0.03,-19.897,13.305,4.943,1
1.983138,0.683,0.765,0.019,-13.183,13.61,4.882,1
1.990846,0.721,0.758,0.011,-7.934,13.916,4.76,1
1.99774,0.755,0.754,-0.008,-5.554,14.526,4.638,1
2.006805,0.733,0.762,-0.015,-5.371,15.38,5.065,1
2.015154,0.721,0.76,-0.039,-2.136,15.624,5.31,1
2.022253,0.722,0.744,-0.069,-3.845,17.15,5.187,1
2.031085,0.715,0.732,-0.127,-11.291,18.859,5.187,1
2.038731,0.691,0.734,-0.189,-18.981,21.179,5.31,1
2.045871,0.64,0.732,-0.279,-24.169,22.277,4.943,1
2.055126,0.612,0.719,-0.434,-30.456,23.193,4.821,1
2.061548,0.616,0.707,-0.601,-41.809,23.498,5.004,1
2.070637,0.616,0.692,-0.807,-57.8,22.705,5.187,1
2.078852,0.665,0.704,-1.052,-76.538,21.911,5.859,1
2.087638,0.578,0.737,-1.286,-94.909,18.981,7.019,1
2.09402,0.544,0.761,-1.562,-109.924,14.221,8.605,1
2.103355,0.528,0.813,-1.915,-119.567,7.385,10.009,1
2.110542,0.463,0.864,-2.257,-123.718,-4.638,11.047,1
2.118431,0.418,0.964,-2.6,-117.858,-19.47,11.779,1
2.126228,0.373,1.08,-2.938,-95.214,-37.841,11.657,1
2.133892,0.341,1.142,-3.278,-62.622,-60.424,9.887,1
2.142459,0.319,1.166,-3.623,-39.306,-88.684,7.446,1
2.149475,0.296,1.209,-3.816,-30.456,-114.44,4.699,1
2.158081,0.233,1.264,-3.921,-28.808,-140.075,1.892,1
2.165708,0.11,1.332,-3.905,-33.081,-166.259,-1.281,1
2.174214,-0.034,1.41,-3.79,-33.264,-196.472,-5.676,1
2.181903,-0.238,1.46,-3.559,-32.043,-225.83,-9.948,1
2.1917,-0.424,1.514,-3.284,-34.79,-248.779,-14.099,1
2.200707,-0.663,1.617,-2.915,-37.17,-273.254,-18.737,1
2.209012,-0.913,1.721,-2.484,-35.949,-294.677,-24.169,1
2.218255,-1.15,1.817,-2.071,-35.339,-312.255,-30.334,1
2.225355,-1.363,1.886,-1.708,-32.958,-325.439,-36.437,1
2.23323,-1.587,1.949,-1.263,-34.301,-338.867,-43.457,1
2.242419,-1.819,2.029,-0.718,-31.799,-349.304,-51.452,1
2.251335,-2.009,2.035,-0.143,-23.376,-354.919,-58.837,1
2.258681,-2.133,1.987,0.313,-14.709,-359.13,-67.565,1
2.267047,-2.154,1.9,0.789,-7.995,-359.497,-76.538,1
2.275636,-2.06,1.8,1.153,-0.732,-357.055,-84.777,1
2.283241,-2.223,1.573,1.533,15.808,-352.6,-93.872,1
2.292537,-2.023,1.284,1.794,7.507,-342.346,-98.693,1
2.300191,-2.012,1.113,2.081,-10.864,-330.993,-101.867,1
2.309523,-1.975,0.972,2.43,4.333,-317.81,-103.271,1
2.316603,-1.747,0.689,2.765,36.743,-302.917,-103.454,1
2.324034,-1.49,0.385,3.108,38.269,-281.616,-102.05,1
2.332585,-1.141,0.166,3.481,19.592,-258.056,-99.426,1
2.340571,-0.94,-0.021,3.748,9.094,-227.233,-95.642,1
2.349708,-0.613,-0.222,3.846,8.422,-200.988,-91.735,1
2.357633,-0.407,-0.399,3.854,6.774,-169.86,-85.754,1
2.36621,-0.143,-0.504,3.802,1.403,-147.705,-79.406,1
2.374009,-0.071,-0.558,3.776,5.249,-120.666,-71.289,1
2.381997,-0.038,-0.599,3.719,11.84,-103.515,-65.795,1
2.388794,0.527,-0.689,3.768,38.513,-90.759,-62.561,1
2.397015,0.693,-0.82,3.937,79.162,-68.115,-54.504,1
2.406445,0.772,-0.925,3.888,81.909,-44.25,-44.921,1
2.413769,0.828,-0.95,3.75,49.56,-17.272,-33.386,1
2.421661,0.789,-0.84,3.477,13.671,8.178,-22.277,1
2.428755,0.749,-0.666,3.094,-0.976,29.663,-12.268,1
2.436879,0.796,-0.581,2.695,-3.173,43.518,-4.699,1
2.444115,0.798,-0.47,2.319,-8.605,55.297,2.929,1
2.45274,0.728,-0.271,1.904,-12.207,64.453,10.009,1
2.459662,0.651,-0.051,1.625,-6.408,69.702,15.624,1
2.468418,0.544,0.094,1.362,2.319,76.293,20.263,1
2.475311,0.454,0.217,1.096,-4.15,80.505,22.766,1
2.482728,0.395,0.333,0.839,-15.441,84.289,24.475,1
2.490337,0.371,0.465,0.574,-19.653,85.571,25.512,1
2.499241,0.353,0.574,0.293,-17.822,83.862,26.245,1
2.50721,0.385,0.654,0.027,-17.761,80.383,25.756,1
2.514618,0.439,0.734,-0.27,-23.193,74.584,24.658,1
2.522125,0.473,0.779,-0.474,-32.165,65.368,23.01,1
2.531291,0.519,0.823,-0.619,-35.949,55.786,20.507,1
2.538277,0.579,0.853,-0.718,-33.752,45.227,18.432,1
2.546646,0.633,0.905,-0.765,-24.536,31.433,15.624,1
2.555357,0.647,0.942,-0.75,-13.977,20.08,12.695,1
2.562863,0.668,0.977,-0.687,-6.225,9.582,10.131,1
2.569251,0.665,0.995,-0.596,-0.061,-0.183,6.958,1
2.57797,0.673,0.996,-0.478,1.159,-7.69,3.723,1
2.585036,0.694,0.98,-0.362,0.183,-14.343,0.0,1
2.593975,0.694,0.975,-0.246,1.403,-19.958,-3.051,1
2.600904,0.682,0.953,-0.136,5.92,-24.963,-6.652,1
2.60935,0.672,0.921,-0.039,6.896,-27.77,-9.277,1
2.617838,0.66,0.889,0.037,4.394,-30.334,-11.901,1
2.624738,0.647,0.867,0.106,4.394,-32.043,-14.16,1
2.633158,0.623,0.847,0.158,9.765,-33.935,-16.296,1
2.641297,0.642,0.786,0.208,8.911,-35.278,-17.944,1
2.65013,0.641,0.758,0.243,3.417,-36.132,-19.042,1
2.657469,0.647,0.742,0.302,0.366,-37.048,-20.263,1
2.664965,0.647,0.717,0.352,0.061,-38.024,-21.545,1
2.672966,0.664,0.687,0.412,1.342,-39.123,-22.644,1
2.681701,0.671,0.659,0.482,4.516,-39.855,-23.376,1
2.688686,0.678,0.628,0.56,9.094,-40.161,-24.597,1
2.697088,0.709,0.583,0.614,11.901,-39.855,-24.902,1
2.705769,0.713,0.548,0.684,13.0,-39.184,-25.085,1
2.712585,0.716,0.521,0.759,14.526,-38.208,-24.658,1
2.720786,0.708,0.478,0.845,17.15,-36.254,-24.047,1
2.729405,0.708,0.44,0.905,16.113,-33.752,-23.132,1
2.736693,0.691,0.404,0.955,14.404,-30.334,-22.277,1
2.744839,0.683,0.365,0.989,11.23,-26.428,-20.507,1
2.752691,0.675,0.335,1.006,9.643,-23.132,-19.104,1
2.761238,0.673,0.307,1.018,7.141,-19.958,-17.456,1
2.769292,0.651,0.304,1.039,7.263,-16.296,-15.319,1
2.777054,0.628,0.299,1.053,8.056,-13.183,-13.854,1
2.7856,0.626,0.289,1.055,6.286,-9.826,-11.84,1
2.793667,0.619,0.285,1.055,1.953,-6.53,-10.253,1
2.801201,0.609,0.29,1.056,0.122,-3.051,-8.483,1
2.807653,0.615,0.291,1.052,0.61,0.427,-6.652,1
2.815911,0.619,0.292,1.035,1.525,3.112,-5.371,1
2.824053,0.621,0.29,1.008,1.281,6.774,-3.295,1
2.832552,0.625,0.295,0.957,0.0,9.582,-1.953,1
2.839369,0.624,0.312,0.915,-0.061,12.084,-0.488,1
2.847676,0.626,0.329,0.872,0.549,14.099,0.793,1
2.854878,0.625,0.342,0.824,-0.183,16.113,2.136,1
2.863981,0.629,0.369,0.771,-1.037,17.456,3.356,1
2.871182,0.628,0.421,0.719,0.0,18.432,4.577,1
2.8801,0.625,0.458,0.682,2.746,18.981,5.004,1
2.88734,0.616,0.491,0.64,3.662,19.592,5.554,1
2.895161,0.615,0.527,0.591,2.563,20.141,5.798,1
2.902825,0.627,0.555,0.541,0.854,20.446,5.554,1
2.909835,0.637,0.581,0.494,-1.464,20.263,5.249,1
2.917793,0.646,0.598,0.45,-3.234,19.775,4.76,1
2.925645,0.653,0.614,0.403,-3.723,18.615,3.967,1
2.933131,0.66,0.62,0.367,-3.906,17.578,3.173,1
2.940861,0.668,0.627,0.334,-4.455,16.174,2.502,1
2.950976,0.676,0.624,0.308,-5.065,14.465,1.892,1
2.95822,0.683,0.633,0.29,-5.615,12.329,0.976,1
2.96537,0.687,0.635,0.276,-5.798,10.314,0.183,1
2.974112,0.693,0.636,0.277,-5.432,8.422,-0.427,1
2.98178,0.688,0.636,0.273,-4.699,6.103,-1.037,1
2.990288,0.691,0.631,0.282,-4.516,4.516,-1.892,1
2.997569,0.685,0.625,0.293,-4.089,2.624,-2.563,1
3.005151,0.681,0.614,0.304,-2.929,0.976,-3.479,1
3.014537,0.678,0.605,0.312,-2.502,-0.61,-3.601,1
3.021891,0.676,0.598,0.321,-2.136,-1.892,-4.089,1
3.029542,0.672,0.586,0.328,-2.868,-3.173,-4.211,1
3.038897,0.674,0.578,0.34,-2.99,-4.333,-4.333,1
3.045113,0.679,0.57,0.355,-2.746,-5.798,-4.821,1
3.05361,0.673,0.564,0.364,-1.831,-7.019,-5.126,1
3.062508,0.675,0.554,0.381,-0.122,-8.178,-5.187,1
3.070993,0.669,0.542,0.408,0.671,-9.521,-5.554,1
3.077642,0.668,0.533,0.433,0.793,-10.192,-5.493,1
3.086303,0.666,0.515,0.457,0.793,-10.925,-5.615,1
3.09378,0.666,0.496,0.484,0.671,-11.474,-5.432,1
3.100775,0.667,0.479,0.508,0.976,-12.023,-4.882,1
3.109458,0.666,0.469,0.533,1.037,-12.023,-4.577,1
3.117982,0.657,0.457,0.556,1.403,-12.207,-4.028,1
3.125069,0.652,0.447,0.569,2.075,-12.084,-3.417,1
3.133129,0.649,0.437,0.594,2.929,-12.023,-2.929,1
3.142117,0.642,0.424,0.627,3.723,-11.657,-2.258,1
3.148735,0.647,0.417,0.653,4.028,-11.169,-1.281,1
3.156807,0.643,0.415,0.675,3.784,-10.437,-0.427,1
3.1655,0.639,0.413,0.687,2.929,-9.338,0.366,1
3.172085,0.65,0.42,0.705,3.051,-8.361,1.586,1
3.179085,0.646,0.422,0.718,3.356,-7.629,2.38,1
3.189103,0.651,0.424,0.727,3.173,-6.469,3.051,1
3.194893,0.645,0.431,0.744,3.54,-5.31,3.723,1
3.203917,0.647,0.437,0.746,4.089,-3.967,4.455,1
3.211122,0.648,0.444,0.746,3.173,-2.319,5.126,1
3.219578,0.652,0.454,0.737,1.831,-1.22,5.676,1
3.226984,0.654,0.465,0.728,1.464,0.061,6.408,1
3.235589,0.649,0.478,0.713,2.075,1.098,6.347,1
3.242432,0.65,0.493,0.703,1.586,2.014,7.141,1
3.251372,0.649,0.502,0.69,1.22,3.051,7.202,1
3.258266,0.643,0.521,0.67,1.22,3.723,7.263,1
3.264651,0.651,0.531,0.652,1.037,4.089,7.507,1
3.273973,0.656,0.546,0.634,0.671,4.821,7.202,1
3.280068,0.655,0.561,0.619,1.831,5.249,7.385,1
3.287943,0.663,0.572,0.606,2.319,5.371,7.08,1
3.296368,0.663,0.587,0.595,2.685,5.554,7.08,1
3.304433,0.663,0.602,0.583,2.685,5.981,6.53,1
3.310515,0.664,0.608,0.57,2.319,5.859,6.042,1
3.319226,0.667,0.618,0.55,1.403,6.164,5.554,1
3.326425,0.674,0.622,0.532,0.854,5.737,5.126,1
3.333652,0.679,0.63,0.519,0.732,5.798,4.394,1
3.341226,0.676,0.628,0.503,0.549,5.371,3.723,1
3.349111,0.681,0.624,0.497,0.305,4.882,3.051,1
3.35681,0.681,0.625,0.482,-0.366,4.211,2.38,1
3.365975,0.675,0.626,0.475,-0.854,3.662,1.831,1
3.373164,0.679,0.629,0.47,-0.366,3.234,1.22,1
3.380639,0.677,0.633,0.47,0.305,2.38,0.488,1
3.38818,0.672,0.625,0.466,0.61,1.953,-0.122,1
3.395737,0.678,0.623,0.458,-0.122,1.708,-0.976,1
3.404668,0.673,0.613,0.452,-0.671,1.098,-1.281,1
3.412733,0.671,0.609,0.444,-0.244,0.061,-1.77,1
3.41985,0.671,0.594,0.44,-0.122,-0.854,-2.258,1
3.429092,0.672,0.584,0.446,-0.244,-1.708,-2.624,1
3.436329,0.664,0.572,0.459,0.244,-2.38,-2.563,1
3.444907,0.661,0.563,0.466,0.915,-2.99,-2.929,1
3.452321,0.658,0.551,0.481,0.366,-3.662,-2.99,1
3.461422,0.665,0.55,0.498,-0.427,-4.089,-2.929,1
3.469187,0.668,0.553,0.509,-0.671,-4.211,-2.807,1
3.476239,0.667,0.546,0.524,-0.854,-4.516,-2.868,1
3.484166,0.667,0.548,0.531,-0.732,-4.821,-2.807,1
3.492943,0.667,0.54,0.544,-1.281,-4.699,-2.929,1
3.500584,0.662,0.531,0.554,-1.281,-4.76,-2.99,1
3.508492,0.662,0.521,0.563,-0.793,-4.882,-2.929,1
3.517424,0.656,0.513,0.57,-0.427,-4.455,-3.051,1
3.525585,0.65,0.508,0.575,0.61,-4.699,-2.868,1
3.532978,0.646,0.501,0.577,1.098,-4.455,-2.502,1
3.540328,0.64,0.494,0.583,1.77,-4.455,-2.258,1
3.54943,0.639,0.49,0.591,1.037,-4.028,-1.647,1
3.556394,0.639,0.491,0.594,0.427,-4.028,-1.403,1
3.563668,0.637,0.494,0.604,0.854,-3.479,-1.037,1
3.573032,0.638,0.486,0.603,1.037,-3.295,-0.61,1
3.579952,0.645,0.477,0.609,0.488,-2.929,-0.122,1
3.588699,0.644,0.473,0.605,-0.122,-2.441,0.183,1
3.596726,0.647,0.47,0.606,-0.427,-2.258,0.854,1
3.603702,0.65,0.473,0.612,-0.122,-1.892,1.281,1
3.610988,0.646,0.472,0.612,0.488,-1.708,1.77,1
3.618626,0.645,0.475,0.611,0.488,-1.159,2.197,1
3.627339,0.644,0.477,0.608,0.488,-0.854,2.441,1
3.634106,0.638,0.482,0.611,0.732,-0.793,3.051,1
3.641734,0.645,0.485,0.612,0.549,-0.427,3.295,1
3.649184,0.646,0.495,0.606,0.366,0.183,3.845,1
3.657896,0.644,0.507,0.611,0.488,0.244,4.211,1
3.665038,0.646,0.515,0.604,1.037,0.488,4.272,1
3.672652,0.646,0.522,0.599,0.854,0.854,4.577,1
3.680139,0.65,0.53,0.594,-0.122,1.281,4.577,1
3.688445,0.654,0.532,0.583,-1.525,1.647,4.455,1
3.695292,0.66,0.54,0.578,-2.319,1.586,4.638,1
3.70412,0.666,0.546,0.565,-2.014,1.77,4.638,1
3.711233,0.668,0.555,0.556,-1.037,1.525,4.638,1
3.718586,0.668,0.565,0.556,0.244,1.281,4.577,1
3.725916,0.663,0.573,0.552,0.244,1.037,4.211,1
3.734711,0.66,0.584,0.554,0.305,0.915,4.089,1
3.742385,0.664,0.595,0.556,0.61,0.976,3.662,1
3.749533,0.659,0.597,0.549,1.159,0.915,3.112,1
3.757543,0.657,0.595,0.54,0.183,0.793,2.502,1
3.764973,0.662,0.597,0.532,-0.61,0.671,2.075,1
3.773315,0.666,0.598,0.525,-1.464,0.305,1.708,1
3.780772,0.66,0.599,0.521,-1.403,-0.061,1.464,1
3.78873,0.653,0.603,0.523,-0.854,-0.488,1.159,1
3.796954,0.653,0.604,0.527,-0.366,-0.976,0.671,1
3.803878,0.652,0.604,0.525,-0.488,-0.976,0.244,1
3.811633,0.654,0.604,0.533,-0.366,-1.281,0.122,1
3.820481,0.655,0.608,0.538,-0.122,-1.464,-0.427,1
3.828462,0.651,0.602,0.541,-0.122,-1.708,-0.854,1
3.835422,0.649,0.592,0.547,0.0,-1.892,-1.22,1
3.843096,0.648,0.587,0.557,0.488,-1.892,-1.403,1
3.851311,0.656,0.576,0.563,0.732,-1.892,-1.586,1
3.859452,0.654,0.565,0.562,0.305,-1.647,-1.831,1
3.867096,0.65,0.562,0.564,0.488,-1.525,-2.075,1
3.874993,0.65,0.551,0.562,0.671,-1.464,-2.136,1
3.884453,0.648,0.545,0.569,0.366,-1.464,-2.075,1
3.892457,0.65,0.537,0.562,-0.122,-1.342,-2.319,1
3.90051,0.649,0.535,0.567,0.0,-1.281,-2.014,1
3.907804,0.645,0.527,0.567,0.671,-1.647,-1.892,1
3.915961,0.645,0.523,0.574,0.854,-1.464,-1.647,1
3.924896,0.646,0.522,0.581,1.281,-1.342,-1.342,1
3.932048,0.647,0.521,0.588,1.464,-1.525,-1.037,1
3.939832,0.646,0.516,0.59,1.22,-1.22,-1.098,1
3.947972,0.645,0.516,0.588,1.342,-0.976,-0.793,1
3.956461,0.646,0.513,0.595,1.281,-0.488,-0.854,1
3.964059,0.65,0.512,0.591,0.854,-0.244,-0.366,1
3.97156,0.647,0.511,0.59,0.366,-0.061,-0.183,1
3.980027,0.65,0.516,0.584,0.488,0.122,0.061,1
3.986661,0.642,0.512,0.579,0.488,0.427,0.366,1
3.996462,0.646,0.515,0.576,0.793,0.366,0.366,1
4.004603,0.647,0.511,0.569,0.061,0.549,0.671,1
4.011837,0.648,0.519,0.567,0.366,0.366,0.793,1
4.018337,0.646,0.515,0.564,0.488,0.183,0.915,1
4.026478,0.644,0.52,0.56,0.732,0.244,1.037,1
4.033432,0.65,0.523,0.565,0.671,0.061,1.22,1
4.042107,0.647,0.53,0.567,2.014,0.305,1.22,1
4.049394,0.641,0.539,0.573,2.807,0.366,1.586,1
4.056726,0.64,0.545,0.574,2.319,0.427,1.525,1
4.063806,0.648,0.549,0.57,0.488,0.61,1.342,1
4.072291,0.646,0.552,0.573,-0.671,0.732,1.464,1
4.080746,0.652,0.555,0.564,-0.671,0.976,1.464,1
4.088598,0.658,0.556,0.553,-0.366,0.854,1.525,1
4.096951,0.655,0.557,0.541,-0.488,0.671,1.098,1
4.103031,0.656,0.557,0.533,-1.22,0.427,1.098,1
4.111586,0.656,0.558,0.531,-1.037,0.061,0.976,1
4.118464,0.654,0.56,0.53,0.061,-0.244,1.098,1
4.126656,0.65,0.564,0.538,1.403,-0.915,0.915,1
4.133201,0.646,0.572,0.541,2.136,-0.976,0.793,1
4.141054,0.642,0.573,0.555,1.708,-1.159,0.549,1
4.149775,0.645,0.581,0.561,1.953,-1.22,0.183,1
4.156525,0.648,0.577,0.571,1.159,-1.037,0.061,1
4.163301,0.65,0.579,0.572,0.305,-0.915,-0.122,1
4.172348,0.653,0.575,0.569,-0.305,-0.427,-0.488,1
4.179752,0.662,0.569,0.561,-0.488,-0.671,-0.671,1
4.186718,0.66,0.564,0.555,-1.037,-0.61,-0.915,1
4.193865,0.657,0.557,0.553,-0.854,-0.915,-1.037,1
4.202563,0.654,0.554,0.555,-0.305,-0.915,-1.037,1
4.210951,0.652,0.544,0.553,-0.061,-1.037,-1.22,1
4.217906,0.653,0.549,0.557,0.244,-1.098,-0.915,1
4.226508,0.646,0.548,0.555,0.61,-1.098,-1.037,1
4.234701,0.645,0.545,0.562,0.976,-1.22,-1.098,1
4.241312,0.645,0.545,0.566,1.342,-1.159,-0.915,1
4.250762,0.644,0.543,0.569,0.793,-1.098,-0.976,1
4.2585,0.641,0.538,0.575,0.793,-0.915,-0.976,1
4.266513,0.643,0.533,0.575,1.708,-0.976,-0.671,1
4.275024,0.639,0.525,0.582,2.014,-1.037,-0.732,1
4.282316,0.641,0.519,0.575,1.281,-0.61,-0.549,1
4.289643,0.645,0.519,0.576,0.366,-0.488,-0.427,1
4.297134,0.646,0.517,0.576,-0.549,-0.244,-0.305,1
4.305659,0.646,0.519,0.566,-0.061,-0.488,-0.122,1
4.313683,0.65,0.511,0.562,0.183,-0.61,0.122,1
4.321386,0.645,0.516,0.56,0.305,-0.854,0.0,1
4.329341,0.649,0.513,0.567,0.61,-0.915,0.366,1
4.337027,0.648,0.514,0.576,1.159,-1.037,0.61,1
4.34424,0.645,0.51,0.585,1.525,-0.915,0.854,1
4.351954,0.639,0.516,0.588,1.586,-0.793,1.342,1
4.361312,0.637,0.517,0.588,1.22,-0.183,1.525,1
4.368565,0.636,0.516,0.584,0.549,-0.183,1.403,1
4.375545,0.636,0.516,0.585,-0.488,0.427,1.953,1
4.384361,0.638,0.514,0.583,-0.427,0.549,2.136,1
4.391343,0.641,0.516,0.582,-0.61,0.854,2.624,1
4.400127,0.644,0.516,0.571,-1.159,1.159,2.929,1
4.408081,0.644,0.52,0.566,-1.22,1.342,3.051,1
4.414913,0.645,0.521,0.563,-0.366,1.159,3.356,1
4.422279,0.644,0.526,0.563,0.549,1.098,3.417,1
4.429892,0.648,0.531,0.559,0.488,0.976,3.54,1
4.438302,0.652,0.54,0.563,0.122,0.976,3.784,1
4.445296,0.656,0.547,0.559,-0.366,1.098,3.784,1
4.454084,0.651,0.556,0.561,-0.244,0.976,3.662,1
4.461306,0.655,0.558,0.557,-0.549,0.793,3.54,1
4.470306,0.653,0.56,0.555,-0.488,0.915,3.662,1
4.477707,0.654,0.567,0.551,-0.549,0.732,3.356,1
4.484641,0.651,0.572,0.545,0.488,0.183,2.99,1
4.493708,0.649,0.575,0.543,1.708,0.061,2.929,1
4.500891,0.645,0.579,0.537,1.831,-0.244,2.563,1
4.508929,0.645,0.581,0.535,1.098,-0.305,1.892,1
4.515607,0.646,0.587,0.542,0.366,-0.671,1.892,1
4.52313,0.642,0.59,0.546,0.793,-1.159,1.464,1
4.530826,0.644,0.59,0.551,1.403,-1.159,1.159,1
4.539968,0.646,0.594,0.554,1.647,-1.586,0.671,1
4.546444,0.637,0.589,0.562,0.915,-1.525,0.61,1
4.554711,0.642,0.588,0.563,-0.183,-1.281,0.183,1
4.562802,0.645,0.582,0.564,-0.427,-1.22,-0.061,1
4.571852,0.649,0.578,0.56,-0.183,-1.22,-0.366,1
4.578426,0.65,0.572,0.561,0.244,-1.464,-0.427,1
4.587323,0.65,0.57,0.562,1.22,-1.525,-0.305,1
4.595001,0.647,0.563,0.567,2.502,-1.647,-0.549,1
4.602038,0.647,0.56,0.572,2.685,-1.77,-0.427,1
4.610986,0.643,0.554,0.578,2.136,-1.708,-0.549,1
4.618058,0.647,0.551,0.584,1.708,-1.464,-0.61,1
4.627178,0.645,0.546,0.582,1.159,-1.159,-0.488,1
4.635719,0.645,0.544,0.581,0.732,-1.037,-0.549,1
4.643107,0.642,0.541,0.582,1.098,-0.976,-0.427,1
4.651707,0.638,0.541,0.583,1.953,-0.854,-0.732,1
4.658921,0.639,0.537,0.585,2.441,-0.915,-0.488,1
4.66619,0.634,0.532,0.581,1.708,-0.732,-0.488,1
4.675003,0.636,0.526,0.58,0.427,-0.366,-0.366,1
4.68317,0.637,0.522,0.576,-0.305,-0.305,-0.122,1
4.690099,0.639,0.518,0.569,0.183,-0.183,-0.122,1
4.698215,0.639,0.516,0.566,-0.183,-0.305,0.122,1
4.705809,0.638,0.516,0.566,0.183,-0.549,0.488,1
4.713411,0.64,0.512,0.565,0.366,-0.549,0.61,1
4.720347,0.637,0.513,0.566,0.793,-0.549,1.159,1
4.728227,0.639,0.516,0.566,0.976,-0.61,1.342,1
4.737014,0.636,0.519,0.563,0.244,-0.61,1.464,1
4.742915,0.634,0.524,0.56,-0.183,-0.427,1.586,1
4.753588,0.64,0.533,0.561,-0.183,-0.793,1.953,1
4.760449,0.64,0.54,0.561,-0.061,-0.854,2.014,1
4.767239,0.644,0.545,0.56,-0.61,-0.671,2.075,1
4.775628,0.644,0.55,0.566,-0.793,-0.915,1.953,1
4.783545,0.645,0.559,0.568,-0.671,-0.915,2.014,1
4.790504,0.644,0.562,0.566,-0.244,-0.976,1.892,1
4.79964,0.638,0.567,0.562,-0.183,-0.915,1.586,1
4.806621,0.641,0.576,0.567,0.671,-0.854,1.647,1
4.813734,0.644,0.583,0.562,1.037,-1.098,1.464,1
4.822069,0.645,0.585,0.562,1.098,-1.22,1.159,1
4.829073,0.638,0.589,0.561,0.976,-1.464,1.037,1
4.83662,0.642,0.592,0.566,0.793,-1.159,0.732,1
4.844163,0.644,0.587,0.564,0.549,-1.281,0.61,1
4.853183,0.644,0.584,0.565,-0.305,-0.976,0.427,1
4.860511,0.647,0.584,0.566,-0.061,-1.281,0.061,1
4.867947,0.645,0.582,0.567,0.0,-1.22,-0.183,1
4.877086,0.649,0.581,0.564,0.427,-1.22,-0.366,1
4.883876,0.647,0.583,0.565,0.671,-1.281,-0.671,1
4.892969,0.644,0.58,0.564,1.159,-1.586,-0.915,1
4.900302,0.645,0.58,0.57,1.22,-1.708,-1.037,1
4.907605,0.64,0.569,0.573,0.61,-1.586,-1.281,1
4.915591,0.644,0.562,0.576,0.488,-1.525,-1.586,1
4.924937,0.645,0.561,0.584,0.244,-1.403,-1.708,1
4.931942,0.642,0.555,0.581,0.549,-1.281,-1.342,1
4.939445,0.645,0.553,0.58,0.61,-1.098,-1.586,1
4.947055,0.641,0.544,0.58,0.793,-1.159,-1.464,1
4.95597,0.647,0.541,0.584,0.854,-1.22,-1.464,1
4.963121,0.643,0.538,0.589,1.281,-1.098,-1.647,1
4.972876,0.637,0.534,0.591,1.037,-1.037,-1.403,1
4.97966,0.639,0.533,0.592,0.305,-0.793,-1.342,1
4.988076,0.639,0.536,0.592,0.122,-0.732,-1.281,1
4.995236,0.643,0.527,0.595,0.183,-0.61,-1.342,1
5.004059,0.645,0.52,0.595,0.366,-0.671,-1.098,1
5.01105,0.643,0.521,0.59,0.488,-0.549,-0.915,1
5.018726,0.641,0.523,0.585,0.244,-0.427,-0.732,1
5.026836,0.641,0.521,0.587,0.61,-0.183,-0.732,1
5.036156,0.637,0.524,0.583,1.281,-0.305,-0.427,1
5.043417,0.632,0.522,0.586,1.403,-0.244,-0.366,1
5.051488,0.63,0.525,0.589,1.525,0.0,-0.183,1
5.058909,0.63,0.528,0.588,1.403,0.0,0.0,1
5.066056,0.628,0.535,0.589,0.915,0.183,0.183,1
5.075219,0.633,0.533,0.591,-0.305,0.366,0.366,1
5.081721,0.64,0.534,0.584,-1.037,0.488,0.427,1
5.090857,0.637,0.537,0.578,-1.22,0.61,0.427,1
5.097118,0.644,0.531,0.569,-0.793,0.671,0.427,1
5.106419,0.645,0.53,0.563,-0.61,0.427,0.427,1
5.113332,0.642,0.53,0.561,0.0,0.427,0.732,1
5.121713,0.637,0.533,0.558,0.244,0.122,0.793,1
5.128751,0.638,0.526,0.559,0.427,0.061,0.915,1
5.137138,0.636,0.528,0.554,0.183,0.0,1.159,1
5.143838,0.628,0.53,0.559,0.122,-0.061,1.098,1
5.152034,0.632,0.524,0.561,0.488,-0.305,1.342,1
5.159516,0.626,0.526,0.564,-0.305,-0.244,1.403,1
5.167887,0.635,0.524,0.565,-0.549,-0.305,1.708,1
5.176808,0.633,0.527,0.565,-1.281,-0.305,1.77,1
5.183642,0.636,0.526,0.557,-1.342,-0.122,1.77,1
5.191303,0.638,0.525,0.56,-1.098,-0.244,2.136,1
5.199453,0.64,0.526,0.562,-0.122,-0.549,1.953,1
5.208152,0.636,0.522,0.562,1.342,-0.671,2.258,1
5.216351,0.637,0.523,0.559,1.953,-0.671,2.746,1
5.222313,0.643,0.53,0.555,2.319,-0.854,2.929,1
5.23004,0.638,0.542,0.56,2.38,-1.098,3.112,1
5.23806,0.641,0.541,0.556,2.014,-0.915,3.295,1
5.246277,0.639,0.542,0.553,1.708,-1.159,3.112,1
5.253403,0.638,0.545,0.551,1.22,-0.976,3.112,1
5.260816,0.636,0.55,0.543,1.708,-1.22,2.929,1
5.268519,0.636,0.547,0.536,2.014,-1.281,2.807,1
5.276946,0.636,0.545,0.525,1.525,-1.525,2.929,1
5.284342,0.639,0.548,0.519,0.915,-2.136,2.868,1
5.291994,0.634,0.552,0.518,1.525,-2.868,2.868,1
5.301337,0.634,0.563,0.522,1.281,-3.173,2.746,1
5.308296,0.631,0.562,0.529,0.61,-3.417,2.685,1
5.317576,0.635,0.562,0.532,0.488,-3.479,2.502,1
5.324537,0.632,0.563,0.538,0.732,-3.967,2.624,1
5.333304,0.629,0.566,0.545,0.854,-4.516,2.38,1
5.340713,0.626,0.567,0.546,0.488,-4.516,2.258,1
5.348396,0.629,0.567,0.558,0.427,-4.76,2.38,1
5.356452,0.629,0.567,0.559,1.77,-4.882,1.953,1
5.363305,0.624,0.568,0.57,2.563,-5.187,1.77,1
5.372193,0.631,0.563,0.572,2.502,-5.004,1.953,1
5.379675,0.64,0.557,0.569,0.976,-4.943,1.647,1
5.386814,0.643,0.562,0.578,-0.427,-4.638,1.953,1
5.396018,0.638,0.562,0.578,-0.732,-4.821,1.953,1
5.403025,0.634,0.558,0.59,-1.403,-4.821,1.708,1
5.410801,0.64,0.551,0.591,-1.22,-5.004,1.647,1
5.419198,0.638,0.546,0.603,-0.671,-5.065,1.586,1
5.426276,0.637,0.539,0.612,0.244,-4.943,1.464,1
5.433806,0.636,0.528,0.616,0.732,-4.76,1.525,1
5.441471,0.634,0.519,0.619,1.281,-4.394,1.647,1
5.450474,0.634,0.502,0.619,1.159,-4.272,1.831,1
5.457556,0.639,0.489,0.622,0.244,-4.089,2.258,1
5.464863,0.64,0.476,0.626,0.915,-3.906,2.929,1
5.472465,0.633,0.473,0.643,2.746,-3.723,3.173,1
5.480176,0.614,0.459,0.646,4.272,-3.356,3.784,1
5.487573,0.604,0.443,0.653,3.479,-3.234,4.699,1
5.49615,0.599,0.431,0.666,2.685,-2.807,5.31,1
5.504188,0.598,0.411,0.679,1.586,-2.197,6.286,1
5.511365,0.59,0.384,0.688,0.671,-1.342,7.019,1
5.518702,0.589,0.354,0.697,0.366,-0.732,8.3,1
5.527279,0.601,0.319,0.703,-0.183,-0.244,9.338,1
5.533999,0.594,0.285,0.713,0.122,0.732,10.986,1
5.541614,0.594,0.257,0.733,1.831,1.464,12.756,1
5.550052,0.588,0.231,0.753,5.676,2.136,15.075,1
5.557534,0.577,0.208,0.782,8.544,2.685,17.639,1
5.564698,0.559,0.185,0.827,8.911,3.54,20.08,1
5.575548,0.577,0.153,0.889,10.803,4.638,22.094,1
5.581291,0.501,0.085,0.96,10.742,6.958,26.184,1
5.59118,0.533,0.018,1.044,2.929,8.728,29.052,1
5.59845,0.505,-0.041,1.172,0.61,11.352,32.836,1
5.605141,0.505,-0.128,1.341,7.812,13.854,37.048,1
5.612193,0.497,-0.222,1.492,20.812,16.54,41.687,1
5.62005,0.436,-0.334,1.687,31.127,20.324,47.79,1
5.628781,0.367,-0.425,1.929,38.452,25.756,54.809,1
5.636536,0.264,-0.495,2.265,52.551,34.057,63.964,1
5.643983,0.127,-0.56,2.576,66.711,41.87,72.875,1
5.653978,0.0,-0.606,2.906,77.026,51.574,82.153,1
5.661934,-0.185,-0.604,3.27,81.115,66.833,93.261,1
5.668836,-0.351,-0.592,3.541,78.491,81.97,103.149,1
5.678087,-0.475,-0.566,3.839,75.5,102.172,115.234,1
5.685605,-0.638,-0.525,4.069,76.721,121.276,125.427,1
5.694302,-0.744,-0.478,4.195,81.42,144.226,137.634,1
5.702211,-0.876,-0.405,4.313,87.463,164.611,147.766,1
5.709497,-1.057,-0.282,4.437,96.984,189.392,158.813,1
5.717223,-1.234,-0.153,4.514,100.219,211.914,167.48,1
5.726571,-1.428,-0.014,4.566,97.961,235.656,175.659,1
5.733676,-1.68,0.237,4.595,95.092,261.291,182.861,1
5.742082,-1.93,0.53,4.542,101.318,290.344,190.307,1
5.749106,-2.184,0.88,4.437,111.877,314.086,195.129,1
5.756407,-2.47,1.261,4.289,121.887,336.73,198.486,1
5.763988,-2.741,1.672,4.094,127.502,358.764,199.218,1
5.77228,-3.032,2.132,3.869,132.507,380.371,198.303,1
5.781776,-3.313,2.651,3.531,134.338,399.658,194.396,1
5.789078,-3.516,3.074,3.19,133.483,421.02,186.035,1
5.796208,-3.614,3.448,2.791,132.995,437.194,175.292,1
5.803529,-3.684,3.722,2.349,131.286,450.622,162.048,1
5.811297,-3.697,3.897,1.704,122.863,462.829,146.606,1
5.819007,-3.671,3.939,1.062,96.191,472.534,128.723,1
5.826694,-3.588,3.905,0.435,59.265,478.637,105.651,1
5.836307,-3.545,3.819,-0.121,39.184,477.233,84.228,1
5.843237,-3.418,3.649,-0.609,45.715,468.017,60.546,1
5.851239,-3.411,3.437,-0.855,67.077,460.144,43.518,1
5.858763,-3.395,3.188,-1.175,74.707,453.186,30.7,1
5.867923,-3.357,3.001,-1.459,62.744,445.739,19.592,1
5.875319,-3.279,2.821,-1.807,48.583,432.434,7.629,1
5.884399,-3.165,2.683,-2.023,52.673,420.532,-2.38,1
5.892692,-2.892,2.402,-2.407,53.649,405.029,-10.559,1
5.899524,-2.696,2.11,-2.541,40.527,388.122,-16.235,1
5.908596,-2.422,1.971,-2.796,24.353,371.52,-21.118,1
5.915085,-2.098,1.792,-2.899,24.353,351.867,-26.367,1
5.924556,-1.833,1.605,-3.02,21.484,332.336,-29.785,1
5.931996,-1.569,1.475,-3.146,7.507,313.476,-33.081,1
5.940968,-1.343,1.383,-3.23,1.403,291.381,-36.01,1
5.94893,-1.13,1.287,-3.281,-2.624,270.141,-39.062,1
5.956031,-0.914,1.166,-3.269,-3.906,249.572,-41.931,1
5.964248,-0.77,1.039,-3.226,-0.183,225.463,-44.799,1
5.972838,-0.574,0.863,-3.119,-0.244,203.124,-45.715,1
5.98168,-0.402,0.76,-3.012,0.244,184.509,-45.227,1
5.989379,-0.281,0.637,-2.843,1.281,164.001,-43.64,1
5.997141,-0.23,0.557,-2.637,4.272,148.437,-41.931,1
6.006309,-0.087,0.461,-2.414,15.686,134.887,-39.001,1
6.015005,0.021,0.374,-2.309,11.23,121.032,-34.423,1
6.022475,0.092,0.358,-2.193,8.117,109.924,-30.578,1
6.029719,0.163,0.33,-2.115,7.568,97.29,-26.794,1
6.037647,0.191,0.327,-2.043,8.85,86.669,-23.559,1
6.044434,0.213,0.338,-1.994,17.089,75.622,-20.385,1
6.052159,0.255,0.344,-1.944,26.672,64.27,-17.395,1
6.0607,0.274,0.341,-1.891,28.625,53.833,-14.282,1
6.069069,0.294,0.333,-1.812,21.789,44.494,-11.23,1
6.07675,0.321,0.359,-1.704,8.3,34.667,-7.568,1
6.085989,0.337,0.381,-1.595,-0.854,27.16,-5.187,1
6.092985,0.353,0.398,-1.47,-9.155,19.104,-2.136,1
6.10205,0.363,0.424,-1.375,-14.343,13.0,0.0,1
6.10889,0.394,0.469,-1.264,-10.742,6.347,1.708,1
6.116809,0.406,0.499,-1.182,1.342,-1.586,4.089,1
6.125819,0.409,0.51,-1.119,12.878,-7.934,5.737,1
6.133443,0.412,0.518,-1.036,19.836,-12.817,6.896,1
6.141486,0.429,0.522,-0.959,23.071,-17.456,8.422,1
6.148489,0.45,0.538,-0.896,24.475,-20.996,9.765,1
6.158023,0.469,0.557,-0.83,24.047,-23.559,11.108,1
6.165867,0.478,0.578,-0.773,23.803,-26.733,12.39,1
6.17295,0.478,0.602,-0.719,21.423,-28.564,13.122,1
6.180275,0.481,0.631,-0.672,16.113,-29.907,13.732,1
6.189224,0.501,0.671,-0.617,8.178,-30.7,14.343,1
6.196348,0.517,0.716,-0.572,-3.051,-30.883,14.282,1
6.205455,0.529,0.756,-0.536,-8.789,-31.188,13.488,1
6.213642,0.554,0.796,-0.503,-8.056,-31.738,12.573,1
6.221576,0.569,0.816,-0.494,-3.112,-32.897,11.657,1
6.229096,0.57,0.827,-0.472,4.516,-33.935,10.498,1
6.237858,0.578,0.833,-0.459,9.948,-35.034,9.338,1
6.245036,0.59,0.828,-0.435,14.099,-35.583,8.056,1
6.254156,0.598,0.826,-0.418,14.038,-35.461,6.713,1
6.261106,0.597,0.833,-0.407,12.695,-35.278,5.554,1
6.26869,0.601,0.849,-0.392,12.268,-35.034,4.333,1
6.277125,0.599,0.86,-0.376,12.878,-34.973,2.929,1
6.284013,0.601,0.856,-0.364,12.145,-34.667,1.342,1
6.291633,0.598,0.851,-0.351,8.483,-33.691,-0.488,1
6.300286,0.599,0.851,-0.336,3.112,-32.287,-1.892,1
6.308402,0.596,0.852,-0.342,1.77,-32.409,-3.784,1
6.316781,0.603,0.842,-0.318,2.197,-31.799,-5.065,1
6.323362,0.606,0.826,-0.309,3.051,-31.494,-6.164,1
6.332767,0.621,0.816,-0.292,6.652,-30.822,-6.958,1
6.339448,0.638,0.785,-0.287,7.446,-30.151,-8.056,1
6.346567,0.639,0.762,-0.284,3.295,-28.503,-8.666,1
6.355952,0.648,0.746,-0.282,-2.319,-27.282,-8.666,1
6.362872,0.664,0.744,-0.267,-6.103,-26.123,-8.972,1
6.371475,0.673,0.744,-0.262,-7.019,-25.085,-8.911,1
6.378512,0.679,0.737,-0.256,-7.324,-23.742,-9.033,1
6.386662,0.682,0.732,-0.263,-10.192,-22.399,-8.666,1
6.395641,0.692,0.737,-0.263,-14.953,-20.812,-8.483,1
6.404357,0.699,0.74,-0.272,-18.249,-19.348,-8.361,1
6.411433,0.695,0.744,-0.288,-19.165,-19.042,-8.117,1
6.420354,0.687,0.74,-0.3,-19.653,-18.005,-8.483,1
6.428433,0.689,0.734,-0.317,-21.362,-17.761,-8.483,1
6.437573,0.679,0.737,-0.314,-20.751,-17.456,-8.483,1
6.444537,0.677,0.728,-0.313,-19.165,-17.395,-8.911,1
6.453429,0.684,0.715,-0.318,-16.54,-17.639,-9.277,1
6.461289,0.679,0.702,-0.317,-14.16,-17.578,-9.521,1
6.469922,0.674,0.687,-0.317,-13.671,-17.578,-9.948,1
6.477492,0.676,0.687,-0.321,-13.427,-17.7,-10.131,1
6.485707,0.675,0.678,-0.321,-14.526,-17.944,-10.253,1
6.493291,0.68,0.675,-0.33,-16.418,-18.249,-10.559,1
6.501356,0.682,0.661,-0.329,-18.188,-18.493,-10.681,1
6.510743,0.685,0.661,-0.33,-18.737,-18.859,-10.498,1
6.518038,0.682,0.657,-0.323,-17.517,-19.165,-10.498,1
6.527449,0.681,0.645,-0.314,-16.357,-19.348,-10.192,1
6.534821,0.687,0.631,-0.302,-15.869,-19.287,-9.826,1
6.542567,0.681,0.624,-0.278,-14.404,-18.554,-9.887,1
6.551655,0.684,0.616,-0.264,-9.765,-18.859,-9.887,1
6.559584,0.691,0.589,-0.23,-4.821,-18.127,-9.399,1
6.568185,0.699,0.575,-0.216,-3.54,-17.395,-8.728,1
6.575379,0.706,0.568,-0.202,-3.479,-16.479,-8.056,1
6.584493,0.722,0.567,-0.189,-3.54,-15.563,-7.873,1
6.592674,0.728,0.566,-0.173,-2.929,-14.465,-7.263,1
6.599805,0.731,0.548,-0.175,-3.906,-13.0,-6.591,1
6.609308,0.739,0.544,-0.188,-7.324,-11.779,-5.981,1
6.616182,0.738,0.535,-0.201,-10.498,-10.681,-4.943,1
6.62508,0.754,0.524,-0.222,-13.244,-9.155,-4.089,1
6.633934,0.764,0.522,-0.258,-14.892,-8.056,-2.929,1
6.641048,0.757,0.525,-0.29,-14.77,-7.69,-1.708,1
6.650391,0.752,0.542,-0.324,-12.329,-7.812,-0.488,1
6.657492,0.742,0.581,-0.32,-6.103,-8.972,0.366,1
6.665251,0.727,0.608,-0.317,0.488,-9.887,0.915,1
6.673848,0.702,0.616,-0.309,2.258,-10.437,1.037,1
6.681934,0.684,0.624,-0.287,1.831,-10.803,1.037,1
6.689048,0.674,0.628,-0.259,3.601,-10.986,0.732,1
6.696561,0.673,0.628,-0.251,8.178,-10.925,0.549,1
6.705522,0.678,0.618,-0.242,11.84,-10.803,0.488,1
6.712685,0.667,0.603,-0.254,13.061,-10.131,0.427,1
6.719963,0.666,0.584,-0.263,12.39,-9.704,0.488,1
6.727769,0.665,0.576,-0.273,11.535,-9.155,1.098,1
6.737095,0.667,0.582,-0.271,11.718,-9.094,1.77,1
6.745547,0.657,0.597,-0.235,10.742,-8.911,2.868,1
6.752993,0.653,0.61,-0.209,6.53,-8.728,3.662,1
6.762235,0.653,0.623,-0.178,-0.366,-7.812,4.394,1
6.769224,0.659,0.636,-0.162,-7.507,-5.92,4.943,1
6.777984,0.668,0.645,-0.153,-10.986,-4.638,5.065,1
6.784753,0.67,0.646,-0.144,-10.437,-2.868,5.432,1
6.793261,0.676,0.651,-0.146,-8.117,-1.77,5.126,1
6.801786,0.679,0.651,-0.152,-5.615,-0.427,5.432,1
6.808841,0.681,0.655,-0.163,-2.563,0.61,5.615,1
6.81633,0.677,0.658,-0.186,-0.061,1.403,5.676,1
6.82554,0.677,0.666,-0.195,3.601,2.319,5.493,1
6.832901,0.671,0.677,-0.203,7.446,2.441,5.493,1
6.839696,0.666,0.685,-0.202,10.559,2.868,5.493,1
6.84786,0.67,0.679,-0.205,11.779,3.295,5.126,1
6.855748,0.666,0.674,-0.209,10.009,4.15,5.004,1
6.864214,0.665,0.66,-0.214,7.385,5.371,4.821,1
6.870921,0.668,0.659,-0.229,4.638,5.981,4.943,1
6.878544,0.677,0.663,-0.243,1.708,6.958,5.065,1
6.886133,0.683,0.661,-0.257,-1.525,7.812,5.126,1
6.895299,0.687,0.665,-0.274,-4.394,8.361,5.126,1
6.903609,0.694,0.667,-0.289,-5.737,8.728,5.371,1
6.911069,0.702,0.666,-0.299,-5.92,8.789,5.371,1
6.91839,0.696,0.664,-0.298,-4.699,8.422,5.554,1
6.925513,0.678,0.676,-0.306,-2.319,8.544,5.859,1
6.934749,0.68,0.678,-0.307,-0.549,8.422,5.737,1
6.941956,0.677,0.691,-0.307,3.112,8.361,6.103,1
6.949487,0.675,0.69,-0.314,5.859,8.3,6.103,1
6.957128,0.669,0.692,-0.317,6.286,8.544,6.103,1
6.967014,0.672,0.695,-0.315,5.371,8.911,5.859,1
6.974011,0.666,0.709,-0.323,3.845,8.972,5.615,1
6.980751,0.67,0.711,-0.335,1.892,9.216,5.554,1
6.988406,0.666,0.715,-0.345,-1.831,9.094,5.187,1
6.996206,0.664,0.71,-0.348,-4.882,9.338,4.821,1
7.004079,0.665,0.708,-0.356,-7.507,9.216,4.394,1
7.01277,0.663,0.706,-0.359,-7.934,8.85,4.333,1
7.020036,0.664,0.705,-0.365,-6.347,8.544,4.272,1
7.02764,0.669,0.715,-0.37,-3.784,7.873,4.455,1
7.035793,0.661,0.724,-0.379,-1.892,7.263,4.15,1
7.044963,0.663,0.722,-0.38,-2.746,6.835,3.845,1
7.052504,0.66,0.727,-0.368,-4.516,6.774,3.417,1
7.059496,0.671,0.729,-0.368,-6.53,6.408,3.051,1
7.067258,0.671,0.731,-0.356,-8.605,6.469,2.563,1
7.075031,0.669,0.736,-0.354,-9.887,6.225,2.197,1
7.084039,0.675,0.744,-0.348,-10.498,6.164,1.708,1
7.09107,0.677,0.752,-0.345,-10.314,5.737,1.342,1
7.099296,0.679,0.754,-0.339,-10.62,5.798,0.854,1
7.107605,0.687,0.75,-0.345,-11.962,5.615,0.61,1
7.114428,0.689,0.75,-0.346,-12.939,5.432,0.122,1
7.122454,0.682,0.748,-0.346,-13.793,5.737,-0.549,1
7.1301,0.683,0.75,-0.349,-14.404,5.615,-0.915,1
7.138702,0.681,0.759,-0.345,-13.305,5.432,-1.403,1
7.145873,0.682,0.759,-0.342,-12.39,5.249,-1.892,1
7.154225,0.67,0.761,-0.341,-10.681,5.92,-2.502,1
7.162066,0.666,0.757,-0.334,-10.437,5.676,-3.173,1
7.170793,0.657,0.753,-0.321,-11.047,6.042,-3.784,1
7.178074,0.66,0.759,-0.309,-10.803,6.164,-4.272,1
7.185833,0.656,0.749,-0.308,-10.986,6.835,-5.065,1
7.194707,0.663,0.753,-0.309,-12.512,7.263,-5.432,1
7.203565,0.663,0.75,-0.319,-13.488,7.568,-5.981,1
7.210645,0.666,0.75,-0.321,-14.099,8.239,-6.591,1
7.218232,0.666,0.745,-0.333,-13.427,8.361,-7.202,1
7.227088,0.654,0.735,-0.349,-11.962,8.605,-7.69,1
7.235065,0.656,0.716,-0.362,-11.962,8.972,-8.361,1
7.243684,0.661,0.709,-0.368,-11.901,9.094,-8.789,1
7.250688,0.645,0.699,-0.378,-11.352,9.033,-9.033,1
7.258449,0.666,0.687,-0.385,-8.605,8.85,-9.216,1
7.266279,0.657,0.675,-0.405,-5.371,8.422,-9.216,1
7.275327,0.654,0.654,-0.421,-3.112,8.3,-9.338,1
7.282819,0.652,0.628,-0.433,-3.234,7.873,-9.277,1
7.290854,0.654,0.601,-0.45,-6.286,7.812,-9.033,1
7.298646,0.661,0.585,-0.459,-10.253,7.263,-8.666,1
7.306379,0.66,0.578,-0.458,-11.901,6.286,-7.751,1
7.315954,0.658,0.573,-0.456,-10.009,5.798,-7.263,1
7.323045,0.654,0.566,-0.461,-7.08,4.882,-6.347,1
7.329901,0.654,0.552,-0.46,-5.371,4.272,-5.859,1
7.337633,0.655,0.543,-0.461,-4.211,3.54,-4.882,1
7.345281,0.659,0.542,-0.465,-3.479,3.112,-4.028,1
7.354254,0.664,0.548,-0.459,-1.098,2.441,-3.356,1
7.361478,0.655,0.55,-0.458,1.098,1.77,-2.685,1
7.370448,0.645,0.549,-0.458,2.868,1.22,-2.075,1
7.378232,0.641,0.536,-0.459,2.99,0.854,-1.403,1
7.385618,0.64,0.533,-0.465,2.014,0.488,-0.732,1
7.392887,0.643,0.529,-0.459,0.61,0.0,0.0,1
7.402161,0.638,0.533,-0.457,-0.061,-0.427,0.732,1
7.410818,0.64,0.538,-0.449,0.427,-0.549,1.525,1
7.417984,0.636,0.547,-0.443,1.708,-1.037,2.319,1
7.426991,0.643,0.562,-0.444,2.99,-1.831,3.051,1
7.433793,0.653,0.568,-0.435,3.173,-2.319,3.662,1
7.441449,0.656,0.576,-0.425,2.868,-2.807,4.455,1
7.448744,0.656,0.587,-0.418,2.807,-3.173,4.394,1
7.4579,0.66,0.595,-0.401,3.356,-3.051,5.004,1
7.465003,0.66,0.598,-0.395,3.173,-3.356,5.126,1
7.473085,0.658,0.615,-0.385,2.685,-3.234,5.371,1
7.481869,0.656,0.622,-0.372,1.464,-2.868,5.615,1
7.490463,0.67,0.638,-0.364,1.403,-2.685,5.92,1
7.497658,0.676,0.659,-0.36,2.197,-2.99,5.859,1
7.506243,0.679,0.672,-0.348,2.99,-2.807,5.676,1
7.51341,0.682,0.674,-0.345,2.868,-2.258,5.432,1
7.520874,0.678,0.678,-0.338,1.281,-2.319,5.187,1
7.529782,0.679,0.688,-0.328,-0.549,-1.77,4.882,1
7.536927,0.682,0.694,-0.317,-1.525,-1.464,4.699,1
7.545447,0.682,0.708,-0.315,-1.708,-0.915,4.272,1
7.554287,0.687,0.717,-0.314,-1.159,-0.427,3.906,1
7.560741,0.684,0.725,-0.312,-0.671,0.183,3.54,1
7.569982,0.682,0.729,-0.315,-0.854,0.854,3.234,1
7.577678,0.684,0.729,-0.324,-1.647,1.22,2.563,1
7.584884,0.684,0.733,-0.325,-1.831,1.708,2.258,1
7.593266,0.682,0.734,-0.339,-2.075,1.953,1.831,1
7.601321,0.672,0.725,-0.345,-2.014,2.441,1.342,1
7.608514,0.671,0.724,-0.354,-2.319,2.563,0.915,1
7.617042,0.663,0.716,-0.363,-2.319,2.868,0.305,1
7.625081,0.659,0.713,-0.365,-1.037,2.807,-0.061,1
7.632096,0.653,0.704,-0.375,-0.366,2.929,-0.427,1
7.640958,0.647,0.695,-0.373,0.305,2.746,-0.732,1
7.648322,0.645,0.692,-0.38,0.488,2.563,-0.915,1
7.656647,0.645,0.682,-0.379,1.098,2.563,-1.281,1
7.665001,0.647,0.675,-0.384,2.197,2.502,-1.586,1
7.672929,0.646,0.658,-0.387,2.563,2.38,-1.586,1
7.680062,0.644,0.65,-0.389,1.77,2.441,-1.464,1
7.687549,0.651,0.642,-0.396,0.732,2.563,-1.831,1
7.696345,0.651,0.638,-0.399,0.122,2.502,-1.159,1
7.703656,0.647,0.631,-0.4,0.061,2.38,-1.098,1
7.711188,0.645,0.63,-0.398,0.793,2.136,-0.61,1
7.718982,0.65,0.627,-0.398,1.586,2.136,-0.305,1
7.726547,0.65,0.63,-0.397,1.647,2.136,0.122,1
7.735638,0.649,0.631,-0.408,1.281,2.075,0.366,1
7.742605,0.648,0.633,-0.407,1.281,2.258,0.671,1
7.749936,0.65,0.636,-0.417,1.159,2.197,0.61,1
7.757638,0.642,0.633,-0.424,0.671,2.014,0.61,1
7.766249,0.641,0.626,-0.431,0.244,1.77,0.854,1
7.774287,0.639,0.625,-0.437,0.671,1.586,1.037,1
7.782431,0.646,0.632,-0.445,1.892,0.915,1.159,1
7.789255,0.644,0.635,-0.443,2.441,0.366,1.159,1
7.79708,0.647,0.632,-0.437,2.258,-0.305,1.464,1
7.806102,0.647,0.637,-0.432,1.831,-0.488,1.586,1
7.813174,0.655,0.631,-0.421,1.098,-0.915,1.708,1
7.821282,0.651,0.632,-0.418,0.61,-0.976,1.831,1
7.829417,0.655,0.638,-0.411,0.488,-0.854,2.014,1
7.838053,0.657,0.647,-0.404,1.281,-1.342,2.197,1
7.845603,0.659,0.663,-0.394,2.99,-1.77,2.624,1
7.854564,0.66,0.673,-0.385,4.15,-1.525,2.38,1
7.862888,0.666,0.68,-0.378,4.516,-1.464,2.441,1
7.871161,0.666,0.687,-0.366,4.882,-1.525,2.136,1
7.878447,0.656,0.685,-0.358,4.943,-1.22,2.075,1
7.885819,0.657,0.69,-0.354,3.967,-0.915,1.892,1
7.895041,0.652,0.691,-0.358,3.417,-0.427,1.708,1
7.901735,0.656,0.697,-0.358,3.662,-0.061,1.464,1
7.909583,0.656,0.699,-0.356,4.455,-0.061,1.22,1
7.916577,0.655,0.701,-0.356,4.821,-0.244,0.976,1
7.925004,0.654,0.703,-0.351,4.638,-0.061,0.671,1
7.931767,0.65,0.696,-0.346,4.211,0.244,0.671,1
7.940219,0.656,0.695,-0.341,4.089,0.244,0.183,1
7.948264,0.655,0.698,-0.333,4.211,0.305,0.0,1
7.95691,0.661,0.697,-0.322,4.211,0.488,-0.122,1
7.963534,0.673,0.69,-0.318,3.906,0.854,-0.427,1
7.971912,0.669,0.682,-0.307,3.051,1.647,-0.61,1
7.980015,0.664,0.677,-0.301,3.356,2.014,-0.427,1
7.98839,0.664,0.677,-0.304,4.15,2.99,-0.488,1
7.995806,0.667,0.673,-0.296,5.371,3.173,-0.305,1
8.002431,0.665,0.674,-0.289,6.225,4.028,-0.427,1
8.011098,0.661,0.673,-0.291,7.446,4.943,-0.488,1
8.018754,0.669,0.672,-0.308,8.178,5.432,-0.366,1
8.027861,0.667,0.671,-0.32,8.239,5.981,-0.671,1
8.034868,0.663,0.669,-0.332,8.056,6.103,-0.732,1
8.043831,0.654,0.671,-0.338,7.202,6.347,-0.915,1
8.050837,0.658,0.67,-0.349,6.286,6.53,-1.037,1
8.060063,0.664,0.666,-0.355,4.882,6.53,-1.159,1
8.066576,0.675,0.656,-0.352,2.868,6.469,-1.22,1
8.074317,0.676,0.655,-0.342,1.525,6.347,-0.976,1
8.082374,0.687,0.659,-0.333,1.342,6.469,-0.854,1
8.091729,0.69,0.663,-0.326,2.319,6.591,-0.61,1
8.098482,0.689,0.666,-0.318,2.868,6.958,-0.122,1
8.10747,0.694,0.646,-0.315,-0.305,7.507,0.549,1
8.113755,0.67,0.638,-0.311,-11.84,9.826,2.258,1
8.121557,0.643,0.713,-0.317,-14.892,10.925,1.403,1
8.130323,0.658,0.727,-0.328,-7.812,10.498,0.0,1
8.139539,0.656,0.729,-0.334,3.479,9.887,-0.549,1
8.146656,0.666,0.723,-0.349,10.803,9.46,-1.464,1
8.153676,0.662,0.723,-0.358,10.375,9.521,-2.075,1
8.162628,0.663,0.712,-0.368,6.042,9.887,-2.807,1
8.170862,0.661,0.709,-0.373,1.831,10.314,-3.356,1
8.178026,0.656,0.719,-0.375,0.915,10.07,-3.295,1
8.186534,0.666,0.738,-0.369,6.469,9.582,-3.234,1
8.194396,0.638,0.754,-0.373,21.362,8.483,-3.051,1
8.202638,0.661,0.75,-0.372,27.343,8.239,-3.54,1
8.211191,0.671,0.754,-0.378,29.785,8.544,-3.906,1
8.218039,0.665,0.757,-0.366,27.404,8.911,-4.821,1
8.225605,0.669,0.747,-0.362,22.949,9.643,-5.249,1
8.23332,0.658,0.748,-0.37,18.859,9.826,-5.92,1
8.242322,0.64,0.738,-0.335,16.662,10.314,-6.53,1
8.25003,0.655,0.732,-0.333,15.563,11.291,-7.324,1
8.25845,0.666,0.732,-0.313,14.953,11.474,-7.446,1
8.265438,0.681,0.737,-0.294,16.052,12.451,-7.568,1
8.273662,0.686,0.742,-0.285,15.319,13.427,-7.629,1
8.281465,0.67,0.744,-0.298,12.756,14.709,-7.934,1
8.29048,0.649,0.736,-0.312,8.3,15.502,-8.728,1
8.298445,0.618,0.725,-0.327,2.685,17.089,-8.728,1
8.305396,0.597,0.717,-0.332,1.098,17.578,-9.094,1
8.314824,0.571,0.687,-0.324,3.662,18.005,-8.85,1
8.321916,0.569,0.645,-0.318,7.324,18.859,-8.117,1
8.329329,0.549,0.611,-0.302,10.986,19.836,-7.446,1
8.337561,0.531,0.571,-0.296,14.709,21.911,-6.408,1
8.346484,0.51,0.537,-0.302,15.991,24.719,-5.065,1
8.353359,0.486,0.507,-0.342,8.239,28.991,-3.417,1
8.361376,0.435,0.482,-0.402,-1.953,33.325,-2.441,1
8.369992,0.357,0.441,-0.495,-13.0,36.804,-1.708,1
8.378139,0.253,0.347,-0.613,-27.709,41.87,0.0,1
8.385544,0.153,0.24,-0.75,-41.32,45.898,2.563,1
8.392775,0.067,0.077,-0.946,-50.781,48.828,6.713,1
8.401573,0.032,-0.09,-1.139,-55.297,51.086,13.0,1
8.410151,0.008,-0.302,-1.37,-60.852,52.062,20.141,1
8.419068,-0.102,-0.541,-1.729,-76.416,52.917,29.479,1
8.425875,-0.257,-0.731,-2.128,-110.473,51.513,42.846,1
8.435055,-0.417,-0.867,-2.687,-146.301,46.569,58.41,1
8.443949,-0.575,-0.988,-3.187,-165.954,37.658,73.486,1
8.451216,-0.791,-1.162,-3.86,-179.199,20.996,93.933,1
8.459764,-0.926,-1.342,-4.445,-185.913,1.342,114.074,1
8.468638,-1.147,-1.535,-5.085,-181.335,-27.648,139.465,1
8.476959,-1.304,-1.656,-5.548,-170.349,-56.884,163.024,1
8.484162,-1.496,-1.694,-6.029,-161.376,-97.595,190.856,1
8.493083,-1.78,-1.59,-6.34,-141.906,-142.456,217.407,1
8.501155,-2.043,-1.444,-6.526,-126.464,-184.265,238.708,1
8.510126,-2.369,-1.152,-6.531,-114.99,-235.717,262.329,1
8.517702,-2.678,-0.78,-6.378,-108.947,-280.029,280.822,1
8.525893,-3.104,-0.231,-6.07,-102.05,-330.688,299.316,1
8.534419,-3.673,0.432,-5.665,-88.684,-381.408,312.927,1
8.543308,-4.228,1.056,-5.215,-72.875,-421.752,320.983,1
8.551835,-4.925,1.809,-4.6,-65.673,-459.594,324.279,1
8.558911,-5.346,2.459,-3.974,-49.621,-497.619,320.8,1
8.566713,-6.011,3.237,-3.152,2.746,-536.193,308.776,1
8.575302,-6.186,3.826,-2.425,61.096,-567.321,288.879,1
8.582689,-6.261,4.23,-1.557,96.069,-591.674,261.352,1
8.591425,-6.33,4.632,-0.288,91.674,-604.858,226.257,1
8.598613,-6.121,4.914,0.665,76.477,-606.75,183.898,1
8.606824,-5.901,5.081,1.653,83.801,-600.769,146.606,1
8.615452,-5.547,5.009,2.434,96.313,-588.134,108.154,1
8.622816,-5.116,4.846,3.267,102.05,-566.589,63.659,1
8.630788,-4.802,4.575,3.69,107.36,-540.405,27.954,1
8.637912,-4.378,4.368,3.969,116.149,-519.042,-6.042,1
8.647232,-4.028,4.143,4.359,141.662,-491.394,-38.635,1
8.654088,-3.568,3.692,4.564,147.949,-455.322,-74.768,1
8.663152,-3.038,3.221,4.704,127.929,-420.593,-101.196,1
8.671526,-2.468,2.738,4.691,100.341,-377.441,-126.525,1
8.6789,-2.113,2.38,4.729,82.153,-343.322,-143.493,1
8.687013,-1.698,1.933,4.641,78.247,-302.368,-158.996,1
8.696429,-1.444,1.574,4.606,78.002,-269.042,-169.433,1
8.703089,-1.081,1.129,4.517,77.941,-235.168,-177.124,1
8.711182,-0.887,0.764,4.447,70.617,-201.232,-181.335,1
8.718837,-0.712,0.458,4.27,50.17,-160.949,-182.067,1
8.726998,-0.55,0.232,4.066,30.639,-128.479,-179.199,1
8.736191,-0.375,0.02,3.69,8.85,-95.153,-174.133,1
8.744078,-0.255,-0.081,3.34,-5.615,-70.434,-169.067,1
8.751166,-0.107,-0.2,2.912,-16.662,-52.368,-162.597,1
8.761184,-0.021,-0.279,2.616,-24.414,-33.935,-154.235,1
8.767886,0.061,-0.348,2.264,-33.508,-18.798,-145.507,1
8.776118,0.126,-0.36,2.017,-39.001,-8.117,-138.366,1
8.785038,0.207,-0.362,1.761,-42.114,-0.976,-131.286,1
8.793391,0.298,-0.366,1.587,-44.311,6.164,-123.046,1
8.800666,0.337,-0.382,1.466,-43.945,10.62,-115.722,1
8.809121,0.356,-0.38,1.346,-39.489,15.075,-106.445,1
8.81635,0.36,-0.363,1.232,-35.095,17.639,-98.083,1
8.824724,0.383,-0.346,1.12,-31.86,20.202,-89.294,1
8.833656,0.41,-0.319,0.999,-33.02,21.85,-79.406,1
8.840688,0.413,-0.288,0.932,-34.362,23.315,-71.228,1
8.849928,0.406,-0.227,0.865,-30.7,24.597,-61.706,1
8.856947,0.434,-0.196,0.791,-26.062,25.573,-54.016,1
8.864218,0.471,-0.152,0.709,-23.498,26.306,-46.813,1
8.873143,0.483,-0.08,0.648,-21.362,27.282,-40.222,1
8.882035,0.478,0.002,0.587,-19.958,27.832,-34.24,1
8.88926,0.487,0.069,0.551,-18.493,27.893,-30.029,1
8.896164,0.491,0.145,0.509,-17.272,28.198,-26.062,1
8.90429,0.509,0.195,0.482,-17.639,27.893,-23.071,1
8.912826,0.519,0.238,0.47,-16.601,27.893,-20.568,1
8.919717,0.52,0.28,0.455,-16.723,27.709,-18.493,1
8.927141,0.53,0.312,0.444,-20.812,28.259,-16.845,1
8.935614,0.555,0.349,0.425,-27.648,29.052,-15.686,1
8.943153,0.572,0.39,0.407,-33.264,29.357,-14.099,1
8.952215,0.604,0.428,0.388,-33.874,29.174,-13.488,1
8.960041,0.643,0.457,0.38,-28.381,28.015,-13.0,1
8.967164,0.662,0.468,0.376,-18.31,26.672,-12.634,1
8.976505,0.676,0.455,0.373,-10.253,25.756,-12.39,1
8.984741,0.691,0.445,0.356,-6.225,25.207,-11.352,1
8.992332,0.712,0.443,0.337,-4.943,24.414,-10.437,1
8.999464,0.707,0.459,0.324,-3.356,23.498,-9.277,1
9.008427,0.716,0.459,0.317,-2.746,23.071,-8.422,1
9.016389,0.732,0.459,0.308,-3.784,22.521,-7.507,1
9.023329,0.74,0.466,0.317,-4.516,21.911,-6.835,1
9.032644,0.743,0.463,0.319,-6.164,22.216,-6.713,1
9.040058,0.751,0.46,0.314,-10.253,22.705,-6.53,1
9.047993,0.761,0.457,0.307,-16.662,23.132,-5.92,1
9.055106,0.765,0.466,0.293,-18.92,23.254,-5.493,1
9.064404,0.772,0.479,0.286,-15.93,22.521,-5.249,1
9.072864,0.779,0.503,0.275,-7.446,21.362,-4.638,1
9.079629,0.793,0.499,0.251,-0.427,19.775,-4.516,1
9.088459,0.807,0.488,0.231,2.868,18.31,-3.906,1
9.095354,0.806,0.479,0.218,2.319,17.639,-3.784,1
9.103581,0.819,0.473,0.21,0.61,16.54,-2.99,1
9.110075,0.83,0.466,0.206,2.197,15.441,-2.563,1
9.117575,0.843,0.458,0.205,4.943,14.038,-2.075,1
9.126066,0.841,0.452,0.208,7.263,13.488,-0.61,1
9.133211,0.834,0.456,0.219,7.202,13.549,0.61,1
9.140844,0.819,0.466,0.212,6.958,13.305,1.403,1
9.14798,0.803,0.482,0.215,7.324,13.244,2.014,1
9.155899,0.812,0.496,0.2,7.751,12.756,2.197,1
9.163903,0.83,0.497,0.187,6.164,12.329,2.929,1
9.171365,0.838,0.498,0.171,2.136,12.084,3.295,1
9.178803,0.838,0.503,0.165,-1.22,11.352,4.272,1
9.186263,0.866,0.522,0.177,-0.305,10.437,5.065,1
9.194879,0.877,0.535,0.181,1.22,9.338,5.615,1
9.202689,0.836,0.539,0.211,4.882,9.765,6.103,1
9.209467,0.838,0.555,0.207,8.789,9.094,6.347,1
9.216844,0.836,0.569,0.223,14.465,9.46,6.652,1
9.224121,0.829,0.585,0.212,19.714,8.85,6.896,1
9.23316,0.819,0.591,0.206,22.949,9.033,7.019,1
9.240593,0.812,0.588,0.185,20.874,9.399,6.713,1
9.248794,0.816,0.572,0.165,10.681,10.375,6.958,1
9.256304,0.812,0.567,0.142,-8.911,11.474,7.141,1
9.263426,0.817,0.574,0.141,-23.559,12.023,6.896,1
9.272255,0.823,0.604,0.149,-29.724,12.207,6.469,1
9.278737,0.825,0.62,0.163,-25.512,11.779,5.798,1
9.286423,0.833,0.621,0.168,-15.686,10.498,5.432,1
9.295007,0.835,0.621,0.164,-5.676,9.399,4.577,1
9.303123,0.825,0.604,0.16,1.037,8.483,4.394,1
9.31013,0.816,0.586,0.156,0.61,8.361,3.967,1
9.317595,0.812,0.584,0.145,-2.624,8.178,3.906,1
9.326362,0.808,0.591,0.149,-6.164,7.995,3.967,1
9.334389,0.816,0.592,0.14,-9.582,8.239,4.028,1
9.341514,0.82,0.583,0.136,-13.244,8.056,3.967,1
9.350662,0.828,0.584,0.127,-15.136,7.629,3.906,1
9.357565,0.829,0.586,0.12,-15.624,7.446,3.906,1
9.365338,0.821,0.588,0.106,-14.282,6.896,3.601,1
9.373675,0.828,0.583,0.091,-12.207,5.981,3.601,1
9.380617,0.835,0.582,0.079,-7.69,4.76,3.723,1
9.388918,0.832,0.579,0.082,-5.737,3.356,3.54,1
9.396113,0.81,0.587,0.105,-4.15,2.807,3.601,1
9.403487,0.805,0.588,0.113,-1.281,2.014,3.173,1
9.411517,0.806,0.585,0.125,-0.122,1.342,3.234,1
9.420868,0.796,0.576,0.134,-1.098,1.159,3.234,1
9.430927,0.78,0.585,0.133,-3.112,1.464,3.417,1
9.437918,0.781,0.58,0.13,-9.399,1.464,3.906,1
9.446924,0.778,0.588,0.123,-13.854,1.403,4.089,1
9.45455,0.781,0.588,0.12,-16.723,1.22,4.089,1
9.462205,0.784,0.59,0.11,-17.211,0.793,4.333,1
9.469612,0.786,0.601,0.117,-14.892,-0.305,4.638,1
9.478105,0.786,0.607,0.109,-11.047,-1.342,5.004,1
9.485015,0.786,0.609,0.109,-8.911,-2.319,5.371,1
9.493836,0.782,0.611,0.104,-7.568,-2.441,6.164,1
9.500362,0.779,0.608,0.079,-8.666,-3.601,6.713,1
9.508802,0.786,0.606,0.072,-12.695,-3.906,7.324,1
9.515808,0.78,0.606,0.066,-18.493,-4.272,8.3,1
9.52443,0.776,0.601,0.059,-23.925,-4.577,8.728,1
9.531438,0.782,0.595,0.051,-29.296,-5.31,8.972,1
9.540239,0.794,0.589,0.04,-32.531,-5.92,9.338,1
9.54828,0.813,0.589,0.037,-32.653,-6.896,9.155,1
9.555696,0.829,0.599,0.047,-30.212,-8.117,8.85,1
9.563581,0.813,0.572,0.054,-25.939,-8.544,8.85,1
9.571378,0.813,0.549,0.041,-21.24,-9.948,9.094,1
9.578548,0.786,0.52,0.046,-17.761,-11.291,9.338,1
9.585978,0.777,0.523,0.052,-14.526,-12.817,10.009,1
9.594796,0.755,0.53,0.072,-9.765,-14.16,10.681,1
9.601858,0.732,0.53,0.084,-3.479,-15.319,11.413,1
9.609591,0.722,0.545,0.091,2.502,-16.967,12.39,1
9.617657,0.718,0.557,0.101,6.408,-17.578,13.183,1
9.626483,0.711,0.568,0.103,9.094,-19.042,14.038,1
9.633031,0.706,0.587,0.125,11.657,-20.446,14.77,1
9.640689,0.693,0.604,0.147,14.343,-21.667,15.014,1
9.650014,0.684,0.625,0.185,17.7,-22.46,14.892,1
9.65667,0.693,0.646,0.217,20.874,-22.705,14.221,1
9.664564,0.699,0.657,0.248,21.85,-22.705,13.854,1
9.67158,0.694,0.657,0.275,21.423,-22.46,12.634,1
9.679197,0.702,0.669,0.294,20.751,-22.033,11.779,1
9.687862,0.705,0.675,0.306,21.179,-21.362,10.803,1
9.694865,0.713,0.683,0.334,22.644,-21.057,9.582,1
9.70244,0.71,0.68,0.341,27.099,-20.751,8.789,1
9.710051,0.71,0.667,0.355,29.174,-20.69,7.812,1
9.717761,0.728,0.667,0.37,29.724,-19.714,6.896,1
9.727194,0.751,0.665,0.397,29.663,-18.615,6.53,1
9.73428,0.781,0.687,0.424,28.503,-17.456,7.263,1
9.741622,0.731,0.72,0.471,28.381,-15.014,7.202,1
9.749223,0.747,0.731,0.468,31.372,-12.756,7.263,1
9.756886,0.755,0.739,0.467,27.893,-10.498,6.53,1
9.764808,0.79,0.741,0.445,19.714,-7.873,5.92,1
9.773162,0.803,0.755,0.432,7.69,-5.249,5.004,1
9.780185,0.805,0.773,0.42,0.61,-3.601,3.662,1
9.78831,0.811,0.778,0.401,-1.77,-2.929,2.746,1
9.795294,0.827,0.781,0.397,-2.136,-2.624,1.464,1
9.803935,0.823,0.771,0.402,-0.671,-2.624,0.244,1
9.810973,0.812,0.752,0.423,-0.427,-2.685,-1.098,1
9.819138,0.808,0.735,0.454,0.976,-2.502,-1.953,1
9.826542,0.81,0.724,0.479,4.577,-1.281,-2.685,1
9.835168,0.788,0.712,0.489,10.192,-0.366,-3.295,1
9.8426,0.781,0.698,0.485,17.517,1.098,-3.723,1
9.852214,0.777,0.681,0.466,23.071,2.075,-3.662,1
9.859488,0.775,0.662,0.44,26.0,3.601,-3.662,1
9.866479,0.758,0.657,0.405,28.747,4.455,-3.417,1
9.874122,0.742,0.657,0.38,30.395,5.249,-3.417,1
9.881635,0.73,0.656,0.35,32.226,5.798,-3.295,1
9.890218,0.723,0.653,0.313,32.958,5.676,-3.173,1
9.898456,0.724,0.64,0.277,32.531,6.103,-3.295,1
9.905401,0.723,0.621,0.242,28.137,5.859,-3.479,1
9.914352,0.742,0.584,0.2,15.563,5.554,-3.845,1
9.921276,0.753,0.541,0.176,-0.549,5.737,-4.089,1
9.930079,0.745,0.485,0.191,-27.221,5.126,-4.577,1
9.93755,0.653,0.48,0.165,-41.442,8.3,-3.845,1
9.946005,0.643,0.46,0.135,-51.33,7.568,-3.173,1
9.952989,0.648,0.438,0.106,-56.152,7.812,-2.197,1
9.962076,0.661,0.405,0.05,-61.401,6.958,-0.854,1
9.96917,0.708,0.374,0.009,-87.097,4.943,0.671,1
9.976579,0.734,0.38,0.038,-117.309,5.249,2.075,1
9.984707,0.713,0.43,0.063,-134.277,5.981,3.845,1
9.991992,0.674,0.483,0.082,-136.718,5.31,5.493,1
9.999479,0.657,0.532,0.113,-126.586,3.234,7.08,1
