timestamp_s,ax,ay,az,gx,gy,gz,label
0.004189,0.793,0.596,-0.122,1.281,5.92,0.549,1
0.01169,0.792,0.597,-0.131,1.037,5.493,0.732,1
0.020089,0.793,0.6,-0.134,0.976,5.126,0.976,1
0.027444,0.793,0.599,-0.14,0.732,4.577,0.976,1
0.035949,0.791,0.596,-0.152,0.488,3.845,0.915,1
0.042464,0.794,0.591,-0.162,0.244,3.234,1.159,1
0.050742,0.795,0.594,-0.161,0.427,2.685,1.342,1
0.057548,0.797,0.597,-0.164,1.647,1.647,1.586,1
0.065844,0.797,0.601,-0.164,3.479,0.793,1.708,1
0.07431,0.793,0.597,-0.162,5.249,-0.427,2.197,1
0.081834,0.784,0.588,-0.158,4.76,-1.098,2.38,1
0.090768,0.78,0.587,-0.16,2.624,-1.22,2.502,1
0.09773,0.781,0.586,-0.153,1.586,-2.014,2.929,1
0.10482,0.778,0.594,-0.143,2.929,-2.319,3.295,1
0.113067,0.78,0.591,-0.141,5.065,-3.234,3.54,1
0.120652,0.783,0.593,-0.139,6.53,-4.15,4.15,1
0.12875,0.779,0.589,-0.135,6.713,-4.516,4.089,1
0.137907,0.783,0.595,-0.128,7.08,-5.004,4.699,1
0.145276,0.779,0.604,-0.123,8.3,-5.615,5.004,1
0.152129,0.774,0.601,-0.113,9.094,-6.347,5.31,1
0.160275,0.778,0.602,-0.104,9.094,-6.408,5.676,1
0.167306,0.775,0.603,-0.1,7.995,-6.53,5.554,1
0.17567,0.773,0.604,-0.093,6.958,-6.713,5.798,1
0.184592,0.771,0.608,-0.084,6.53,-6.835,5.981,1
0.191682,0.777,0.607,-0.076,6.713,-7.019,6.469,1
0.20002,0.775,0.614,-0.073,7.202,-6.896,6.469,1
0.206951,0.773,0.614,-0.063,8.789,-7.202,6.652,1
0.215999,0.772,0.617,-0.054,11.108,-7.385,6.896,1
0.223013,0.776,0.618,-0.042,12.756,-7.446,6.774,1
0.231205,0.784,0.626,-0.038,14.099,-7.324,6.652,1
0.238531,0.784,0.633,-0.031,14.709,-7.141,6.835,1
0.247209,0.783,0.64,-0.032,13.977,-7.08,6.652,1
0.254386,0.785,0.645,-0.026,12.756,-6.591,6.591,1
0.263377,0.786,0.649,-0.021,10.62,-6.225,6.225,1
0.270467,0.787,0.657,-0.019,8.728,-6.103,5.859,1
0.27946,0.787,0.666,-0.014,7.751,-5.798,5.798,1
0.286361,0.792,0.672,-0.007,7.141,-5.432,5.31,1
0.295557,0.792,0.681,-0.006,7.385,-5.371,5.065,1
0.301778,0.795,0.684,0.0,7.934,-5.126,4.882,1
0.311193,0.801,0.686,0.004,8.972,-5.187,4.516,1
0.31831,0.808,0.689,0.013,9.094,-4.76,4.089,1
0.325837,0.809,0.698,0.015,8.544,-4.638,3.479,1
0.334788,0.816,0.704,0.013,7.995,-4.272,2.868,1
0.342298,0.822,0.714,0.016,8.3,-4.028,2.136,1
0.349835,0.827,0.723,0.016,9.765,-3.967,1.525,1
0.35759,0.831,0.729,0.023,10.62,-3.784,0.549,1
0.36469,0.831,0.729,0.028,10.559,-3.54,-0.061,1
0.373957,0.836,0.729,0.026,9.399,-3.54,-0.61,1
0.381857,0.835,0.727,0.03,7.812,-3.173,-1.22,1
0.389151,0.834,0.738,0.031,7.08,-2.807,-2.136,1
0.395996,0.837,0.745,0.037,7.202,-2.563,-2.746,1
0.405543,0.828,0.74,0.037,7.507,-2.563,-3.417,1
0.412615,0.822,0.736,0.038,7.08,-1.892,-4.394,1
0.420105,0.819,0.735,0.039,6.713,-1.708,-5.187,1
0.428971,0.814,0.727,0.04,6.469,-1.098,-5.737,1
0.436752,0.812,0.714,0.038,6.164,-0.793,-6.469,1
0.443566,0.806,0.705,0.032,5.859,-0.366,-6.958,1
0.452899,0.797,0.696,0.03,5.371,0.122,-7.446,1
0.459697,0.791,0.684,0.034,4.638,0.61,-7.995,1
0.468404,0.788,0.677,0.02,3.417,1.098,-8.3,1
0.475885,0.785,0.668,0.012,2.685,1.586,-8.85,1
0.483131,0.786,0.664,0.0,2.38,1.892,-8.85,1
0.491092,0.785,0.657,-0.014,2.441,1.77,-8.728,1
0.499596,0.779,0.649,-0.03,2.075,1.892,-9.033,1
0.507359,0.78,0.635,-0.036,1.342,1.708,-9.094,1
0.515493,0.771,0.628,-0.036,0.671,1.892,-9.033,1
0.523182,0.77,0.619,-0.044,1.098,1.647,-8.544,1
0.532283,0.766,0.607,-0.039,1.953,1.647,-8.3,1
0.539447,0.759,0.599,-0.04,2.319,1.77,-7.995,1
0.546853,0.755,0.589,-0.042,2.136,1.708,-7.751,1
0.554678,0.751,0.589,-0.047,1.831,1.953,-7.263,1
0.562258,0.75,0.583,-0.057,0.671,2.075,-6.896,1
0.570034,0.749,0.576,-0.063,-0.366,2.075,-6.347,1
0.579431,0.747,0.575,-0.07,-1.892,1.953,-5.798,1
0.586162,0.749,0.569,-0.073,-2.99,1.892,-5.187,1
0.593897,0.75,0.565,-0.079,-4.333,1.647,-4.76,1
0.602533,0.75,0.562,-0.084,-5.371,1.22,-3.662,1
0.609243,0.753,0.562,-0.081,-5.004,0.915,-3.112,1
0.616078,0.755,0.568,-0.086,-3.479,0.671,-2.685,1
0.624151,0.759,0.564,-0.078,-1.342,0.061,-2.075,1
0.63068,0.763,0.57,-0.079,0.366,-0.427,-1.281,1
0.637926,0.762,0.573,-0.087,1.281,-0.732,-0.854,1
0.645645,0.766,0.569,-0.083,0.671,-0.915,-0.61,1
0.653251,0.761,0.576,-0.083,-0.305,-1.22,0.183,1
0.661091,0.763,0.578,-0.081,-1.464,-1.464,0.732,1
0.667922,0.767,0.583,-0.081,-1.953,-1.831,0.915,1
0.676353,0.769,0.577,-0.075,-1.464,-2.197,1.281,1
0.683949,0.777,0.587,-0.074,-0.122,-2.563,1.403,1
0.690214,0.781,0.585,-0.066,1.22,-2.929,2.075,1
0.699115,0.783,0.587,-0.064,2.136,-2.929,2.38,1
0.70623,0.782,0.595,-0.059,2.38,-3.051,2.563,1
0.71317,0.783,0.596,-0.054,2.258,-3.234,3.051,1
0.719947,0.783,0.593,-0.046,1.037,-3.173,3.173,1
0.729358,0.785,0.599,-0.043,-0.427,-3.356,3.356,1
0.736653,0.789,0.605,-0.032,-1.647,-3.112,3.784,1
0.744007,0.782,0.61,-0.024,-1.831,-3.051,3.601,1
0.752368,0.784,0.614,-0.013,-1.892,-3.234,3.845,1
0.759333,0.786,0.616,-0.01,-1.159,-3.234,3.906,1
0.767694,0.789,0.625,-0.005,-0.488,-3.112,3.967,1
0.775428,0.793,0.625,0.0,0.671,-2.929,3.845,1
0.78431,0.79,0.626,-0.003,0.854,-2.685,3.723,1
0.792811,0.787,0.626,0.005,-0.122,-2.441,3.479,1
0.800612,0.785,0.632,0.001,-1.098,-2.075,3.723,1
0.808151,0.785,0.632,0.0,-2.014,-1.953,3.479,1
0.816529,0.788,0.633,0.004,-1.831,-1.647,3.417,1
0.823384,0.79,0.635,0.003,-0.915,-1.647,3.601,1
0.831573,0.787,0.634,0.0,-0.183,-1.525,3.417,1
0.839654,0.791,0.629,0.001,-0.549,-1.403,3.479,1
0.846762,0.788,0.627,0.0,-1.77,-1.159,3.479,1
0.855932,0.787,0.626,0.0,-2.624,-0.854,3.479,1
0.863031,0.79,0.628,0.0,-2.807,-0.732,3.601,1
0.870694,0.794,0.632,0.0,-1.831,-0.671,3.906,1
0.878177,0.793,0.638,-0.003,-0.305,-0.732,3.845,1
0.887206,0.796,0.637,-0.009,0.244,-0.732,4.028,1
0.895785,0.796,0.638,-0.009,0.305,-0.732,3.906,1
0.902956,0.795,0.642,-0.007,-0.122,-0.854,4.211,1
0.911887,0.798,0.646,-0.006,-0.732,-0.549,4.028,1
0.918688,0.796,0.646,-0.008,-0.854,-0.549,3.906,1
0.927712,0.798,0.646,-0.005,-0.61,-0.671,3.784,1
0.934776,0.802,0.649,-0.005,0.0,-0.488,3.906,1
0.943524,0.8,0.65,-0.002,1.403,-0.488,3.723,1
0.950338,0.801,0.652,0.0,1.953,-0.366,3.784,1
0.959248,0.796,0.658,0.0,2.441,-0.549,3.601,1
0.966144,0.795,0.661,0.0,2.136,-0.427,3.479,1
0.974228,0.795,0.668,0.0,0.854,-0.061,3.173,1
0.98218,0.796,0.669,-0.002,0.0,0.244,2.624,1
0.990368,0.791,0.674,-0.003,-0.488,0.183,2.258,1
0.997316,0.795,0.673,-0.002,-0.427,0.061,2.014,1
1.006205,0.799,0.673,0.0,0.183,0.0,1.464,1
1.013249,0.803,0.676,0.006,1.525,-0.061,1.098,1
1.021781,0.805,0.674,0.011,2.319,-0.122,0.671,1
1.029166,0.805,0.673,0.017,2.99,-0.122,0.244,1
1.035797,0.806,0.674,0.015,2.746,0.183,0.183,1
1.043057,0.806,0.679,0.018,1.953,0.671,-0.183,1
1.051849,0.8,0.672,0.015,1.159,0.671,-0.732,1
1.058755,0.804,0.675,0.016,0.488,0.915,-0.915,1
1.066545,0.8,0.677,0.017,0.488,1.159,-1.22,1
1.073697,0.801,0.678,0.01,0.671,1.403,-1.831,1
1.081253,0.795,0.685,0.012,0.61,1.342,-2.136,1
1.088049,0.797,0.676,0.007,0.61,1.525,-2.502,1
1.096028,0.8,0.677,0.008,0.61,1.464,-2.624,1
1.104257,0.796,0.676,0.0,0.244,1.525,-2.929,1
1.111156,0.796,0.667,0.004,-0.366,1.586,-3.479,1
1.11909,0.794,0.664,0.0,-0.488,1.586,-3.601,1
1.126931,0.791,0.663,-0.006,-0.793,1.464,-3.601,1
1.135497,0.799,0.657,-0.007,-0.305,1.403,-3.784,1
1.142695,0.795,0.652,-0.006,0.549,1.525,-3.784,1
1.151397,0.792,0.651,-0.011,2.075,1.708,-3.967,1
1.159819,0.794,0.645,-0.007,2.197,1.586,-3.906,1
1.166286,0.791,0.634,-0.012,2.319,1.77,-3.784,1
1.174435,0.789,0.628,-0.017,1.281,1.892,-3.784,1
1.18287,0.786,0.624,-0.02,-0.183,2.319,-3.784,1
1.192309,0.787,0.617,-0.027,-2.258,2.685,-3.723,1
1.199348,0.79,0.611,-0.034,-3.173,3.051,-3.662,1
1.207043,0.8,0.604,-0.04,-2.563,3.601,-3.295,1
1.215412,0.809,0.596,-0.043,-2.136,4.15,-3.234,1
1.224171,0.809,0.586,-0.049,-2.441,4.394,-2.441,1
1.232669,0.819,0.588,-0.061,-3.784,5.187,-2.075,1
1.239295,0.823,0.588,-0.069,-5.187,5.432,-1.098,1
1.247162,0.838,0.586,-0.08,-6.042,5.554,-0.244,1
1.255609,0.846,0.586,-0.098,-8.239,5.432,0.427,1
1.263228,0.838,0.592,-0.11,-13.244,5.249,1.281,1
1.272138,0.829,0.609,-0.123,-18.188,5.065,1.586,1
1.281107,0.817,0.625,-0.123,-20.69,4.76,1.77,1
1.288483,0.81,0.644,-0.128,-20.019,3.601,1.647,1
1.296456,0.796,0.652,-0.121,-16.113,2.807,1.586,1
1.304713,0.78,0.65,-0.115,-10.375,1.464,1.647,1
1.311824,0.766,0.649,-0.113,-5.859,0.305,1.647,1
1.321176,0.768,0.641,-0.113,-2.38,-0.305,1.525,1
1.32818,0.756,0.631,-0.108,-0.671,-1.281,1.281,1
1.336938,0.752,0.633,-0.108,-0.549,-1.831,1.403,1
1.344815,0.75,0.627,-0.102,-0.427,-2.075,0.976,1
1.352787,0.746,0.627,-0.096,-0.61,-2.38,1.098,1
1.361212,0.752,0.631,-0.086,-1.464,-2.502,0.854,1
1.368221,0.754,0.63,-0.081,-2.197,-2.502,0.732,1
1.377379,0.757,0.642,-0.07,-1.892,-2.807,0.488,1
1.38463,0.757,0.646,-0.06,0.122,-3.051,0.305,1
1.391531,0.762,0.644,-0.058,1.708,-3.356,0.122,1
1.400006,0.76,0.647,-0.052,2.014,-3.662,0.0,1
1.407955,0.761,0.644,-0.041,2.38,-3.662,-0.244,1
1.416694,0.763,0.645,-0.04,2.929,-3.662,-0.305,1
1.423449,0.768,0.644,-0.032,3.479,-4.028,-0.671,1
1.431971,0.774,0.641,-0.019,3.784,-4.089,-0.61,1
1.440801,0.787,0.642,-0.012,4.76,-3.906,-0.427,1
1.447893,0.797,0.649,-0.001,4.76,-3.723,-0.183,1
1.456646,0.81,0.657,0.006,4.882,-3.417,-0.488,1
1.464857,0.814,0.671,0.015,4.76,-2.807,-0.366,1
1.472196,0.815,0.683,0.019,5.493,-2.38,-0.793,1
1.480304,0.799,0.691,0.02,5.92,-2.136,-1.342,1
1.48891,0.784,0.7,0.022,5.859,-1.586,-1.831,1
1.495996,0.771,0.707,0.022,5.31,-1.403,-2.319,1
1.504249,0.745,0.705,0.032,4.028,-1.159,-3.234,1
1.513144,0.713,0.698,0.028,3.295,-0.61,-3.723,1
1.520515,0.705,0.694,0.033,2.136,-0.488,-4.638,1
1.528382,0.692,0.687,0.039,1.953,-0.183,-5.432,1
1.535105,0.69,0.675,0.041,1.586,0.183,-6.286,1
1.542599,0.74,0.656,0.041,0.915,0.488,-6.53,1
1.550439,0.713,0.644,0.04,0.061,0.366,-6.835,1
1.559565,0.713,0.635,0.046,1.525,1.525,-6.958,1
1.566621,0.757,0.62,0.033,3.784,1.708,-7.08,1
1.574452,0.8,0.605,0.021,5.737,2.502,-6.896,1
1.58235,0.802,0.589,0.017,5.126,2.38,-7.019,1
1.589963,0.772,0.584,0.02,4.15,3.112,-7.019,1
1.598127,0.789,0.588,-0.006,7.934,3.356,-6.896,1
1.606738,0.767,0.601,0.006,10.009,1.953,-6.591,1
1.61306,0.851,0.599,0.004,17.211,2.868,-6.225,1
1.619634,0.85,0.571,-0.017,18.737,0.122,-6.042,1
1.627868,0.775,0.573,0.005,14.038,1.708,-5.31,1
1.636128,0.767,0.562,-0.048,9.826,-0.183,-4.882,1
1.643034,0.833,0.566,-0.026,6.652,1.586,-4.211,1
1.651413,0.816,0.57,-0.046,6.713,-1.159,-3.784,1
1.660139,0.818,0.584,-0.037,15.136,-2.014,-2.868,1
1.667292,0.843,0.599,-0.059,22.888,-4.333,-2.563,1
1.675759,0.858,0.598,-0.061,30.273,-5.187,-1.647,1
1.68357,0.891,0.592,-0.074,31.677,-6.286,-1.342,1
1.692466,0.894,0.589,-0.074,30.517,-6.164,-0.732,1
1.699742,0.881,0.602,-0.081,24.536,-6.835,-0.305,1
1.708532,0.871,0.618,-0.072,19.714,-6.713,0.183,1
1.715743,0.855,0.616,-0.078,13.916,-7.568,0.305,1
1.723117,0.841,0.611,-0.053,8.911,-7.568,0.305,1
1.732294,0.826,0.62,-0.052,5.676,-8.117,0.061,1
1.738856,0.825,0.625,-0.042,5.432,-8.666,0.122,1
1.747234,0.841,0.632,-0.046,5.859,-9.277,-0.183,1
1.754832,0.839,0.647,-0.035,7.812,-9.643,-0.549,1
1.763097,0.847,0.657,-0.033,11.962,-10.742,-0.305,1
1.771676,0.855,0.659,-0.024,16.174,-11.352,-0.427,1
1.779589,0.859,0.662,-0.029,17.456,-12.145,-0.915,1
1.786528,0.858,0.662,-0.025,13.916,-11.901,-1.22,1
1.795852,0.861,0.671,-0.02,9.338,-11.596,-1.464,1
1.802617,0.865,0.678,-0.001,5.554,-11.108,-1.892,1
1.81176,0.86,0.683,-0.001,3.112,-10.62,-2.38,1
1.81816,0.852,0.694,0.027,0.915,-10.009,-3.051,1
1.827528,0.839,0.704,0.053,0.305,-9.521,-3.723,1
1.836251,0.84,0.714,0.079,1.708,-9.216,-4.333,1
1.843292,0.835,0.72,0.098,4.089,-8.789,-5.187,1
1.852356,0.838,0.73,0.12,3.662,-7.995,-5.737,1
1.85967,0.84,0.746,0.149,0.488,-6.591,-6.774,1
1.866901,0.847,0.781,0.177,-1.953,-5.554,-7.751,1
1.876338,0.849,0.833,0.237,-4.333,-3.967,-9.216,1
1.884815,0.864,0.867,0.288,-7.019,-2.319,-10.62,1
1.892986,0.888,0.927,0.362,-6.164,-0.61,-12.451,1
1.90001,0.872,0.971,0.414,-0.671,2.014,-15.441,1
1.90892,0.883,1.01,0.469,4.089,4.394,-18.249,1
1.915483,0.887,1.037,0.53,4.455,7.751,-21.362,1
1.922806,0.929,1.072,0.592,0.366,11.535,-24.78,1
1.930617,0.841,0.788,0.586,-19.531,17.395,-25.268,1
1.93928,1.146,1.187,0.713,-66.772,27.526,-31.127,1
1.947464,0.808,1.123,0.775,-66.284,31.616,-33.264,1
1.95508,0.927,1.25,0.851,-41.442,37.231,-39.245,1
1.9627,0.907,1.241,0.87,-3.051,39.855,-45.959,1
1.972127,0.899,1.197,0.875,11.474,45.898,-50.903,1
1.978381,0.889,1.173,0.851,5.004,52.062,-55.603,1
1.987364,0.882,1.178,0.847,-8.85,59.509,-60.424,1
1.993778,0.863,1.202,0.818,-18.249,65.917,-65.429,1
2.002289,0.839,1.209,0.795,-19.592,72.753,-72.021,1
2.009929,0.816,1.173,0.751,-17.395,78.186,-77.514,1
2.019077,0.808,1.135,0.717,-15.624,84.35,-83.801,1
2.027154,0.773,1.105,0.675,-17.578,89.782,-88.928,1
2.034555,0.747,1.072,0.625,-18.066,94.543,-94.055,1
2.042235,0.747,1.049,0.569,-13.183,99.182,-99.426,1
2.051491,0.752,1.025,0.496,-8.422,102.6,-103.881,1
2.058283,0.74,0.997,0.401,-6.042,106.201,-108.886,1
2.066624,0.732,0.982,0.322,-5.676,108.703,-112.792,1
2.074345,0.701,0.954,0.248,-5.31,109.985,-116.943,1
2.082608,0.682,0.908,0.178,-3.845,111.145,-120.666,1
2.090623,0.664,0.862,0.104,0.671,111.755,-125.183,1
2.097985,0.627,0.812,0.044,8.239,111.145,-128.234,1
2.106276,0.605,0.757,-0.024,17.822,110.473,-130.493,1
2.113523,0.59,0.72,-0.102,26.672,109.497,-132.873,1
2.120919,0.541,0.682,-0.171,33.752,108.215,-134.338,1
2.130629,0.528,0.647,-0.212,39.855,106.262,-135.681,1
2.137673,0.525,0.588,-0.261,42.053,105.285,-136.596,1
2.146274,0.504,0.55,-0.305,40.954,104.553,-137.084,1
2.153383,0.489,0.496,-0.353,41.687,102.783,-137.39,1
2.161768,0.517,0.458,-0.394,48.278,100.708,-136.901,1
2.170075,0.564,0.4,-0.426,58.959,97.656,-136.169,1
2.177325,0.562,0.361,-0.455,70.312,95.336,-135.131,1
2.186498,0.548,0.311,-0.475,75.256,93.261,-133.728,1
2.193781,0.54,0.26,-0.489,76.538,92.407,-132.263,1
2.201883,0.55,0.22,-0.504,73.059,90.698,-130.371,1
2.209708,0.53,0.197,-0.5,68.237,90.332,-127.99,1
2.217331,0.508,0.169,-0.514,64.697,89.843,-126.22,1
2.225074,0.492,0.139,-0.516,64.086,88.806,-124.572,1
2.232523,0.484,0.085,-0.518,66.711,87.951,-122.558,1
2.241037,0.477,0.035,-0.524,69.213,87.28,-120.117,1
2.249578,0.459,-0.012,-0.534,67.993,87.158,-117.614,1
2.257702,0.431,-0.051,-0.522,64.819,87.036,-115.417,1
2.265283,0.41,-0.086,-0.502,61.218,87.341,-111.755,1
2.273763,0.383,-0.117,-0.472,59.875,88.378,-109.497,1
2.280197,0.337,-0.144,-0.453,60.302,89.355,-106.384,1
2.288575,0.295,-0.178,-0.436,62.683,90.942,-103.515,1
2.296916,0.272,-0.203,-0.421,67.443,92.773,-99.853,1
2.306225,0.228,-0.249,-0.4,68.481,95.458,-96.435,1
2.313025,0.189,-0.29,-0.377,66.772,99.182,-91.979,1
2.321925,0.158,-0.326,-0.363,67.26,102.783,-87.951,1
2.330598,0.123,-0.372,-0.379,69.091,106.872,-82.885,1
2.337713,0.096,-0.416,-0.375,68.847,110.351,-78.247,1
2.34684,0.063,-0.464,-0.358,67.443,114.135,-72.448,1
2.353915,0.027,-0.497,-0.337,69.641,119.14,-65.917,1
2.362889,-0.025,-0.531,-0.306,75.012,123.596,-59.082,1
2.37115,-0.071,-0.594,-0.273,78.308,131.408,-50.903,1
2.380282,-0.148,-0.617,-0.271,78.43,139.404,-40.954,1
2.387294,-0.217,-0.636,-0.299,68.908,149.108,-32.592,1
2.395725,-0.277,-0.663,-0.436,45.288,159.24,-22.583,1
2.403885,-0.33,-0.706,-0.574,16.052,168.884,-14.16,1
2.412319,-0.365,-0.75,-0.697,-33.935,177.673,-4.577,1
2.421108,-0.267,-0.752,-0.791,-70.983,184.936,3.662,1
2.428338,-0.28,-0.738,-0.949,-79.284,186.096,11.962,1
2.436957,-0.304,-0.761,-1.074,-66.528,185.485,21.85,1
2.443596,-0.351,-0.799,-1.197,-56.945,182.8,31.066,1
2.453241,-0.412,-0.824,-1.261,-48.095,180.48,40.71,1
2.462435,-0.5,-0.822,-1.304,-31.738,176.269,53.344,1
2.469552,-0.583,-0.824,-1.293,-14.587,173.828,63.72,1
2.478335,-0.658,-0.831,-1.275,11.474,169.982,75.866,1
2.485526,-0.736,-0.874,-1.251,32.531,167.602,87.219,1
2.494649,-0.796,-0.944,-1.243,46.936,164.978,102.05,1
2.501633,-0.819,-1.0,-1.248,51.818,163.513,115.844,1
2.510674,-0.856,-1.054,-1.275,51.818,162.231,130.615,1
2.518624,-0.92,-1.074,-1.32,45.593,160.461,148.132,1
2.52623,-0.973,-1.086,-1.368,36.499,158.691,163.146,1
2.534719,-1.042,-1.082,-1.432,26.428,156.738,178.649,1
2.542207,-1.14,-1.058,-1.492,18.493,153.625,196.533,1
2.549438,-1.21,-1.046,-1.546,12.878,150.085,211.608,1
2.55849,-1.305,-1.015,-1.603,11.108,145.751,226.928,1
2.565922,-1.399,-0.972,-1.653,14.221,139.404,242.126,1
2.573532,-1.498,-0.95,-1.718,23.62,130.615,260.314,1
2.581767,-1.585,-0.945,-1.804,28.808,121.398,276.0,1
2.591157,-1.742,-0.943,-1.91,27.893,110.534,294.311,1
2.59806,-1.848,-0.926,-2.027,29.724,99.609,309.997,1
2.607264,-1.873,-0.94,-2.281,23.254,85.571,328.674,1
2.61488,-1.904,-0.927,-2.527,7.995,73.181,343.933,1
2.623583,-1.971,-0.871,-2.833,-6.774,57.556,358.154,1
2.630937,-2.091,-0.831,-3.211,-10.742,34.851,374.023,1
2.639764,-2.23,-0.808,-3.558,-1.098,9.826,388.061,1
2.647547,-2.399,-0.792,-3.938,29.663,-26.428,405.151,1
2.655243,-2.573,-0.8,-4.248,64.147,-64.025,418.823,1
2.663459,-2.81,-0.796,-4.499,90.393,-112.426,432.189,1
2.672418,-3.03,-0.637,-4.575,98.876,-154.357,442.321,1
2.679334,-3.306,-0.359,-4.551,107.91,-197.998,448.73,1
2.688011,-3.573,-0.079,-4.426,112.976,-247.436,453.063,1
2.69694,-3.88,0.249,-4.224,107.666,-295.654,452.941,1
2.704848,-4.171,0.597,-3.99,106.75,-334.594,449.768,1
2.713642,-4.463,1.017,-3.69,115.783,-379.455,440.856,1
2.720628,-4.741,1.341,-3.412,130.187,-417.175,429.199,1
2.729825,-5.001,1.669,-3.065,153.076,-460.815,411.437,1
2.736919,-5.209,1.946,-2.708,181.396,-497.924,392.517,1
2.746075,-5.402,2.327,-2.209,220.947,-539.672,367.614,1
2.753678,-5.55,2.745,-1.682,254.089,-572.509,341.918,1
2.761593,-5.633,3.273,-0.959,287.902,-599.182,310.18,1
2.769301,-5.739,3.7,-0.336,335.082,-622.924,265.502,1
2.778231,-5.577,4.006,0.245,367.37,-635.559,220.703,1
2.784754,-5.437,4.14,0.878,362.304,-641.54,172.485,1
2.792309,-5.016,4.166,1.579,319.702,-633.056,125.305,1
2.800297,-4.746,4.206,2.255,268.493,-615.051,81.115,1
2.808053,-4.394,4.145,2.926,230.407,-584.35,33.447,1
2.816724,-3.979,3.905,3.316,206.054,-552.734,-3.845,1
2.824795,-3.29,3.715,3.663,154.174,-515.136,-34.79,1
2.833834,-3.04,3.437,3.909,151.367,-474.975,-68.237,1
2.841015,-2.52,3.116,4.123,164.306,-432.373,-94.848,1
2.850141,-1.955,2.79,4.151,178.466,-395.751,-124.694,1
2.857159,-1.606,2.474,4.349,200.5,-350.341,-146.423,1
2.864314,-1.231,2.031,4.2,184.082,-309.997,-165.527,1
2.873766,-1.054,1.784,4.169,151.977,-264.526,-179.809,1
2.881169,-0.758,1.459,3.834,105.407,-219.055,-191.467,1
2.889232,-0.541,1.229,3.626,75.866,-182.739,-197.143,1
2.897943,-0.372,0.962,3.257,51.147,-153.137,-199.707,1
2.904879,-0.235,0.76,3.049,31.86,-122.558,-199.34,1
2.913931,-0.138,0.564,2.739,20.263,-100.769,-196.594,1
2.921268,0.017,0.413,2.537,14.648,-77.514,-191.833,1
2.929831,0.049,0.272,2.29,4.577,-61.645,-186.706,1
2.936931,0.111,0.161,2.137,-4.577,-45.959,-181.03,1
2.944589,0.24,0.038,1.924,-8.789,-31.494,-173.522,1
2.952282,0.327,-0.041,1.781,-7.385,-22.521,-167.663,1
2.960977,0.419,-0.14,1.614,-7.08,-10.742,-158.691,1
2.969906,0.491,-0.231,1.458,-12.634,-2.258,-150.329,1
2.97709,0.524,-0.292,1.319,-22.216,7.019,-140.625,1
2.984867,0.554,-0.33,1.21,-28.442,13.793,-132.324,1
2.992463,0.612,-0.374,1.091,-32.714,20.751,-122.68,1
3.00092,0.643,-0.404,0.992,-36.499,25.817,-114.868,1
3.009516,0.662,-0.414,0.901,-39.428,30.212,-107.36,1
3.016506,0.682,-0.412,0.823,-38.757,32.958,-100.463,1
3.025819,0.714,-0.414,0.749,-32.226,35.644,-92.102,1
3.03289,0.737,-0.431,0.695,-26.977,37.475,-85.021,1
3.042006,0.752,-0.435,0.626,-26.062,39.733,-77.514,1
3.05043,0.761,-0.416,0.576,-26.306,41.32,-69.641,1
3.057687,0.767,-0.395,0.532,-23.193,42.236,-62.744,1
3.065849,0.783,-0.375,0.482,-17.761,42.541,-56.457,1
3.07338,0.792,-0.372,0.445,-13.671,43.457,-49.621,1
3.080365,0.808,-0.37,0.412,-15.258,44.25,-43.518,1
3.089336,0.83,-0.349,0.375,-19.531,45.593,-37.231,1
3.097275,0.827,-0.285,0.331,-22.827,46.325,-31.494,1
3.104486,0.832,-0.231,0.298,-21.057,46.02,-25.695,1
3.112355,0.84,-0.184,0.269,-16.357,44.982,-21.85,1
3.121986,0.833,-0.161,0.256,-10.009,44.006,-18.493,1
3.129227,0.842,-0.143,0.24,-4.699,43.273,-14.892,1
3.13613,0.84,-0.117,0.231,-2.685,42.968,-10.07,1
3.145271,0.832,-0.079,0.216,-4.333,42.968,-5.92,1
3.152116,0.834,-0.031,0.198,-5.92,43.09,-1.892,1
3.160982,0.838,0.013,0.178,-3.967,42.297,1.098,1
3.167829,0.826,0.039,0.162,-0.61,41.931,3.662,1
3.175503,0.818,0.056,0.145,0.244,41.32,6.286,1
3.182741,0.827,0.072,0.127,-2.929,41.442,8.972,1
3.191055,0.832,0.103,0.107,-8.728,41.809,11.535,1
3.198917,0.828,0.137,0.087,-13.793,41.87,13.549,1
3.205516,0.837,0.176,0.076,-15.014,41.137,15.197,1
3.21303,0.84,0.212,0.072,-12.023,40.039,16.052,1
3.220962,0.838,0.241,0.067,-4.577,38.635,16.662,1
3.228165,0.852,0.267,0.062,4.577,36.56,17.517,1
3.236808,0.86,0.276,0.051,11.047,35.095,18.31,1
3.243802,0.857,0.292,0.037,11.413,34.179,19.287,1
3.251031,0.864,0.307,0.029,7.69,33.447,19.836,1
3.258007,0.874,0.327,0.026,4.455,32.775,20.019,1
3.265984,0.888,0.354,0.016,4.455,32.165,20.812,1
3.27272,0.898,0.377,0.02,6.408,31.127,20.935,1
3.280647,0.905,0.39,0.017,9.094,30.334,21.179,1
3.288423,0.908,0.406,0.007,9.582,29.418,21.545,1
3.295468,0.895,0.428,-0.002,6.164,29.052,21.423,1
3.301862,0.887,0.461,-0.024,1.098,28.442,21.179,1
3.310341,0.89,0.495,-0.033,-1.77,27.648,20.751,1
3.318838,0.881,0.524,-0.041,-2.258,26.855,19.958,1
3.326059,0.878,0.541,-0.047,-0.305,25.573,18.737,1
3.332951,0.874,0.551,-0.058,2.319,24.047,17.517,1
3.341517,0.868,0.551,-0.057,3.784,22.705,16.479,1
3.350123,0.872,0.551,-0.046,5.92,21.728,15.502,1
3.356858,0.872,0.543,-0.032,8.3,20.385,15.014,1
3.365765,0.871,0.547,-0.016,10.925,19.348,14.831,1
3.372947,0.873,0.549,-0.001,14.465,18.005,14.587,1
3.381011,0.88,0.552,0.008,18.249,17.089,14.16,1
3.38896,0.89,0.553,0.014,19.348,16.418,14.099,1
3.395913,0.888,0.563,0.005,16.967,16.174,14.038,1
3.403418,0.88,0.572,0.002,11.84,16.052,13.366,1
3.412234,0.875,0.583,0.001,9.155,15.808,13.061,1
3.419747,0.875,0.589,0.0,9.216,15.258,12.573,1
3.427487,0.886,0.587,-0.008,10.559,14.587,12.084,1
3.434079,0.894,0.58,-0.012,11.901,13.916,11.474,1
3.442216,0.896,0.57,-0.018,12.512,13.122,11.352,1
3.450845,0.9,0.562,-0.01,14.038,12.39,11.23,1
3.45753,0.899,0.56,-0.009,16.418,11.657,11.108,1
3.466237,0.9,0.545,-0.006,18.798,11.108,10.62,1
3.474156,0.902,0.533,-0.002,20.629,10.62,10.192,1
3.481345,0.893,0.519,-0.007,20.69,10.559,10.07,1
3.490165,0.885,0.506,-0.01,19.897,10.498,9.521,1
3.497082,0.886,0.5,-0.019,17.7,11.047,8.85,1
3.504618,0.886,0.487,-0.026,13.977,11.352,8.178,1
3.513747,0.887,0.477,-0.031,11.23,11.535,7.751,1
3.520825,0.886,0.472,-0.036,9.765,11.657,7.263,1
3.529672,0.884,0.467,-0.039,9.765,11.596,6.774,1
3.537354,0.882,0.466,-0.035,11.108,11.352,6.469,1
3.545896,0.881,0.455,-0.04,11.901,10.986,5.859,1
3.552938,0.876,0.446,-0.036,11.901,10.681,5.615,1
3.561205,0.88,0.441,-0.035,11.962,9.948,5.554,1
3.568964,0.882,0.44,-0.031,12.695,9.582,5.493,1
3.577128,0.88,0.438,-0.028,13.916,9.094,5.798,1
3.585296,0.884,0.437,-0.032,15.319,8.789,6.042,1
3.592474,0.889,0.434,-0.028,15.502,8.544,6.408,1
3.600928,0.89,0.431,-0.023,14.77,8.117,6.774,1
3.608001,0.881,0.434,-0.019,14.709,8.178,7.385,1
3.615772,0.876,0.432,-0.007,14.709,8.3,7.385,1
3.623175,0.873,0.428,0.009,15.258,8.178,7.69,1
3.630613,0.867,0.428,0.013,16.418,7.934,8.178,1
3.638123,0.865,0.429,0.032,17.517,7.995,8.728,1
3.646832,0.864,0.427,0.033,17.761,8.422,9.094,1
3.65412,0.867,0.437,0.033,16.784,8.483,9.765,1
3.662328,0.86,0.447,0.041,15.502,8.605,10.681,1
3.671123,0.852,0.458,0.035,14.465,8.789,11.169,1
3.677459,0.853,0.468,0.032,13.61,9.338,11.413,1
3.684662,0.861,0.476,0.041,13.122,9.277,11.901,1
3.693237,0.86,0.478,0.04,13.122,9.277,12.329,1
3.700274,0.86,0.486,0.047,13.671,9.399,12.634,1
3.709244,0.856,0.485,0.055,14.038,9.521,12.634,1
3.716221,0.855,0.486,0.064,15.197,9.338,12.756,1
3.723958,0.845,0.493,0.064,16.479,10.009,12.817,1
3.731375,0.841,0.495,0.069,16.967,9.765,12.756,1
3.740043,0.836,0.496,0.071,17.089,9.887,12.878,1
3.748181,0.828,0.5,0.066,16.54,10.07,13.061,1
3.75519,0.826,0.501,0.059,15.502,10.681,13.122,1
3.762588,0.829,0.51,0.053,13.427,10.437,13.305,1
3.769953,0.832,0.512,0.053,11.779,10.803,13.0,1
3.77756,0.839,0.519,0.056,10.681,10.925,12.878,1
3.787014,0.851,0.518,0.055,10.314,11.108,12.939,1
3.793706,0.855,0.526,0.047,9.887,10.986,13.0,1
3.801935,0.865,0.527,0.044,9.643,10.864,13.0,1
3.809285,0.865,0.534,0.042,9.582,11.23,13.061,1
3.817379,0.858,0.537,0.041,9.582,11.352,13.061,1
3.823901,0.859,0.537,0.037,9.338,11.474,13.488,1
3.831857,0.866,0.536,0.028,8.605,12.084,13.854,1
3.839577,0.874,0.541,0.02,7.019,12.023,14.282,1
3.847046,0.887,0.548,0.002,5.737,12.084,14.587,1
3.855987,0.894,0.551,-0.003,4.455,12.145,14.648,1
3.863225,0.903,0.549,-0.011,3.479,12.023,14.709,1
3.871244,0.908,0.562,-0.024,2.624,12.268,14.831,1
3.880129,0.912,0.57,-0.039,2.502,12.084,14.587,1
3.888335,0.905,0.579,-0.049,3.479,11.596,14.587,1
3.895495,0.903,0.589,-0.051,5.859,11.047,14.465,1
3.903121,0.901,0.592,-0.056,8.361,10.498,14.16,1
3.910788,0.89,0.601,-0.065,9.704,10.192,13.732,1
3.919702,0.886,0.606,-0.074,8.972,9.765,13.549,1
3.92741,0.874,0.616,-0.081,6.896,9.582,13.061,1
3.935157,0.857,0.626,-0.089,4.272,9.521,12.268,1
3.942148,0.854,0.632,-0.092,1.586,9.46,11.474,1
3.950183,0.85,0.636,-0.097,0.0,8.911,10.375,1
3.959627,0.853,0.642,-0.102,-0.549,8.361,9.704,1
3.966515,0.857,0.646,-0.104,0.61,7.385,8.789,1
3.973904,0.853,0.652,-0.11,1.708,6.408,7.751,1
3.981657,0.854,0.657,-0.111,2.746,5.432,6.774,1
3.98992,0.853,0.658,-0.112,3.601,4.394,6.042,1
3.997622,0.851,0.656,-0.118,4.394,3.234,5.065,1
4.004133,0.85,0.654,-0.108,5.187,2.319,4.577,1
4.014389,0.855,0.649,-0.102,5.737,1.525,3.784,1
4.021078,0.851,0.647,-0.086,6.53,0.915,3.356,1
4.029475,0.853,0.653,-0.09,7.751,0.122,2.807,1
4.03692,0.853,0.65,-0.084,7.568,-0.427,2.624,1
4.044742,0.844,0.645,-0.078,5.371,-0.366,1.953,1
4.05393,0.837,0.646,-0.079,2.929,-0.915,1.525,1
4.06281,0.839,0.647,-0.075,1.098,-0.671,1.464,1
4.070158,0.843,0.649,-0.082,-0.366,-1.098,0.671,1
4.077235,0.846,0.644,-0.076,-1.586,-1.159,0.183,1
4.086191,0.849,0.635,-0.074,-2.868,-1.647,-0.061,1
4.093746,0.855,0.627,-0.07,-3.051,-2.197,-0.549,1
4.101612,0.858,0.628,-0.051,-2.197,-2.624,-0.793,1
4.110954,0.854,0.619,-0.042,-0.244,-3.051,-0.976,1
4.118558,0.856,0.609,-0.033,1.403,-3.173,-1.098,1
4.126739,0.856,0.6,-0.02,2.258,-3.417,-1.098,1
4.133861,0.858,0.595,-0.015,2.807,-3.051,-1.22,1
4.142421,0.856,0.598,-0.014,3.54,-2.868,-1.342,1
4.149637,0.854,0.597,-0.013,4.272,-2.868,-1.464,1
4.158572,0.853,0.598,-0.013,4.943,-2.746,-1.77,1
4.166489,0.85,0.587,-0.012,4.699,-2.807,-1.77,1
4.175182,0.843,0.578,-0.005,3.845,-2.502,-2.258,1
4.183479,0.846,0.571,-0.005,1.098,-2.014,-2.38,1
4.191738,0.838,0.566,-0.003,-2.014,-1.708,-2.197,1
4.199513,0.832,0.562,0.0,-4.76,-1.22,-2.258,1
4.206716,0.836,0.556,0.007,-5.187,-1.159,-2.136,1
4.215892,0.836,0.555,0.009,-3.295,-1.342,-1.831,1
4.222988,0.837,0.554,0.015,-0.549,-1.281,-1.953,1
4.231889,0.833,0.544,0.015,1.953,-1.22,-1.647,1
4.239105,0.838,0.541,0.014,2.563,-1.159,-1.342,1
4.246962,0.843,0.536,0.01,2.075,-1.22,-0.854,1
4.254958,0.838,0.53,0.002,0.549,-1.037,-0.976,1
4.262478,0.836,0.529,0.0,-1.403,-0.976,-0.366,1
4.271797,0.835,0.523,0.001,-3.173,-0.671,-0.061,1
4.278344,0.833,0.52,0.006,-4.211,-0.793,0.427,1
4.287625,0.826,0.519,0.004,-4.211,-0.793,1.159,1
4.295468,0.829,0.516,0.007,-3.906,-0.915,1.586,1
4.302268,0.822,0.519,0.009,-3.112,-0.854,2.014,1
4.311089,0.827,0.523,0.009,-1.464,-1.22,2.38,1
4.319212,0.826,0.52,0.011,0.305,-1.281,2.685,1
4.326084,0.829,0.519,0.011,1.037,-1.342,3.051,1
4.333784,0.828,0.517,0.006,0.976,-1.403,3.356,1
4.342634,0.827,0.515,0.012,1.586,-1.647,3.723,1
4.348959,0.826,0.521,0.011,2.075,-1.77,4.272,1
4.356619,0.825,0.526,0.015,2.624,-1.647,4.455,1
4.364146,0.82,0.525,0.013,3.234,-1.77,4.943,1
4.371774,0.825,0.531,0.016,2.99,-1.77,5.31,1
4.37933,0.822,0.536,0.02,2.441,-1.708,5.676,1
4.388543,0.826,0.539,0.022,2.075,-1.403,5.615,1
4.394874,0.824,0.541,0.024,1.647,-1.464,5.92,1
4.40404,0.824,0.542,0.026,1.159,-1.342,6.042,1
4.410513,0.827,0.548,0.028,1.525,-1.281,5.859,1
4.418219,0.828,0.549,0.038,1.892,-1.525,6.347,1
4.426652,0.825,0.553,0.034,2.868,-1.281,6.53,1
4.433245,0.825,0.561,0.035,3.173,-1.159,6.591,1
4.442329,0.825,0.563,0.034,3.234,-0.793,6.896,1
4.449342,0.823,0.573,0.034,2.319,-0.732,6.896,1
4.457634,0.825,0.577,0.032,0.976,-0.366,7.019,1
4.466515,0.824,0.585,0.033,-0.122,-0.122,6.896,1
4.473968,0.828,0.59,0.031,-0.305,0.183,6.713,1
4.481891,0.829,0.591,0.041,0.061,0.427,6.286,1
4.488651,0.83,0.593,0.038,0.915,0.427,6.225,1
4.496342,0.838,0.589,0.039,2.38,0.183,6.103,1
4.505294,0.843,0.59,0.038,3.784,0.549,5.92,1
4.512473,0.841,0.591,0.037,4.394,0.427,5.676,1
4.519531,0.842,0.592,0.034,3.845,0.61,5.798,1
4.52832,0.842,0.595,0.034,2.319,0.915,5.92,1
4.534694,0.843,0.599,0.033,0.61,1.281,5.92,1
4.542675,0.843,0.605,0.028,-0.793,1.586,5.493,1
4.550412,0.842,0.609,0.022,-0.915,1.647,5.432,1
4.557881,0.841,0.61,0.023,-0.61,1.831,5.371,1
4.566954,0.839,0.607,0.018,0.061,1.586,5.126,1
4.574837,0.842,0.616,0.019,0.244,1.77,4.76,1
4.582693,0.841,0.618,0.017,1.281,1.831,4.577,1
4.590911,0.842,0.621,0.007,1.159,1.586,4.028,1
4.597859,0.842,0.626,0.004,0.671,1.586,3.906,1
4.605022,0.841,0.63,0.004,0.305,1.647,3.601,1
4.614123,0.844,0.63,0.0,-0.061,1.525,3.417,1
4.621108,0.841,0.634,0.004,0.366,1.525,2.807,1
4.62944,0.845,0.631,0.002,1.281,1.464,2.563,1
4.636436,0.843,0.629,0.004,2.258,1.281,2.136,1
4.64411,0.839,0.633,0.0,2.929,1.098,1.831,1
4.652839,0.838,0.634,0.002,2.563,0.976,1.525,1
4.660398,0.843,0.632,0.002,1.525,0.915,1.342,1
4.66826,0.845,0.631,0.01,0.671,0.793,0.793,1
4.675296,0.847,0.629,0.007,0.244,0.915,0.793,1
4.684035,0.845,0.631,0.01,0.122,0.671,0.427,1
4.690956,0.844,0.63,0.015,0.305,1.037,0.305,1
4.699616,0.842,0.634,0.014,0.488,1.037,0.305,1
4.706821,0.838,0.639,0.017,1.159,0.915,-0.122,1
4.714398,0.84,0.639,0.017,1.586,1.098,-0.549,1
4.722601,0.838,0.636,0.02,1.953,1.342,-0.915,1
4.730323,0.842,0.638,0.015,2.075,1.586,-1.281,1
4.738106,0.836,0.63,0.015,1.647,1.403,-1.525,1
4.746393,0.837,0.627,0.015,0.793,1.647,-1.892,1
4.753037,0.833,0.63,0.015,-0.183,1.708,-2.258,1
4.761245,0.833,0.622,0.017,-0.549,1.831,-2.746,1
4.769325,0.834,0.62,0.017,-1.281,2.136,-2.685,1
4.776369,0.833,0.615,0.015,-2.197,2.38,-3.051,1
4.785161,0.831,0.611,0.012,-2.868,2.624,-3.173,1
4.793082,0.833,0.612,0.014,-3.234,2.563,-3.417,1
4.800707,0.834,0.607,0.013,-2.258,2.746,-3.662,1
4.808782,0.833,0.604,0.004,-0.854,2.563,-3.723,1
4.815822,0.834,0.597,0.002,0.122,2.441,-3.906,1
4.824981,0.83,0.595,-0.003,-0.427,2.319,-4.028,1
4.831806,0.829,0.585,-0.008,-1.22,2.38,-3.845,1
4.840636,0.825,0.582,-0.009,-2.258,2.563,-3.906,1
4.849256,0.822,0.576,-0.013,-2.99,2.502,-3.906,1
4.855822,0.823,0.573,-0.021,-3.662,2.746,-3.784,1
4.863664,0.819,0.569,-0.031,-4.882,2.441,-3.723,1
4.87201,0.815,0.569,-0.036,-5.737,2.563,-3.845,1
4.880435,0.817,0.566,-0.038,-4.699,2.38,-3.601,1
4.887733,0.822,0.563,-0.037,-2.746,1.831,-3.234,1
4.896841,0.821,0.561,-0.041,-0.366,1.525,-3.112,1
4.905274,0.825,0.554,-0.04,1.525,0.732,-2.868,1
4.912263,0.822,0.548,-0.045,2.38,0.366,-2.563,1
4.921274,0.822,0.551,-0.044,1.464,0.183,-2.075,1
4.928556,0.817,0.548,-0.046,0.183,-0.061,-1.708,1
4.937572,0.818,0.551,-0.049,-1.281,-0.366,-1.586,1
4.94475,0.821,0.556,-0.047,-1.77,-0.854,-1.281,1
4.953163,0.817,0.562,-0.041,-0.915,-1.22,-0.732,1
4.962266,0.82,0.562,-0.036,0.61,-1.403,-0.305,1
4.968975,0.816,0.56,-0.029,3.234,-1.953,0.0,1
4.976591,0.811,0.553,-0.023,4.089,-2.319,0.061,1
4.985482,0.812,0.551,-0.019,3.356,-2.441,0.549,1
4.993679,0.808,0.544,-0.012,2.258,-2.258,0.854,1
5.002184,0.806,0.55,-0.006,1.22,-2.258,1.22,1
5.009113,0.809,0.556,0.0,0.61,-2.197,1.525,1
5.016411,0.808,0.559,-0.002,0.976,-2.197,1.831,1
5.025498,0.809,0.563,0.003,1.098,-2.502,1.831,1
5.03242,0.806,0.569,0.007,2.075,-2.563,2.136,1
5.039942,0.805,0.567,0.005,2.197,-2.563,2.197,1
5.048896,0.809,0.57,0.005,2.197,-2.441,2.502,1
5.055997,0.809,0.568,0.01,1.647,-2.441,2.624,1
5.064119,0.81,0.566,0.012,1.098,-2.502,2.563,1
5.071122,0.813,0.568,0.009,0.61,-2.136,2.99,1
5.079798,0.812,0.572,0.02,0.244,-1.892,2.868,1
5.086666,0.812,0.574,0.014,-0.122,-1.831,3.051,1
5.094797,0.812,0.575,0.022,-0.183,-1.708,2.929,1
5.102121,0.814,0.576,0.02,0.183,-1.525,2.868,1
5.10948,0.82,0.58,0.016,1.037,-1.342,2.868,1
5.118187,0.824,0.577,0.011,1.037,-1.22,3.417,1
5.125608,0.82,0.582,0.012,1.22,-1.159,3.234,1
5.133276,0.82,0.579,0.015,0.915,-0.976,3.479,1
5.142017,0.815,0.582,0.013,0.61,-0.915,3.601,1
5.148553,0.823,0.58,0.016,0.122,-0.549,3.417,1
5.156075,0.829,0.581,0.018,-0.244,-0.427,3.479,1
5.1649,0.826,0.59,0.013,-0.366,-0.244,3.845,1
5.17206,0.824,0.588,0.014,0.061,-0.366,3.662,1
5.179336,0.827,0.595,0.009,0.366,-0.488,3.662,1
5.18829,0.825,0.599,0.009,0.976,-0.549,3.723,1
5.196081,0.829,0.603,0.009,1.708,-0.61,3.662,1
5.203952,0.83,0.601,0.003,1.098,-0.488,3.662,1
5.211163,0.823,0.606,0.007,-0.732,-0.488,3.662,1
5.220312,0.827,0.606,0.004,-1.831,-0.427,3.234,1
5.227829,0.833,0.612,0.001,-1.464,-0.366,3.356,1
5.236071,0.831,0.612,0.004,-0.732,-0.61,2.807,1
5.243009,0.823,0.612,0.003,0.732,-0.671,3.051,1
5.250419,0.826,0.619,0.01,1.892,-1.037,2.868,1
5.258033,0.827,0.617,0.007,2.319,-1.098,2.807,1
5.266752,0.828,0.621,0.008,2.136,-0.976,2.685,1
5.273621,0.824,0.616,0.007,0.854,-0.854,2.502,1
5.281378,0.829,0.62,0.016,0.976,-1.098,2.441,1
5.290189,0.835,0.616,0.02,1.342,-1.22,1.953,1
5.297235,0.841,0.615,0.021,2.075,-1.342,1.77,1
5.304783,0.837,0.615,0.019,1.586,-1.281,1.586,1
5.312246,0.835,0.616,0.025,0.793,-0.976,1.403,1
5.320773,0.831,0.615,0.021,0.122,-0.854,1.525,1
5.327505,0.831,0.616,0.027,0.366,-0.366,1.22,1
5.336333,0.829,0.616,0.029,1.281,-0.305,0.915,1
5.343314,0.83,0.619,0.028,2.319,-0.366,1.037,1
5.350196,0.828,0.615,0.032,3.112,-0.183,0.671,1
5.35894,0.831,0.613,0.032,3.051,0.0,0.671,1
5.366098,0.829,0.615,0.023,2.258,0.122,0.488,1
5.372904,0.831,0.614,0.024,1.22,0.366,0.305,1
5.380914,0.833,0.616,0.02,-0.122,0.488,0.0,1
5.389466,0.831,0.616,0.016,-0.854,0.488,-0.122,1
5.397071,0.826,0.616,0.021,-0.488,0.305,-0.61,1
5.405243,0.824,0.617,0.023,1.098,0.244,-0.549,1
5.411549,0.829,0.618,0.023,2.807,0.061,-0.793,1
5.420667,0.835,0.616,0.026,3.845,0.183,-0.854,1
5.428564,0.829,0.613,0.027,3.54,-0.061,-0.793,1
5.435685,0.835,0.612,0.031,2.136,0.488,-1.037,1
5.443661,0.833,0.614,0.029,1.159,0.427,-1.037,1
5.451602,0.83,0.616,0.03,-0.122,0.671,-1.22,1
5.459094,0.835,0.616,0.033,-0.732,0.671,-1.403,1
5.468509,0.845,0.623,0.031,-0.244,0.549,-1.525,1
5.474798,0.843,0.624,0.038,0.671,0.671,-1.647,1
5.484247,0.849,0.624,0.037,2.624,0.488,-1.953,1
5.491134,0.854,0.625,0.04,3.906,0.366,-2.197,1
5.498585,0.854,0.62,0.049,4.943,0.244,-2.441,1
5.507525,0.862,0.62,0.051,5.126,0.244,-2.502,1
5.514834,0.868,0.626,0.062,4.882,0.122,-2.624,1
5.522568,0.866,0.638,0.07,4.577,0.244,-2.624,1
5.530264,0.871,0.652,0.085,5.004,0.366,-2.929,1
5.537692,0.881,0.67,0.099,6.774,0.061,-3.173,1
5.545357,0.89,0.692,0.119,9.826,-0.305,-3.601,1
5.553417,0.899,0.712,0.139,13.916,-0.732,-4.089,1
5.56182,0.907,0.738,0.168,18.432,-1.22,-4.577,1
5.56911,0.928,0.767,0.219,24.047,-1.403,-5.187,1
5.57636,0.958,0.794,0.257,28.808,-1.342,-6.164,1
5.585157,0.978,0.835,0.312,32.226,-1.403,-7.141,1
5.592252,0.985,0.867,0.349,33.63,-0.366,-8.85,1
5.600853,1.01,0.905,0.392,32.958,0.122,-10.681,1
5.607652,1.028,0.952,0.44,32.348,1.342,-12.756,1
5.615957,1.048,1.02,0.496,34.545,1.892,-15.197,1
5.624557,1.059,1.097,0.565,42.907,2.563,-17.822,1
5.631423,1.058,1.154,0.629,54.931,3.417,-21.179,1
5.639928,1.061,1.182,0.694,66.589,4.76,-25.756,1
5.646982,1.076,1.207,0.765,71.777,6.896,-29.724,1
5.656141,1.063,1.231,0.851,74.279,10.07,-33.935,1
5.663233,1.047,1.267,0.956,75.561,14.221,-38.085,1
5.671791,1.019,1.302,1.044,76.232,20.324,-43.334,1
5.678814,0.98,1.341,1.129,77.636,26.184,-48.522,1
5.687739,0.943,1.376,1.192,81.176,32.47,-54.321,1
5.694392,0.914,1.392,1.25,85.815,39.55,-59.997,1
5.703212,0.893,1.4,1.282,89.477,46.386,-65.856,1
5.711466,0.867,1.401,1.297,92.59,55.053,-72.326,1
5.718623,0.827,1.394,1.308,93.627,62.622,-77.758,1
5.72548,0.796,1.37,1.305,94.36,70.251,-83.19,1
5.733888,0.752,1.345,1.295,94.97,78.247,-88.562,1
5.741556,0.694,1.312,1.286,95.336,87.097,-94.238,1
5.749692,0.636,1.278,1.26,95.581,95.214,-98.999,1
5.758565,0.6,1.244,1.226,96.191,102.6,-103.515,1
5.765589,0.553,1.202,1.171,99.365,111.45,-108.276,1
5.773783,0.51,1.175,1.111,101.44,118.774,-112.121,1
5.782642,0.465,1.16,1.048,103.21,125.793,-116.027,1
5.789328,0.422,1.145,0.968,107.543,132.019,-119.873,1
5.79768,0.371,1.129,0.899,113.586,138.854,-123.657,1
5.805964,0.321,1.096,0.811,115.722,144.836,-126.892,1
5.813285,0.262,1.051,0.734,113.037,150.756,-129.882,1
5.821532,0.197,1.011,0.657,110.107,156.616,-133.117,1
5.828565,0.117,0.959,0.579,109.619,162.963,-136.291,1
5.836846,0.048,0.916,0.507,111.145,168.334,-138.427,1
5.844124,-0.012,0.875,0.452,115.661,172.973,-140.563,1
5.853409,-0.068,0.84,0.397,122.497,177.856,-142.272,1
5.861034,-0.148,0.808,0.343,132.324,182.739,-143.432,1
5.868494,-0.223,0.759,0.272,146.24,188.354,-143.737,1
5.876209,-0.289,0.716,0.207,157.348,193.664,-143.371,1
5.884395,-0.346,0.676,0.145,169.982,198.547,-142.272,1
5.891922,-0.379,0.634,0.083,183.898,203.918,-140.625,1
5.898504,-0.427,0.583,0.019,195.19,209.716,-137.878,1
5.906376,-0.52,0.529,-0.044,200.927,215.881,-134.399,1
5.915904,-0.62,0.458,-0.103,198.547,222.961,-129.882,1
5.923397,-0.686,0.415,-0.15,185.668,232.543,-124.511,1
5.932514,-0.81,0.379,-0.215,168.212,241.638,-119.018,1
5.941089,-0.901,0.35,-0.274,153.198,249.816,-114.135,1
5.94798,-0.964,0.307,-0.356,138.244,258.178,-108.703,1
5.956878,-1.03,0.27,-0.439,128.967,265.38,-103.82,1
5.963994,-1.092,0.224,-0.533,120.788,271.24,-98.632,1
5.971647,-1.173,0.17,-0.633,113.159,277.221,-92.102,1
5.980516,-1.241,0.105,-0.738,106.628,281.921,-86.181,1
5.987532,-1.296,0.004,-0.862,95.336,285.705,-79.895,1
5.996508,-1.343,-0.07,-0.954,77.697,289.672,-71.655,1
6.005333,-1.37,-0.153,-1.037,64.208,291.809,-64.147,1
6.014126,-1.386,-0.242,-1.12,52.673,293.945,-54.748,1
6.022635,-1.386,-0.335,-1.251,41.259,294.433,-46.02,1
6.029516,-1.39,-0.402,-1.354,26.184,294.006,-35.644,1
6.037518,-1.387,-0.463,-1.473,17.639,292.358,-25.024,1
6.046232,-1.375,-0.525,-1.58,14.709,289.733,-15.136,1
6.053672,-1.374,-0.612,-1.7,7.263,286.987,-5.065,1
6.062763,-1.415,-0.698,-1.801,-11.047,283.508,7.08,1
6.070197,-1.437,-0.766,-1.953,-15.258,278.991,17.7,1
6.079016,-1.41,-0.88,-2.146,-9.704,270.874,31.494,1
6.087874,-1.348,-1.056,-2.379,-15.502,260.498,47.79,1
6.095168,-1.336,-1.148,-2.556,-29.846,252.441,62.133,1
6.103774,-1.368,-1.233,-2.836,-41.015,240.417,78.491,1
6.110565,-1.376,-1.348,-3.149,-48.889,225.952,92.773,1
6.119249,-1.341,-1.473,-3.401,-57.495,208.435,108.215,1
6.128449,-1.295,-1.578,-3.606,-56.091,188.171,124.572,1
6.135819,-1.282,-1.658,-3.737,-43.212,161.621,144.653,1
6.143686,-1.299,-1.752,-3.798,-38.33,134.887,166.198,1
6.152801,-1.374,-1.763,-3.804,-33.142,111.816,184.814,1
6.160716,-1.348,-1.751,-3.795,-10.864,85.876,203.796,1
6.167244,-1.4,-1.763,-3.775,17.822,52.978,226.806,1
6.176142,-1.509,-1.75,-3.698,34.423,25.512,246.704,1
6.18465,-1.625,-1.714,-3.6,45.166,-1.464,265.93,1
6.192094,-1.762,-1.645,-3.468,53.955,-31.433,288.146,1
6.20046,-1.902,-1.583,-3.378,58.654,-56.579,306.457,1
6.209516,-2.065,-1.498,-3.265,56.823,-85.449,326.843,1
6.217957,-2.295,-1.377,-3.15,65.307,-110.473,344.177,1
6.226454,-2.497,-1.309,-3.086,78.613,-139.587,363.22,1
6.233251,-2.759,-1.227,-3.009,79.772,-163.269,378.723,1
6.241993,-2.953,-1.098,-2.925,80.627,-190.124,395.935,1
6.251146,-3.154,-0.966,-2.825,82.885,-216.247,411.376,1
6.258236,-3.313,-0.824,-2.732,75.439,-236.145,423.889,1
6.267579,-3.517,-0.594,-2.639,57.739,-257.141,437.438,1
6.276188,-3.706,-0.34,-2.577,46.752,-274.23,447.814,1
6.283395,-3.95,-0.015,-2.536,42.907,-294.677,457.519,1
6.291011,-4.178,0.348,-2.541,46.752,-313.537,463.317,1
6.300224,-4.33,0.673,-2.523,53.039,-338.561,466.491,1
6.307497,-4.471,1.012,-2.446,57.128,-361.511,466.979,1
6.316671,-4.558,1.455,-2.238,60.546,-389.892,463.745,1
6.324372,-4.682,1.91,-1.95,71.228,-413.085,458.74,1
6.331371,-4.966,2.52,-1.593,90.698,-434.448,449.34,1
6.33891,-5.006,2.975,-1.23,114.746,-456.237,429.016,1
6.347215,-5.105,3.338,-0.895,129.76,-467.651,410.034,1
6.355652,-4.871,3.592,-0.649,144.836,-483.886,376.647,1
6.3634,-4.631,3.876,-0.365,176.025,-499.938,343.017,1
6.371447,-4.473,4.198,-0.018,236.083,-517.272,302.856,1
6.378354,-4.246,4.455,0.405,309.692,-535.156,255.004,1
6.386238,-4.088,4.509,0.787,371.459,-547.851,199.34,1
6.394942,-3.812,4.354,1.288,401.367,-549.926,140.38,1
6.401509,-3.645,4.159,1.708,395.568,-544.189,82.58,1
6.408813,-3.429,3.953,2.117,375.244,-529.052,28.93,1
6.417413,-3.366,3.664,2.431,346.923,-506.774,-20.141,1
6.426184,-3.128,3.3,2.736,288.818,-473.083,-68.42,1
6.433182,-2.832,2.917,2.962,214.111,-432.311,-105.346,1
6.441817,-2.527,2.612,3.049,164.733,-400.329,-128.784,1
6.449037,-2.111,2.313,3.2,142.272,-370.117,-146.24,1
6.456595,-1.786,2.038,3.28,136.901,-336.242,-162.109,1
6.466065,-1.478,1.749,3.349,133.911,-305.664,-172.668,1
6.473235,-1.205,1.464,3.31,123.474,-276.306,-180.48,1
6.482374,-0.89,1.175,3.211,112.854,-242.614,-186.279,1
6.489551,-0.684,0.962,3.044,105.102,-216.979,-189.025,1
6.498328,-0.479,0.73,2.854,98.388,-193.481,-190.307,1
6.506175,-0.331,0.521,2.673,85.021,-168.029,-189.147,1
6.514116,-0.148,0.307,2.493,64.086,-148.071,-186.096,1
6.522607,0.0,0.169,2.35,43.273,-127.563,-180.48,1
6.531059,0.101,0.046,2.208,27.648,-112.121,-174.133,1
6.538013,0.194,-0.022,2.054,15.563,-97.9,-167.175,1
6.547268,0.262,-0.039,1.92,12.084,-84.716,-159.24,1
6.554685,0.308,-0.061,1.825,17.15,-74.768,-152.832,1
6.563167,0.344,-0.114,1.72,25.146,-63.537,-146.057,1
6.571108,0.398,-0.179,1.647,25.024,-53.466,-139.587,1
6.578687,0.462,-0.218,1.563,19.287,-43.457,-132.629,1
6.586457,0.483,-0.208,1.491,13.427,-33.203,-124.938,1
6.595389,0.504,-0.195,1.421,13.366,-25.39,-119.323,1
6.60272,0.53,-0.183,1.363,18.859,-18.127,-113.22,1
6.612125,0.564,-0.199,1.325,21.057,-11.718,-108.154,1
6.618918,0.614,-0.22,1.275,17.089,-4.089,-102.111,1
6.627731,0.639,-0.23,1.232,7.629,2.624,-96.74,1
6.636504,0.66,-0.229,1.18,-2.99,9.033,-91.064,1
6.6436,0.659,-0.222,1.152,-12.329,15.747,-84.899,1
6.652858,0.668,-0.211,1.1,-15.624,20.69,-79.101,1
6.659807,0.687,-0.199,1.056,-16.296,25.756,-73.059,1
6.669052,0.693,-0.169,0.988,-14.343,29.785,-68.115,1
6.677222,0.699,-0.135,0.93,-9.46,32.714,-63.171,1
6.685138,0.718,-0.108,0.876,-5.065,35.095,-59.326,1
6.693601,0.75,-0.094,0.816,-3.967,37.78,-55.358,1
6.700604,0.783,-0.085,0.775,-7.019,39.916,-52.062,1
6.710519,0.801,-0.069,0.746,-10.864,41.503,-48.217,1
6.717562,0.806,-0.052,0.721,-13.427,43.457,-43.945,1
6.726281,0.802,-0.041,0.702,-13.305,44.921,-39.978,1
6.733685,0.788,-0.028,0.68,-12.084,46.264,-36.682,1
6.743239,0.774,-0.012,0.654,-9.643,47.607,-32.592,1
6.751177,0.757,0.014,0.623,-8.117,48.583,-29.113,1
6.758149,0.755,0.036,0.588,-4.699,49.499,-25.878,1
6.765701,0.768,0.059,0.562,-0.793,49.926,-23.376,1
6.773808,0.787,0.077,0.52,2.685,50.292,-20.935,1
6.781545,0.799,0.097,0.48,3.967,50.72,-18.798,1
6.789143,0.803,0.111,0.448,1.892,51.208,-16.784,1
6.798137,0.799,0.114,0.417,-4.455,51.513,-14.892,1
6.805286,0.8,0.117,0.391,-11.413,51.94,-13.732,1
6.81261,0.804,0.127,0.37,-17.089,52.062,-12.329,1
6.820551,0.818,0.129,0.353,-19.531,51.635,-10.925,1
6.828273,0.828,0.131,0.337,-18.127,50.292,-9.887,1
6.837517,0.826,0.135,0.326,-13.305,48.95,-8.056,1
6.845251,0.833,0.134,0.32,-7.324,47.485,-6.652,1
6.852347,0.826,0.136,0.32,-0.244,45.898,-4.882,1
6.861469,0.815,0.143,0.331,9.399,44.067,-3.112,1
6.868848,0.808,0.147,0.337,17.089,42.419,-0.915,1
6.876726,0.797,0.148,0.347,24.108,41.442,0.915,1
6.883902,0.791,0.148,0.356,29.296,40.649,3.295,1
6.891299,0.797,0.141,0.358,32.043,40.344,5.126,1
6.900512,0.805,0.146,0.355,32.409,40.466,7.385,1
6.908204,0.811,0.155,0.353,31.127,40.466,9.643,1
6.915168,0.812,0.171,0.335,27.709,40.893,11.962,1
6.922325,0.809,0.177,0.321,24.108,41.198,13.427,1
6.930144,0.8,0.18,0.316,19.165,41.442,14.709,1
6.937206,0.796,0.192,0.309,14.892,41.748,15.808,1
6.946502,0.803,0.199,0.302,11.535,41.564,16.845,1
6.953998,0.805,0.205,0.298,9.948,41.687,18.066,1
6.961964,0.804,0.212,0.296,10.559,41.503,18.981,1
6.97003,0.803,0.221,0.3,13.305,41.137,19.592,1
6.976939,0.805,0.229,0.294,18.249,40.832,20.751,1
6.984471,0.818,0.231,0.285,23.315,40.954,21.606,1
6.993314,0.827,0.238,0.267,26.733,40.832,22.949,1
7.000499,0.834,0.246,0.238,25.634,41.198,23.742,1
7.007354,0.837,0.263,0.207,20.629,41.687,24.719,1
7.014862,0.841,0.289,0.173,13.854,42.297,25.329,1
7.02383,0.858,0.323,0.138,8.056,41.992,25.512,1
7.030882,0.88,0.351,0.105,4.882,41.564,25.146,1
7.039472,0.897,0.362,0.092,4.394,40.344,24.475,1
7.046608,0.901,0.364,0.083,5.554,39.55,23.986,1
7.055152,0.913,0.359,0.078,6.652,38.513,23.681,1
7.062886,0.921,0.338,0.077,7.385,37.658,23.62,1
7.070881,0.918,0.325,0.068,6.53,37.414,23.803,1
7.077733,0.923,0.324,0.05,3.662,37.109,24.291,1
7.085201,0.919,0.345,0.018,1.464,36.499,24.719,1
7.092313,0.924,0.373,-0.019,0.976,35.4,25.207,1
7.100516,0.935,0.414,-0.07,2.99,33.752,25.146,1
7.10804,0.918,0.435,-0.096,5.981,31.005,24.963,1
7.116233,0.919,0.448,-0.121,7.812,28.747,24.353,1
7.123001,0.943,0.455,-0.133,8.056,26.245,23.742,1
7.130844,0.935,0.45,-0.119,7.812,23.559,22.888,1
7.139155,0.934,0.434,-0.095,9.094,21.362,22.888,1
7.146,0.957,0.425,-0.073,12.512,19.531,22.705,1
7.154233,0.991,0.425,-0.056,17.395,17.578,23.376,1
7.162048,1.007,0.436,-0.055,21.301,15.563,23.986,1
7.170884,0.988,0.46,-0.063,20.202,13.793,24.841,1
7.17814,0.973,0.484,-0.083,13.671,12.451,25.085,1
7.186372,0.966,0.525,-0.085,7.08,10.986,24.963,1
7.19327,0.943,0.569,-0.078,4.638,9.338,24.414,1
7.20211,0.923,0.589,-0.07,5.859,7.507,23.681,1
7.209153,0.923,0.595,-0.053,7.934,6.042,22.583,1
7.217179,0.909,0.6,-0.035,8.972,4.394,21.301,1
7.225434,0.888,0.605,-0.022,7.812,3.417,20.019,1
7.232458,0.87,0.618,-0.022,4.333,2.563,18.798,1
7.239668,0.871,0.615,-0.011,0.366,2.075,17.333,1
7.248486,0.863,0.618,0.015,-2.014,1.342,15.869,1
7.256888,0.862,0.616,0.028,-3.173,0.976,14.831,1
7.264346,0.854,0.614,0.053,-4.638,0.305,13.427,1
7.272141,0.847,0.604,0.066,-6.835,0.183,12.084,1
7.279122,0.837,0.589,0.089,-8.3,0.183,10.864,1
7.287027,0.828,0.574,0.113,-7.69,0.244,10.07,1
7.295427,0.839,0.562,0.128,-5.859,0.671,9.277,1
7.302796,0.843,0.547,0.143,-4.577,1.037,8.911,1
7.310287,0.842,0.545,0.139,-5.31,1.464,7.995,1
7.318443,0.854,0.547,0.141,-5.31,2.075,7.507,1
7.325995,0.856,0.55,0.129,-4.699,2.075,6.469,1
7.335151,0.858,0.545,0.128,-4.333,2.136,5.981,1
7.342339,0.867,0.532,0.122,-4.15,1.953,5.371,1
7.349785,0.877,0.524,0.118,-4.638,2.075,5.126,1
7.358757,0.889,0.52,0.111,-6.347,1.831,4.943,1
7.365912,0.897,0.515,0.115,-7.69,1.403,4.882,1
7.373327,0.9,0.511,0.126,-8.361,1.525,4.638,1
7.381526,0.91,0.505,0.127,-8.3,1.159,4.821,1
7.389228,0.917,0.509,0.137,-7.08,0.671,4.882,1
7.397083,0.916,0.495,0.145,-5.126,0.671,4.577,1
7.406443,0.923,0.489,0.143,-4.028,0.793,4.638,1
7.413925,0.917,0.485,0.145,-3.784,0.671,4.76,1
7.421597,0.927,0.478,0.141,-4.089,0.854,4.882,1
7.429223,0.927,0.481,0.138,-3.479,0.61,5.065,1
7.436553,0.923,0.487,0.141,-2.502,0.366,5.065,1
7.445671,0.925,0.487,0.145,-1.953,0.427,5.31,1
7.452629,0.919,0.494,0.15,-2.136,0.366,5.249,1
7.459922,0.916,0.497,0.151,-2.197,0.122,5.249,1
7.468257,0.916,0.499,0.147,-2.197,0.305,4.882,1
7.476824,0.912,0.497,0.15,-2.868,0.305,4.76,1
7.483539,0.918,0.493,0.153,-3.967,0.183,4.577,1
7.491246,0.919,0.494,0.164,-3.906,-0.061,4.638,1
7.498851,0.922,0.499,0.186,-2.38,-0.183,4.699,1
7.50752,0.926,0.507,0.216,-0.549,-0.305,4.638,1
7.515155,0.922,0.523,0.24,2.075,-0.366,4.821,1
7.522711,0.928,0.557,0.273,5.249,-0.366,4.394,1
7.530195,0.938,0.575,0.308,7.629,0.0,4.089,1
7.537717,0.954,0.612,0.338,8.605,0.366,3.723,1
7.546305,0.959,0.663,0.386,9.521,0.671,2.868,1
7.55317,0.971,0.721,0.458,13.061,1.098,1.403,1
7.56242,1.002,0.785,0.547,19.531,1.708,-0.366,1
7.569428,1.012,0.848,0.666,26.245,3.112,-2.38,1
7.57654,1.017,0.92,0.799,33.203,5.31,-4.516,1
7.583974,1.039,0.972,0.928,41.015,8.239,-7.263,1
7.593117,1.052,1.009,1.038,48.95,12.817,-10.131,1
7.600545,1.071,1.048,1.184,53.039,17.883,-13.305,1
7.610076,1.06,1.085,1.295,52.551,26.123,-17.089,1
7.617232,1.035,1.138,1.396,50.354,35.4,-21.728,1
7.625294,1.028,1.175,1.465,52.185,43.334,-25.817,1
7.633466,1.006,1.199,1.52,58.227,52.917,-31.616,1
7.643003,0.979,1.189,1.542,59.692,61.828,-35.949,1
7.650983,0.949,1.201,1.544,57.006,72.448,-41.564,1
7.657396,0.924,1.208,1.519,54.87,81.665,-46.386,1
7.665677,0.897,1.208,1.478,53.588,90.454,-51.635,1
7.672541,0.876,1.201,1.422,51.757,98.449,-56.701,1
7.68165,0.838,1.2,1.354,51.208,106.75,-62.011,1
7.688331,0.817,1.188,1.293,53.527,113.952,-67.138,1
7.695322,0.782,1.178,1.233,58.776,120.422,-71.777,1
7.703038,0.74,1.187,1.166,67.626,125.976,-76.538,1
7.710506,0.704,1.195,1.097,79.345,130.92,-80.993,1
7.718122,0.666,1.201,1.023,92.224,135.437,-85.021,1
7.726739,0.627,1.252,0.964,109.13,138.916,-89.233,1
7.734028,0.608,1.314,0.912,133.667,141.54,-92.712,1
7.741641,0.588,1.346,0.849,161.01,144.836,-96.374,1
7.750747,0.543,1.338,0.77,171.813,148.132,-99.365,1
7.757532,0.513,1.318,0.712,170.898,152.526,-102.111,1
7.764868,0.474,1.303,0.649,161.621,157.592,-105.285,1
7.773592,0.415,1.287,0.586,149.353,162.597,-108.825,1
7.7802,0.343,1.271,0.505,139.16,166.931,-112.548,1
7.788943,0.284,1.266,0.432,134.826,170.715,-116.577,1
7.795931,0.207,1.252,0.342,136.23,173.645,-120.849,1
7.804971,0.131,1.227,0.24,138.061,176.452,-125.976,1
7.811379,0.041,1.189,0.145,137.573,178.894,-130.554,1
7.820549,-0.004,1.155,0.058,139.587,181.274,-134.704,1
7.827152,-0.031,1.132,-0.061,144.409,182.373,-138.0,1
7.836865,-0.087,1.079,-0.181,150.695,183.288,-142.028,1
7.843995,-0.126,1.015,-0.296,151.977,184.753,-144.897,1
7.853132,-0.149,0.95,-0.437,147.338,185.241,-147.705,1
7.860162,-0.186,0.895,-0.541,140.441,185.424,-150.024,1
7.869376,-0.217,0.822,-0.659,127.38,185.546,-152.526,1
7.876521,-0.22,0.755,-0.764,115.356,184.753,-154.235,1
7.886031,-0.185,0.673,-0.921,103.271,182.739,-155.334,1
7.894937,-0.132,0.582,-1.072,91.491,179.382,-156.494,1
7.901555,-0.088,0.505,-1.172,83.435,173.95,-156.799,1
7.910507,-0.031,0.415,-1.284,86.303,167.541,-156.188,1
7.918269,0.024,0.333,-1.375,95.153,159.057,-154.663,1
7.926275,0.07,0.249,-1.444,100.769,151.367,-152.465,1
7.933594,0.122,0.172,-1.511,106.689,142.15,-148.437,1
7.941742,0.194,0.106,-1.551,111.816,134.277,-145.08,1
7.949376,0.214,0.058,-1.608,111.022,126.525,-141.296,1
7.956523,0.26,0.01,-1.638,107.788,119.018,-137.39,1
7.965313,0.302,-0.023,-1.654,106.201,111.511,-133.239,1
7.97415,0.317,-0.039,-1.674,105.834,103.698,-129.028,1
7.981315,0.348,-0.072,-1.711,107.055,96.008,-124.633,1
7.987966,0.373,-0.105,-1.76,105.285,86.303,-119.384,1
7.996335,0.369,-0.138,-1.766,102.111,78.308,-114.746,1
8.003566,0.378,-0.152,-1.756,100.585,70.251,-110.534,1
8.012321,0.367,-0.161,-1.738,100.646,62.072,-106.445,1
8.019757,0.358,-0.179,-1.703,99.67,54.504,-102.172,1
8.028341,0.34,-0.187,-1.653,99.182,45.654,-97.839,1
8.036315,0.32,-0.208,-1.586,102.233,38.574,-94.421,1
8.043878,0.291,-0.24,-1.475,105.529,31.433,-90.27,1
8.053216,0.252,-0.262,-1.37,104.919,26.428,-86.608,1
8.061102,0.216,-0.289,-1.215,104.675,22.399,-83.679,1
8.068084,0.179,-0.31,-1.072,111.755,19.348,-80.444,1
8.077037,0.162,-0.34,-0.937,124.023,17.883,-77.453,1
8.084519,0.124,-0.386,-0.802,134.887,17.578,-73.425,1
8.093616,0.089,-0.414,-0.67,139.343,19.47,-69.152,1
8.101538,0.06,-0.431,-0.545,141.113,22.949,-65.063,1
8.108589,0.019,-0.452,-0.429,142.395,28.808,-59.997,1
8.118289,-0.015,-0.469,-0.347,142.333,34.545,-55.175,1
8.125421,-0.047,-0.495,-0.272,140.991,41.381,-49.621,1
8.134462,-0.071,-0.524,-0.201,137.512,50.109,-43.09,1
8.141756,-0.114,-0.546,-0.143,132.263,60.302,-35.461,1
8.150356,-0.169,-0.575,-0.108,124.999,69.458,-27.893,1
8.157653,-0.201,-0.604,-0.083,114.135,79.711,-19.653,1
8.166636,-0.257,-0.622,-0.052,97.656,92.895,-9.643,1
8.173335,-0.314,-0.63,-0.022,83.129,104.553,-0.549,1
8.182509,-0.369,-0.632,-0.009,71.96,116.271,9.094,1
8.190209,-0.425,-0.648,-0.013,58.593,129.943,20.568,1
8.197644,-0.48,-0.653,-0.045,47.363,141.174,30.7,1
8.206521,-0.533,-0.666,-0.097,31.188,154.296,42.846,1
8.214392,-0.586,-0.686,-0.15,15.441,165.344,53.894,1
8.221607,-0.675,-0.685,-0.22,0.671,176.452,65.246,1
8.230549,-0.777,-0.694,-0.323,-15.808,189.086,78.186,1
8.239383,-0.874,-0.726,-0.449,-35.888,199.584,89.599,1
8.246407,-1.038,-0.735,-0.608,-59.692,212.158,102.233,1
8.255476,-1.182,-0.747,-0.755,-75.866,221.313,111.999,1
8.262757,-1.392,-0.75,-0.899,-86.12,229.858,120.91,1
8.271001,-1.462,-0.834,-1.046,-111.083,239.746,131.713,1
8.279239,-1.559,-0.87,-1.219,-125.976,245.666,141.418,1
8.28708,-1.63,-0.902,-1.356,-118.896,248.168,154.052,1
8.294095,-1.765,-0.932,-1.503,-97.29,248.046,165.832,1
8.302809,-1.834,-1.019,-1.679,-77.514,245.605,179.138,1
8.309673,-1.933,-1.108,-1.879,-70.434,241.699,194.335,1
8.318222,-2.1,-1.18,-2.037,-67.077,237.609,209.289,1
8.326244,-2.138,-1.219,-2.194,-55.053,228.332,225.28,1
8.33397,-2.041,-1.312,-2.449,-37.719,218.017,242.797,1
8.343051,-2.083,-1.428,-2.683,-19.226,200.256,264.77,1
8.349952,-2.105,-1.539,-2.953,-5.859,179.016,288.696,1
8.358875,-2.02,-1.611,-3.164,-5.798,158.508,309.997,1
8.367842,-2.035,-1.71,-3.46,3.906,130.615,336.364,1
8.374866,-2.11,-1.84,-3.638,21.972,102.233,359.741,1
8.383625,-2.33,-1.868,-3.9,44.616,65.612,388.793,1
8.391433,-2.629,-1.957,-4.069,57.922,32.348,413.696,1
8.399538,-2.942,-1.938,-4.231,56.213,0.366,439.453,1
8.408501,-3.345,-1.784,-4.334,70.068,-40.283,468.322,1
8.415502,-3.662,-1.582,-4.33,91.796,-74.951,491.943,1
8.424791,-4.041,-1.245,-4.254,112.182,-118.408,515.502,1
8.432028,-4.422,-0.822,-4.066,133.3,-156.738,531.921,1
8.441513,-4.724,-0.481,-3.857,160.827,-204.04,545.959,1
8.448951,-5.016,-0.138,-3.61,186.889,-244.445,553.588,1
8.456166,-5.222,0.277,-3.364,205.322,-290.405,557.556,1
8.464099,-5.387,0.64,-3.157,202.758,-328.002,556.213,1
8.472014,-5.499,1.069,-2.91,182.495,-359.619,551.696,1
8.480113,-5.654,1.615,-2.651,158.325,-396.301,541.87,1
8.489403,-5.779,2.105,-2.362,161.315,-426.513,528.747,1
8.496779,-5.797,2.715,-1.992,190.734,-459.96,510.375,1
8.504486,-5.878,3.282,-1.586,250.061,-499.999,479.675,1
8.513447,-5.973,3.829,-1.109,305.419,-533.508,443.115,1
8.520876,-5.981,4.413,-0.464,352.844,-562.683,388.244,1
8.528845,-5.727,4.744,0.05,363.525,-577.941,333.618,1
8.537492,-5.163,4.917,0.502,353.149,-583.74,275.695,1
8.54545,-4.73,5.07,0.907,349.792,-586.12,216.552,1
8.552547,-4.348,5.149,1.399,375.061,-582.275,145.751,1
8.560162,-4.035,4.91,1.673,388.183,-573.242,84.289,1
8.569124,-3.639,4.369,1.914,354.248,-552.917,27.404,1
8.577002,-3.386,3.958,2.049,255.126,-522.888,-26.55,1
8.586036,-3.065,3.628,2.285,169.494,-492.736,-61.706,1
8.593165,-2.789,3.33,2.393,89.538,-457.824,-90.942,1
8.6023,-2.468,3.088,2.58,42.358,-431.396,-109.802,1
8.609759,-2.034,2.735,2.696,17.639,-398.864,-124.633,1
8.618726,-1.705,2.496,2.764,4.882,-377.441,-134.399,1
8.625432,-1.468,2.225,2.736,31.433,-347.839,-144.409,1
8.634706,-1.231,1.959,2.69,49.743,-333.496,-153.076,1
8.642339,-1.011,1.635,2.715,55.908,-304.382,-160.766,1
8.650242,-0.808,1.401,2.694,40.1,-285.827,-166.32,1
8.659087,-0.611,1.162,2.764,25.573,-260.253,-169.189,1
8.666275,-0.473,0.975,2.731,3.356,-237.243,-171.203,1
8.675187,-0.336,0.815,2.785,-6.225,-214.294,-170.776,1
8.684637,-0.218,0.693,2.746,-5.249,-192.016,-170.227,1
8.691965,-0.104,0.552,2.762,10.375,-168.212,-168.762,1
8.699588,-0.029,0.414,2.681,20.263,-149.108,-167.48,1
8.707673,0.033,0.258,2.596,25.695,-129.76,-165.405,1
8.716538,0.116,0.12,2.496,28.747,-107.91,-161.254,1
8.723593,0.195,-0.005,2.394,28.442,-90.148,-156.677,1
8.731231,0.273,-0.131,2.25,26.245,-70.739,-149.902,1
8.739341,0.347,-0.222,2.122,24.414,-55.48,-143.127,1
8.747739,0.409,-0.279,1.994,20.568,-41.564,-135.742,1
8.756947,0.45,-0.329,1.865,12.695,-28.686,-128.173,1
8.764469,0.485,-0.365,1.718,-4.882,-14.038,-118.835,1
8.771715,0.498,-0.379,1.59,-23.62,-3.54,-111.633,1
8.780354,0.506,-0.364,1.488,-40.039,7.446,-103.21,1
8.789509,0.527,-0.349,1.396,-41.748,14.099,-96.435,1
8.796139,0.544,-0.354,1.305,-33.081,19.653,-89.599,1
8.803723,0.561,-0.373,1.233,-19.348,24.902,-81.848,1
8.812864,0.589,-0.398,1.16,-10.375,29.418,-75.195,1
8.820458,0.619,-0.408,1.081,-6.835,34.301,-67.626,1
8.828478,0.632,-0.39,1.002,-7.812,39.978,-59.387,1
8.83618,0.633,-0.354,0.933,-10.375,44.372,-53.039,1
8.844147,0.652,-0.305,0.847,-11.474,47.912,-47.241,1
8.851775,0.671,-0.266,0.775,-10.864,51.147,-41.503,1
8.86094,0.679,-0.241,0.717,-8.911,53.588,-36.804,1
8.869236,0.706,-0.225,0.661,-5.859,55.358,-32.531,1
8.876759,0.751,-0.214,0.596,-2.99,57.434,-26.977,1
8.884582,0.762,-0.195,0.545,-3.051,59.204,-21.789,1
8.892809,0.767,-0.163,0.493,-7.69,61.157,-16.296,1
8.90013,0.77,-0.122,0.453,-12.329,62.072,-12.145,1
8.909233,0.77,-0.068,0.419,-13.916,62.744,-8.178,1
8.91657,0.78,-0.012,0.37,-10.009,62.194,-4.516,1
8.925245,0.784,0.024,0.332,-5.004,61.584,-1.525,1
8.932122,0.807,0.073,0.27,-0.732,60.668,1.159,1
8.941061,0.824,0.109,0.233,1.281,59.875,3.295,1
8.94835,0.84,0.154,0.191,1.342,58.654,5.187,1
8.955781,0.838,0.186,0.165,-0.366,58.105,6.774,1
8.963243,0.818,0.21,0.144,-2.197,57.189,8.117,1
8.971382,0.813,0.231,0.131,-3.356,56.518,8.666,1
8.978147,0.813,0.253,0.119,-3.723,55.725,9.094,1
8.985956,0.8,0.271,0.104,-4.272,54.931,9.338,1
8.993772,0.788,0.295,0.095,-5.432,54.504,9.46,1
9.001178,0.784,0.328,0.066,-7.995,53.833,9.155,1
9.009252,0.782,0.356,0.04,-10.681,52.856,8.422,1
9.017378,0.795,0.378,0.012,-11.718,51.696,7.934,1
9.026038,0.802,0.388,-0.015,-12.268,50.048,7.08,1
9.033163,0.811,0.395,-0.031,-12.695,48.217,6.713,1
9.040655,0.817,0.398,-0.056,-13.0,46.508,6.103,1
9.048273,0.832,0.404,-0.061,-12.695,44.555,5.187,1
9.057591,0.835,0.411,-0.068,-10.192,42.602,4.577,1
9.065505,0.837,0.409,-0.066,-5.737,39.978,3.479,1
9.072574,0.85,0.409,-0.059,-0.915,38.024,2.99,1
9.081413,0.855,0.404,-0.066,1.953,36.071,2.685,1
9.088403,0.857,0.4,-0.079,0.671,34.423,2.319,1
9.09591,0.872,0.397,-0.092,-4.943,33.264,2.258,1
9.104048,0.881,0.396,-0.104,-11.169,31.86,2.075,1
9.112912,0.895,0.396,-0.103,-16.235,30.456,1.77,1
9.119947,0.912,0.402,-0.099,-18.249,28.625,1.831,1
9.127041,0.92,0.405,-0.094,-16.601,26.428,1.525,1
9.136355,0.921,0.415,-0.088,-11.413,24.047,1.464,1
9.143803,0.92,0.428,-0.073,-2.99,21.728,1.281,1
9.151911,0.925,0.43,-0.059,6.286,19.409,1.098,1
9.158616,0.912,0.441,-0.044,17.639,16.967,0.976,1
9.166023,0.906,0.453,-0.034,25.817,15.014,0.671,1
9.173858,0.891,0.463,-0.034,32.531,13.366,0.122,1
9.182485,0.888,0.467,-0.042,36.376,12.023,-0.488,1
9.189805,0.895,0.466,-0.054,36.682,10.681,-1.22,1
9.19895,0.905,0.472,-0.054,34.667,9.826,-1.953,1
9.206868,0.907,0.477,-0.063,30.334,8.544,-2.807,1
9.214919,0.925,0.479,-0.07,27.16,7.873,-3.479,1
9.222148,0.939,0.494,-0.081,24.169,6.958,-4.394,1
9.231055,0.944,0.498,-0.087,22.277,6.042,-5.065,1
9.238856,0.945,0.506,-0.096,20.385,5.249,-6.042,1
9.248091,0.937,0.517,-0.095,20.019,4.455,-7.019,1
9.255903,0.937,0.517,-0.088,20.629,3.417,-8.3,1
9.263382,0.942,0.518,-0.082,22.094,2.502,-9.643,1
9.27128,0.948,0.514,-0.076,22.033,1.708,-10.925,1
9.279453,0.946,0.5,-0.068,20.935,1.525,-12.023,1
9.286414,0.945,0.477,-0.05,17.272,1.77,-13.061,1
9.295205,0.947,0.464,-0.047,12.756,1.586,-14.465,1
9.302246,0.965,0.456,-0.033,11.474,2.014,-15.319,1
9.311117,0.982,0.455,-0.028,15.197,1.647,-16.357,1
9.31796,0.995,0.449,-0.033,20.996,1.159,-17.211,1
9.327133,1.003,0.433,-0.045,25.39,0.976,-17.7,1
9.334028,1.001,0.418,-0.05,25.573,0.915,-18.127,1
9.342752,1.001,0.402,-0.05,22.827,1.22,-18.493,1
9.350902,1.009,0.403,-0.037,20.446,1.342,-18.554,1
9.357894,1.01,0.409,-0.016,20.446,1.403,-18.737,1
9.36555,1.017,0.416,-0.002,22.399,1.403,-18.798,1
9.373461,1.025,0.41,0.015,25.024,1.586,-19.226,1
9.381033,1.033,0.405,0.025,26.733,1.953,-18.981,1
9.388615,1.04,0.404,0.034,27.099,2.441,-19.042,1
9.397481,1.038,0.402,0.042,27.282,2.929,-18.859,1
9.404695,1.035,0.404,0.047,26.123,4.15,-18.92,1
9.412319,1.028,0.403,0.058,24.475,5.065,-18.92,1
9.420068,1.023,0.399,0.062,22.277,5.92,-18.859,1
9.429336,1.014,0.39,0.068,18.92,7.324,-18.859,1
9.436005,1.005,0.379,0.075,16.113,8.239,-18.92,1
9.44357,1.001,0.373,0.084,13.916,9.399,-18.798,1
9.451342,1.001,0.361,0.089,11.84,10.314,-18.737,1
9.460467,0.999,0.357,0.094,9.094,11.596,-18.737,1
9.467069,0.998,0.352,0.104,5.554,13.0,-18.737,1
9.476274,1.005,0.347,0.104,0.976,14.77,-18.493,1
9.48348,0.988,0.346,0.094,-6.774,16.479,-18.066,1
9.492538,0.957,0.362,0.103,-14.16,18.432,-17.944,1
9.498521,0.945,0.372,0.097,-20.507,20.568,-18.127,1
9.506331,0.957,0.373,0.093,-23.803,21.789,-18.066,1
9.513825,0.948,0.377,0.092,-24.963,23.62,-18.493,1
9.521773,0.95,0.368,0.079,-25.634,24.047,-18.737,1
9.528783,0.948,0.366,0.072,-26.245,25.207,-19.042,1
9.536874,0.961,0.353,0.06,-27.77,25.329,-18.737,1
9.54489,1.0,0.346,0.068,-26.855,24.963,-19.348,1
9.552108,1.0,0.347,0.074,-18.066,24.78,-20.263,1
9.560257,0.991,0.348,0.087,-1.464,23.315,-20.874,1
9.567761,1.02,0.34,0.086,23.498,21.24,-20.996,1
9.575274,1.015,0.322,0.091,46.691,18.92,-21.789,1
9.583211,1.045,0.264,0.088,52.612,17.761,-21.118,1
9.592355,1.019,0.189,0.032,33.508,17.578,-19.47,1
9.599423,0.943,0.169,-0.017,-1.403,19.958,-19.104,1
9.608352,1.048,0.072,-0.027,-41.931,21.118,-16.845,1
9.616136,0.959,0.091,-0.108,-90.515,21.789,-14.953,1
9.623624,0.899,0.098,-0.1,-139.404,23.437,-13.183,1
9.632515,0.856,0.14,-0.105,-169.86,25.573,-11.352,1
9.639484,0.831,0.166,-0.069,-180.969,27.587,-9.521,1
9.648154,0.823,0.167,-0.083,-182.434,29.113,-7.507,1
9.655795,0.854,0.138,-0.083,-181.823,29.479,-4.76,1
9.665122,0.979,0.144,-0.101,-175.231,28.93,-2.746,1
9.672674,0.984,0.173,-0.091,-156.494,27.465,-0.671,1
9.680161,0.947,0.207,-0.108,-116.516,24.23,1.037,1
9.687686,0.905,0.246,-0.098,-68.542,21.057,1.464,1
9.695987,0.896,0.257,-0.107,-17.456,16.54,2.014,1
9.704408,0.895,0.253,-0.125,29.113,12.756,2.197,1
9.712341,0.864,0.228,-0.154,65.612,9.643,2.99,1
9.719659,0.862,0.186,-0.194,74.34,8.605,3.234,1
9.72875,0.883,0.147,-0.21,63.293,8.911,3.662,1
9.736478,0.867,0.119,-0.231,38.94,9.948,4.028,1
9.744327,0.848,0.109,-0.228,1.953,11.413,4.516,1
9.752086,0.83,0.117,-0.222,-28.686,13.977,5.432,1
9.760176,0.834,0.124,-0.227,-53.955,15.014,6.103,1
9.767211,0.854,0.144,-0.219,-62.438,15.686,7.08,1
9.776212,0.875,0.167,-0.212,-57.617,14.404,8.3,1
9.78321,0.886,0.194,-0.216,-38.696,12.878,8.972,1
9.792391,0.885,0.207,-0.22,-7.446,10.07,9.948,1
9.799148,0.879,0.195,-0.233,15.747,7.812,10.742,1
9.806536,0.877,0.169,-0.251,28.198,6.469,11.23,1
9.814688,0.875,0.154,-0.27,28.015,5.31,11.901,1
9.821919,0.877,0.135,-0.284,16.235,4.943,12.329,1
9.830912,0.9,0.116,-0.303,-2.624,4.882,12.939,1
9.83818,0.931,0.119,-0.3,-24.108,4.76,13.732,1
9.847315,0.949,0.13,-0.295,-35.034,4.028,14.404,1
9.854231,0.952,0.137,-0.284,-36.376,1.77,15.197,1
9.862306,0.95,0.146,-0.267,-28.503,-0.244,15.686,1
9.871082,0.95,0.164,-0.262,-14.587,-2.624,15.93,1
9.87868,0.949,0.178,-0.245,6.286,-5.859,15.93,1
9.887526,0.942,0.189,-0.23,23.254,-8.056,15.93,1
9.895543,0.932,0.195,-0.213,36.865,-9.643,15.991,1
9.902957,0.928,0.193,-0.201,45.532,-10.864,16.357,1
9.910825,0.927,0.198,-0.186,49.987,-11.474,16.418,1
9.918107,0.904,0.207,-0.166,51.086,-11.23,16.967,1
9.927912,0.882,0.2,-0.161,48.095,-10.62,17.517,1
9.935851,0.905,0.189,-0.153,37.231,-9.094,18.554,1
9.943321,0.937,0.182,-0.139,22.583,-7.263,20.324,1
9.950863,0.944,0.187,-0.134,10.07,-5.92,21.423,1
9.959916,0.946,0.195,-0.126,0.61,-4.516,22.949,1
9.967152,0.96,0.215,-0.128,-7.69,-3.417,24.536,1
9.974801,0.971,0.23,-0.117,-10.131,-2.624,25.817,1
9.982735,0.976,0.244,-0.119,-8.728,-2.563,26.855,1
9.992336,0.983,0.256,-0.118,-5.065,-2.441,27.526,1
9.999337,0.995,0.264,-0.125,-1.403,-2.502,28.137,1
