timestamp_s,ax,ay,az,gx,gy,gz,label
0.006224,-0.017,1.01,0.181,0.915,-9.094,-5.065,1
0.012913,-0.009,1.002,0.173,-0.122,-8.605,-5.004,1
0.021299,-0.002,0.997,0.176,-0.183,-8.056,-5.126,1
0.028967,0.005,0.996,0.188,0.854,-7.568,-4.943,1
0.037427,0.011,0.983,0.185,2.075,-6.713,-5.065,1
0.044154,0.005,0.976,0.17,3.173,-6.774,-4.455,1
0.051838,0.008,0.971,0.187,3.051,-6.469,-4.272,1
0.059203,0.01,0.972,0.201,3.112,-5.432,-4.211,1
0.067572,0.014,0.96,0.199,2.502,-5.065,-3.967,1
0.074345,0.013,0.948,0.2,1.464,-4.577,-3.662,1
0.082652,0.016,0.941,0.204,0.488,-3.54,-3.173,1
0.089082,0.021,0.939,0.208,-0.61,-2.868,-2.624,1
0.097065,0.024,0.93,0.206,-1.586,-2.258,-2.197,1
0.104767,0.031,0.929,0.209,-2.197,-1.281,-1.403,1
0.112568,0.034,0.925,0.2,-2.38,-0.915,-0.854,1
0.120709,0.037,0.918,0.189,-2.197,-0.122,-0.244,1
0.127248,0.038,0.92,0.18,-1.77,0.244,0.488,1
0.134154,0.039,0.917,0.172,-1.342,0.732,0.915,1
0.141792,0.038,0.92,0.158,-0.061,0.976,1.831,1
0.150522,0.037,0.927,0.147,0.671,1.22,2.38,1
0.157107,0.03,0.935,0.141,1.586,1.159,2.99,1
0.165218,0.03,0.942,0.137,2.075,1.342,3.479,1
0.173164,0.023,0.952,0.129,2.014,1.403,3.967,1
0.179897,0.017,0.957,0.122,1.77,1.342,4.699,1
0.186609,0.017,0.965,0.109,1.22,1.647,4.638,1
0.193983,0.015,0.98,0.107,1.403,1.342,4.943,1
0.201975,0.014,0.98,0.099,1.525,1.464,5.065,1
0.208776,0.014,0.984,0.092,1.342,1.098,5.187,1
0.217199,0.01,0.987,0.08,1.098,0.793,5.31,1
0.225151,0.007,0.987,0.073,0.061,0.61,5.859,1
0.231918,-0.003,0.969,0.044,-2.807,0.061,5.981,1
0.238968,0.0,0.975,0.036,-4.821,-0.671,6.408,1
0.247626,0.002,0.989,0.025,-2.99,-1.953,7.202,1
0.254365,0.011,0.979,0.017,-0.366,-3.417,8.361,1
0.262551,0.03,0.985,0.029,2.624,-4.699,9.094,1
0.269647,0.056,1.017,0.046,5.798,-5.249,9.338,1
0.278047,0.056,1.059,0.061,7.507,-5.798,8.789,1
0.284525,0.044,1.11,0.062,8.3,-6.042,7.995,1
0.291407,0.012,1.171,0.046,8.361,-6.225,6.53,1
0.29992,0.001,1.238,-0.006,11.047,-6.835,4.394,1
0.306312,0.0,1.335,-0.062,13.671,-8.361,1.342,1
0.314848,0.006,1.457,-0.108,14.221,-9.399,-1.037,1
0.32139,0.015,1.555,-0.165,11.413,-10.864,-5.004,1
0.329823,0.041,1.679,-0.279,3.601,-12.39,-9.582,1
0.337629,0.06,1.762,-0.4,-8.483,-14.526,-15.441,1
0.346017,0.08,1.838,-0.541,-22.399,-17.15,-20.812,1
0.354401,0.1,1.922,-0.684,-42.907,-20.568,-27.282,1
0.361936,0.124,1.968,-0.81,-63.842,-23.559,-32.714,1
0.369876,0.144,1.988,-0.944,-88.195,-26.855,-38.146,1
0.376947,0.171,1.962,-1.065,-114.807,-31.066,-43.029,1
0.384567,0.193,1.898,-1.174,-143.859,-36.01,-46.813,1
0.392963,0.224,1.837,-1.261,-173.278,-42.053,-49.987,1
0.399965,0.245,1.807,-1.333,-197.753,-49.621,-51.696,1
0.407108,0.246,1.793,-1.351,-212.768,-58.593,-52.551,1
0.415598,0.227,1.778,-1.35,-217.041,-68.237,-52.795,1
0.424072,0.168,1.746,-1.331,-215.087,-77.575,-52.978,1
0.43274,0.105,1.722,-1.291,-211.242,-86.975,-52.001,1
0.439261,0.059,1.74,-1.251,-206.359,-96.862,-51.086,1
0.448158,0.036,1.74,-1.204,-205.383,-102.722,-50.354,1
0.456131,0.104,1.775,-1.172,-208.129,-109.252,-49.926,1
0.464242,0.1,1.776,-1.134,-231.323,-115.905,-48.461,1
0.470937,0.019,1.805,-1.063,-250.122,-118.225,-45.837,1
0.479355,-0.06,1.844,-1.046,-266.418,-121.643,-43.579,1
0.487509,-0.103,1.886,-1.033,-277.832,-124.633,-41.687,1
0.494694,-0.121,1.895,-1.015,-279.968,-128.479,-40.771,1
0.502703,-0.15,1.912,-1.002,-277.709,-131.713,-40.893,1
0.510048,-0.15,1.888,-0.967,-271.545,-134.948,-41.687,1
0.518569,-0.145,1.914,-0.984,-263.549,-138.366,-43.823,1
0.525144,-0.186,1.893,-0.978,-257.263,-142.944,-45.288,1
0.533755,-0.267,1.897,-0.938,-251.22,-144.348,-45.776,1
0.541103,-0.294,1.965,-0.921,-243.53,-147.766,-46.264,1
0.550425,-0.335,2.041,-0.986,-229.37,-149.658,-48.278,1
0.55839,-0.305,2.058,-1.021,-214.538,-154.968,-50.415,1
0.566826,-0.242,2.08,-1.046,-207.763,-158.081,-50.109,1
0.574686,-0.225,2.143,-1.091,-202.514,-163.513,-52.856,1
0.582622,-0.224,2.176,-1.062,-197.57,-166.442,-56.579,1
0.589981,-0.241,2.18,-1.003,-195.678,-169.189,-61.767,1
0.598448,-0.333,2.126,-0.928,-200.683,-170.715,-67.871,1
0.607044,-0.422,2.008,-0.798,-208.312,-170.776,-71.166,1
0.615071,-0.482,1.931,-0.662,-212.524,-169.067,-73.852,1
0.622377,-0.438,1.86,-0.591,-208.557,-171.081,-77.209,1
0.62947,-0.489,1.775,-0.437,-195.922,-172.546,-79.101,1
0.637859,-0.513,1.691,-0.301,-176.025,-171.447,-80.2,1
0.645756,-0.517,1.495,-0.266,-161.926,-171.874,-80.871,1
0.653663,-0.494,1.381,-0.129,-148.864,-171.447,-80.688,1
0.661462,-0.398,1.196,-0.024,-133.789,-168.273,-80.322,1
0.668622,-0.323,0.946,-0.032,-128.173,-165.222,-78.491,1
0.677464,-0.266,0.686,-0.016,-130.92,-160.766,-75.5,1
0.684401,-0.206,0.426,-0.022,-138.366,-156.616,-70.068,1
0.69254,-0.114,0.289,-0.017,-144.165,-151.977,-63.598,1
0.699477,-0.056,0.219,-0.032,-148.925,-146.972,-55.725,1
0.709113,-0.035,0.239,-0.045,-152.893,-142.761,-50.292,1
0.715745,0.032,0.254,-0.07,-158.996,-138.305,-43.212,1
0.724892,0.214,0.151,-0.072,-182.434,-134.521,-36.804,1
0.732891,0.121,0.17,-0.044,-219.299,-124.816,-27.587,1
0.73935,0.134,0.168,-0.067,-269.165,-117.309,-18.493,1
0.748045,0.101,0.207,-0.04,-303.771,-107.543,-10.437,1
0.756024,0.168,0.214,-0.081,-329.345,-101.745,-3.051,1
0.764086,0.194,0.211,-0.053,-346.74,-93.688,7.019,1
0.772209,0.21,0.221,-0.076,-353.881,-87.28,16.296,1
0.779104,0.161,0.29,-0.088,-353.332,-81.115,23.681,1
0.786101,0.129,0.361,-0.131,-340.27,-76.293,28.991,1
0.794318,0.126,0.415,-0.172,-312.622,-74.523,32.653,1
0.80077,0.109,0.48,-0.196,-277.343,-73.059,35.644,1
0.808308,0.086,0.575,-0.257,-221.801,-71.533,37.048,1
0.81572,0.061,0.698,-0.328,-150.024,-73.913,34.851,1
0.823681,0.051,0.703,-0.413,-71.594,-80.2,31.738,1
0.83211,0.084,0.65,-0.488,-14.099,-80.932,29.357,1
0.838749,0.158,0.601,-0.643,2.624,-82.641,26.306,1
0.845473,0.123,0.573,-0.735,-17.089,-81.298,23.62,1
0.854825,-0.083,0.827,-1.097,-28.625,-52.49,23.376,1
0.861151,0.038,0.917,-1.686,-75.683,-90.454,11.413,1
0.869527,-0.155,0.739,-1.302,-110.29,-62.622,8.3,1
0.876561,0.615,0.806,-1.964,-212.463,-58.105,0.183,1
0.885065,0.297,0.822,-1.65,-327.514,-62.438,-8.605,1
0.893036,0.318,0.702,-1.726,-401.977,-36.437,-9.582,1
0.900495,0.423,0.846,-1.718,-442.993,-54.809,-12.634,1
0.908955,0.309,0.939,-1.366,-395.751,-50.72,-9.399,1
0.916001,0.446,1.018,-1.45,-316.65,-69.091,-4.882,1
0.924398,0.591,1.104,-1.206,-237.121,-81.726,0.732,1
0.931131,0.766,1.18,-1.17,-159.667,-93.139,5.92,1
0.939424,0.767,1.138,-1.039,-119.689,-108.093,8.117,1
0.946544,0.637,1.034,-0.839,-108.642,-112.915,10.864,1
0.9534,0.54,0.979,-0.745,-129.028,-115.234,11.291,1
0.961566,0.477,1.042,-0.65,-157.653,-112.609,10.742,1
0.968502,0.403,1.097,-0.637,-182.8,-112.792,7.202,1
0.977086,0.284,1.157,-0.466,-195.434,-112.06,2.014,1
0.983949,0.284,1.162,-0.359,-196.899,-109.863,-2.441,1
0.992323,0.271,1.131,-0.224,-199.279,-111.328,-6.652,1
1.000271,0.228,1.067,-0.102,-201.171,-109.802,-9.521,1
1.008723,0.247,1.049,0.0,-202.941,-111.511,-12.023,1
1.015424,0.28,1.01,0.162,-197.753,-112.304,-13.427,1
1.023869,0.28,0.958,0.306,-191.955,-111.877,-14.953,1
1.031818,0.203,0.886,0.469,-190.185,-111.022,-15.93,1
1.038852,0.308,0.838,0.595,-189.27,-107.299,-15.93,1
1.048502,0.458,0.775,0.703,-184.692,-104.98,-16.723,1
1.054621,0.448,0.733,0.83,-171.874,-101.074,-18.249,1
1.062323,0.493,0.656,0.971,-156.005,-97.045,-20.08,1
1.070525,0.573,0.598,1.078,-137.023,-91.43,-22.338,1
1.076989,0.685,0.522,1.195,-115.234,-85.266,-24.353,1
1.084941,0.778,0.43,1.305,-95.275,-76.66,-25.329,1
1.093564,0.826,0.333,1.365,-84.655,-67.443,-26.672,1
1.100307,0.898,0.223,1.396,-85.998,-54.138,-27.832,1
1.107941,0.948,0.13,1.406,-96.374,-43.823,-28.503,1
1.115851,0.998,0.037,1.403,-102.539,-35.034,-28.747,1
1.123915,1.039,-0.018,1.405,-102.355,-25.146,-28.564,1
1.131795,1.085,-0.073,1.4,-85.754,-16.662,-27.954,1
1.138918,1.186,-0.164,1.414,-54.382,-11.474,-27.343,1
1.146898,1.201,-0.269,1.342,-22.766,-1.281,-25.817,1
1.153693,1.25,-0.369,1.359,-10.742,5.615,-24.536,1
1.16135,1.294,-0.417,1.278,-7.507,17.517,-23.925,1
1.169173,1.338,-0.434,1.252,-11.474,24.658,-23.315,1
1.177297,1.335,-0.445,1.196,-9.155,36.743,-21.667,1
1.185263,1.272,-0.43,1.058,-6.225,44.86,-20.446,1
1.192918,1.214,-0.422,0.912,-8.666,52.917,-18.676,1
1.201412,1.316,-0.381,0.699,-14.282,59.814,-16.723,1
1.208745,1.245,-0.297,0.54,-23.62,63.903,-15.319,1
1.215252,1.179,-0.198,0.385,-30.456,67.687,-15.075,1
1.223267,1.059,-0.094,0.213,-41.442,70.495,-15.869,1
1.230076,0.965,-0.004,0.079,-55.725,71.899,-17.333,1
1.238388,0.851,0.116,-0.09,-73.12,71.899,-19.958,1
1.245493,0.753,0.262,-0.263,-92.773,71.411,-24.536,1
1.25364,0.709,0.345,-0.403,-117.797,70.373,-30.029,1
1.26165,0.678,0.429,-0.57,-142.089,68.481,-36.743,1
1.268531,0.57,0.48,-0.792,-167.785,65.551,-44.433,1
1.276785,0.481,0.539,-0.913,-190.002,59.631,-52.246,1
1.284585,0.306,0.562,-1.08,-201.232,53.771,-60.363,1
1.292301,0.212,0.564,-1.18,-209.472,43.212,-68.359,1
1.300313,0.0,0.497,-1.279,-208.435,33.63,-75.683,1
1.307425,-0.088,0.399,-1.366,-211.486,18.371,-83.618,1
1.31551,-0.277,0.237,-1.453,-218.261,7.568,-88.806,1
1.322365,-0.437,0.056,-1.498,-230.895,-6.164,-93.2,1
1.330906,-0.587,-0.122,-1.494,-248.596,-19.165,-96.13,1
1.33885,-0.776,-0.328,-1.489,-261.596,-32.592,-97.412,1
1.347193,-0.918,-0.596,-1.432,-265.441,-50.476,-95.581,1
1.355243,-0.983,-0.857,-1.359,-252.807,-67.199,-90.881,1
1.361822,-1.047,-1.181,-1.275,-233.398,-84.472,-82.214,1
1.369905,-1.037,-1.547,-1.183,-214.843,-100.83,-69.335,1
1.378504,-1.093,-1.912,-1.025,-197.143,-119.873,-49.926,1
1.387037,-1.181,-2.245,-0.86,-173.767,-136.657,-26.794,1
1.395074,-1.203,-2.477,-0.654,-153.991,-151.794,-5.249,1
1.401839,-1.286,-2.674,-0.474,-123.474,-163.269,18.859,1
1.40953,-1.382,-2.837,-0.313,-87.646,-177.429,43.701,1
1.417533,-1.483,-2.95,-0.123,-44.067,-188.598,68.969,1
1.425891,-1.609,-3.147,0.03,-21.179,-201.721,94.543,1
1.432569,-1.768,-3.333,0.264,-14.099,-208.435,121.948,1
1.44066,-1.918,-3.428,0.482,-9.521,-214.05,150.878,1
1.449319,-2.106,-3.54,0.733,3.54,-218.017,186.218,1
1.456612,-2.28,-3.66,0.95,-2.502,-220.703,216.918,1
1.464882,-2.572,-3.672,1.153,-2.563,-218.627,248.84,1
1.471797,-2.856,-3.712,1.288,-22.705,-215.82,281.86,1
1.480025,-3.09,-3.653,1.495,-48.034,-208.19,316.955,1
1.486841,-3.519,-3.554,1.621,-80.749,-198.181,353.271,1
1.494981,-3.99,-3.395,1.809,-111.511,-184.997,389.709,1
1.501582,-4.419,-3.281,1.979,-135.009,-169.311,428.405,1
1.509609,-4.93,-3.074,2.204,-146.179,-150.634,466.979,1
1.518147,-5.477,-2.834,2.359,-136.657,-131.042,505.432,1
1.525454,-6.071,-2.64,2.472,-136.962,-107.604,544.128,1
1.53343,-6.787,-2.333,2.498,-140.991,-81.359,582.58,1
1.541128,-7.807,-1.949,2.448,-137.939,-52.185,625.427,1
1.548841,-8.715,-1.593,2.42,-153.625,-20.507,661.498,1
1.556515,-9.651,-1.197,2.287,-169.616,10.498,695.068,1
1.563549,-10.559,-0.895,2.243,-200.866,48.767,728.637,1
1.571115,-11.456,-0.536,2.142,-230.346,92.956,760.009,1
1.579449,-12.429,-0.119,2.089,-244.567,139.892,787.353,1
1.587554,-13.453,0.225,1.981,-252.197,191.04,811.645,1
1.594391,-14.494,0.564,1.824,-266.235,245.117,831.909,1
1.602776,-15.709,0.974,1.641,-283.447,303.344,847.595,1
1.610637,-15.995,1.322,1.481,-301.025,374.938,859.313,1
1.619039,-15.999,1.642,1.304,-322.448,440.856,863.22,1
1.62647,-15.999,2.024,1.147,-349.914,511.413,860.412,1
1.633426,-15.999,2.386,0.977,-371.948,583.862,849.792,1
1.641132,-15.999,2.633,0.734,-398.925,655.7,834.045,1
1.649622,-15.999,2.909,0.579,-425.231,730.102,812.072,1
1.657708,-15.999,3.124,0.243,-448.242,805.114,784.118,1
1.664091,-15.999,3.309,0.088,-458.19,872.741,749.694,1
1.671579,-15.999,3.418,-0.118,-452.331,940.795,711.547,1
1.679973,-15.999,3.555,-0.237,-447.509,995.91,668.762,1
1.687067,-15.999,3.482,-0.563,-447.021,1057.434,625.061,1
1.69552,-15.999,3.549,-0.862,-459.899,1099.67,574.157,1
1.702676,-15.999,3.485,-1.097,-521.728,1144.775,510.375,1
1.710626,-15.999,3.579,-1.445,-647.338,1185.669,429.992,1
1.718384,-15.999,3.432,-2.041,-844.055,1227.172,310.852,1
1.725546,-15.999,3.28,-2.84,-1043.518,1248.413,152.465,1
1.733541,-15.999,3.282,-3.358,-1138.0,1232.421,-28.259,1
1.741606,-15.999,2.64,-3.84,-1203.613,1181.03,-207.214,1
1.74826,-15.999,1.609,-3.831,-1308.105,1104.797,-373.962,1
1.755417,-15.999,0.974,-3.582,-1392.944,999.206,-523.742,1
1.763439,-15.999,0.724,-2.896,-1346.313,864.868,-650.756,1
1.772091,-15.999,0.365,-2.171,-1156.86,732.543,-737.487,1
1.779692,-15.999,-0.19,-1.886,-929.626,598.205,-784.24,1
1.78782,-15.726,-0.86,-1.665,-762.329,492.492,-799.56,1
1.795696,-14.114,-1.477,-1.614,-667.236,401.977,-794.189,1
1.803594,-12.833,-1.726,-1.545,-553.1,303.1,-774.414,1
1.811494,-11.655,-1.957,-1.519,-427.124,230.59,-748.535,1
1.81805,-10.523,-2.322,-1.631,-339.66,172.668,-715.148,1
1.825898,-9.222,-2.577,-1.671,-312.927,123.596,-678.344,1
1.834477,-8.227,-2.64,-1.596,-326.293,82.031,-638.366,1
1.84123,-7.193,-2.414,-1.35,-294.006,41.015,-600.28,1
1.849282,-6.27,-2.321,-1.213,-246.826,4.943,-563.781,1
1.857785,-5.513,-2.244,-0.976,-225.463,-23.803,-528.259,1
1.864769,-4.895,-2.115,-0.809,-224.243,-46.997,-486.938,1
1.873856,-4.491,-1.922,-0.622,-223.327,-65.979,-453.491,1
1.881958,-4.142,-1.696,-0.447,-202.636,-81.054,-421.447,1
1.890214,-3.78,-1.509,-0.318,-165.283,-99.548,-387.023,1
1.89864,-3.53,-1.41,-0.153,-124.999,-110.961,-355.102,1
1.906529,-3.289,-1.286,-0.037,-91.125,-119.323,-326.293,1
1.913605,-3.078,-1.24,0.034,-62.744,-122.741,-303.161,1
1.922239,-2.906,-1.138,0.086,-25.939,-125.732,-282.287,1
1.930902,-2.755,-1.115,0.08,17.028,-127.563,-264.587,1
1.938386,-2.545,-1.111,0.087,48.4,-126.708,-245.422,1
1.947107,-2.334,-1.126,0.08,65.673,-123.413,-230.773,1
1.955071,-2.155,-1.15,0.069,62.744,-119.75,-214.721,1
1.963309,-1.945,-1.115,0.085,51.635,-114.196,-202.026,1
1.971601,-1.76,-1.038,0.11,46.264,-110.351,-190.063,1
1.978426,-1.63,-0.991,0.127,45.715,-104.98,-177.368,1
1.986305,-1.547,-0.977,0.135,36.315,-100.341,-167.419,1
1.99455,-1.422,-0.938,0.144,24.78,-95.275,-157.531,1
2.002893,-1.315,-0.889,0.161,24.169,-92.163,-148.071,1
2.009575,-1.168,-0.858,0.201,38.146,-88.684,-138.854,1
2.016681,-1.061,-0.871,0.217,59.265,-85.266,-128.906,1
2.025312,-0.927,-0.933,0.202,70.129,-81.726,-121.887,1
2.033454,-0.815,-0.98,0.204,72.631,-77.148,-113.647,1
2.041615,-0.702,-1.012,0.191,67.871,-71.289,-103.332,1
2.049868,-0.576,-1.04,0.179,61.157,-66.467,-95.031,1
2.056518,-0.467,-1.037,0.186,51.818,-60.546,-84.35,1
2.065144,-0.413,-1.043,0.133,42.907,-54.138,-75.927,1
2.073267,-0.336,-1.041,0.116,32.043,-50.048,-67.565,1
2.080151,-0.25,-1.024,0.106,28.93,-44.982,-58.715,1
2.088872,-0.123,-1.03,0.105,31.249,-41.687,-50.537,1
2.09698,-0.04,-1.037,0.101,35.156,-35.156,-41.32,1
2.104783,0.022,-1.015,0.075,36.132,-30.334,-33.447,1
2.111631,0.064,-0.976,0.044,37.963,-24.169,-24.719,1
2.120122,0.102,-0.959,0.003,37.231,-20.324,-19.226,1
2.126725,0.14,-0.944,-0.035,31.738,-15.258,-12.451,1
2.135096,0.172,-0.92,-0.083,20.202,-10.437,-6.652,1
2.143104,0.199,-0.88,-0.144,5.737,-5.859,-1.037,1
2.151214,0.236,-0.847,-0.182,-10.009,-1.464,5.432,1
2.157888,0.264,-0.81,-0.237,-19.165,1.037,9.826,1
2.166322,0.284,-0.8,-0.269,-26.611,3.051,14.587,1
2.174725,0.317,-0.78,-0.278,-28.686,4.394,19.409,1
2.182828,0.336,-0.777,-0.31,-26.855,5.676,24.23,1
2.191258,0.34,-0.771,-0.308,-25.939,6.896,29.296,1
2.197788,0.371,-0.766,-0.337,-27.954,8.789,34.79,1
2.206194,0.376,-0.757,-0.344,-31.372,10.437,39.428,1
2.212918,0.402,-0.735,-0.369,-33.813,12.451,43.334,1
2.221094,0.454,-0.708,-0.401,-35.949,13.671,47.546,1
2.22797,0.484,-0.687,-0.44,-36.56,15.197,51.574,1
2.236406,0.5,-0.669,-0.475,-40.466,16.296,55.419,1
2.244591,0.503,-0.637,-0.516,-48.4,17.761,59.814,1
2.251631,0.503,-0.612,-0.541,-55.969,18.798,63.171,1
2.259981,0.507,-0.589,-0.554,-62.561,19.897,66.467,1
2.267,0.524,-0.562,-0.569,-68.603,20.874,69.458,1
2.275339,0.534,-0.546,-0.587,-73.12,21.85,72.509,1
2.282258,0.539,-0.523,-0.604,-73.913,21.911,75.561,1
2.290945,0.549,-0.492,-0.596,-69.274,21.911,79.101,1
2.298691,0.602,-0.486,-0.601,-60.607,20.996,83.007,1
2.306724,0.631,-0.47,-0.605,-47.363,21.118,88.439,1
2.314609,0.625,-0.427,-0.638,-37.658,20.996,93.017,1
2.321363,0.602,-0.382,-0.686,-30.7,19.836,96.862,1
2.33043,0.575,-0.336,-0.704,-26.184,18.615,100.463,1
2.337,0.542,-0.3,-0.713,-22.46,17.761,104.675,1
2.344858,0.535,-0.265,-0.718,-23.01,17.7,107.36,1
2.352922,0.548,-0.223,-0.738,-25.878,18.127,110.9,1
2.360897,0.598,-0.176,-0.758,-32.165,18.493,114.807,1
2.369014,0.629,-0.084,-0.801,-36.315,17.944,117.614,1
2.375738,0.654,0.02,-0.833,-34.301,15.869,119.14,1
2.383598,0.624,0.093,-0.859,-32.287,11.169,119.567,1
2.391385,0.599,0.146,-0.866,-22.888,11.901,120.605,1
2.39797,0.608,0.167,-0.893,-21.789,6.713,121.398,1
2.406104,0.617,0.184,-0.884,-22.399,5.92,122.436,1
2.413014,0.649,0.21,-0.915,-22.827,3.173,124.145,1
2.421214,0.683,0.251,-0.911,-18.005,0.366,125.305,1
2.429148,0.679,0.291,-0.916,-10.314,-2.075,126.953,1
2.437396,0.676,0.341,-0.932,-2.197,-5.432,128.173,1
2.445227,0.639,0.377,-0.923,3.845,-8.239,129.15,1
2.451893,0.592,0.415,-0.92,6.53,-10.559,129.821,1
2.458807,0.569,0.438,-0.911,4.882,-13.0,130.065,1
2.467154,0.544,0.47,-0.897,0.854,-14.282,129.699,1
2.474091,0.519,0.499,-0.881,-4.15,-16.296,129.333,1
2.482573,0.506,0.531,-0.862,-6.53,-17.883,128.906,1
2.489396,0.5,0.548,-0.841,-7.873,-20.141,127.99,1
2.496273,0.507,0.559,-0.812,-7.08,-21.911,127.258,1
2.504828,0.535,0.568,-0.798,-4.394,-24.353,126.708,1
2.511545,0.529,0.564,-0.775,1.586,-26.855,126.525,1
2.51873,0.497,0.552,-0.737,8.666,-29.785,126.586,1
2.527188,0.49,0.521,-0.697,16.174,-32.348,126.77,1
2.534152,0.498,0.492,-0.652,22.644,-34.851,127.746,1
2.542489,0.488,0.475,-0.589,30.334,-37.414,128.906,1
2.549115,0.481,0.452,-0.536,34.606,-39.428,130.859,1
2.557012,0.497,0.432,-0.508,34.179,-40.466,132.629,1
2.563804,0.489,0.458,-0.479,28.564,-40.649,134.277,1
2.570779,0.438,0.494,-0.503,21.667,-41.442,135.925,1
2.577702,0.495,0.53,-0.5,13.244,-41.259,136.962,1
2.586272,0.474,0.536,-0.517,-0.061,-42.236,137.817,1
2.592762,0.425,0.559,-0.515,-15.808,-41.198,139.038,1
2.600127,0.457,0.589,-0.522,-35.156,-40.771,140.502,1
2.608562,0.343,0.608,-0.513,-57.495,-39.672,141.479,1
2.615587,0.388,0.638,-0.491,-75.378,-37.78,142.944,1
2.623372,0.43,0.689,-0.5,-84.777,-35.705,144.104,1
2.631864,0.455,0.775,-0.527,-86.669,-35.278,145.385,1
2.640078,0.436,0.854,-0.557,-80.505,-35.461,145.996,1
2.646598,0.395,0.932,-0.581,-70.678,-36.193,145.812,1
2.654688,0.372,0.975,-0.613,-58.227,-37.536,145.202,1
2.662912,0.36,1.035,-0.637,-49.804,-38.696,144.104,1
2.671004,0.355,1.104,-0.675,-41.992,-40.344,142.211,1
2.677916,0.399,1.171,-0.706,-34.912,-42.602,140.563,1
2.686397,0.415,1.281,-0.742,-30.761,-44.006,138.122,1
2.693428,0.434,1.355,-0.779,-37.17,-46.325,133.544,1
2.701296,0.388,1.422,-0.818,-55.969,-46.813,129.699,1
2.708895,0.393,1.503,-0.857,-76.416,-48.034,125.183,1
2.7169,0.404,1.547,-0.869,-87.646,-50.537,120.239,1
2.723949,0.367,1.543,-0.861,-89.599,-52.856,114.868,1
2.732328,0.414,1.546,-0.845,-79.772,-55.908,110.107,1
2.739253,0.471,1.558,-0.812,-51.025,-60.18,105.712,1
2.747204,0.507,1.548,-0.77,-11.962,-65.307,101.257,1
2.755079,0.525,1.532,-0.743,16.113,-68.847,97.045,1
2.762021,0.528,1.524,-0.754,18.859,-71.166,92.163,1
2.770028,0.492,1.529,-0.729,5.493,-72.326,87.28,1
2.776529,0.482,1.54,-0.683,-10.803,-72.021,83.068,1
2.785132,0.508,1.546,-0.64,-27.099,-72.143,78.308,1
2.792959,0.525,1.537,-0.577,-34.362,-72.631,73.425,1
2.799654,0.568,1.52,-0.527,-29.602,-73.669,68.176,1
2.806462,0.558,1.505,-0.494,-26.367,-73.974,64.453,1
2.814682,0.562,1.482,-0.48,-31.921,-73.608,60.058,1
2.822367,0.554,1.484,-0.486,-47.363,-72.021,55.541,1
2.829366,0.537,1.526,-0.476,-64.208,-70.8,50.964,1
2.837298,0.54,1.56,-0.473,-72.021,-70.129,46.142,1
2.844447,0.542,1.576,-0.478,-71.166,-70.312,41.32,1
2.852841,0.552,1.578,-0.479,-65.246,-70.8,36.132,1
2.859506,0.558,1.552,-0.48,-59.387,-71.533,31.066,1
2.867711,0.569,1.52,-0.471,-54.016,-72.326,26.611,1
2.876938,0.596,1.492,-0.424,-45.715,-73.364,22.46,1
2.88498,0.608,1.478,-0.383,-32.714,-74.279,18.188,1
2.893318,0.589,1.463,-0.387,-28.015,-74.768,13.732,1
2.901473,0.539,1.455,-0.387,-33.081,-75.073,9.643,1
2.908035,0.514,1.469,-0.389,-33.874,-74.34,5.493,1
2.91764,0.492,1.416,-0.393,-35.827,-77.697,0.793,1
2.924649,0.489,1.377,-0.351,-40.222,-76.782,-3.54,1
2.933075,0.5,1.325,-0.342,-44.494,-77.88,-7.568,1
2.941282,0.484,1.262,-0.288,-49.255,-78.125,-10.925,1
2.948353,0.508,1.194,-0.27,-52.001,-76.721,-14.282,1
2.956701,0.51,1.127,-0.245,-49.682,-76.904,-17.028,1
2.963683,0.51,1.052,-0.208,-45.532,-75.378,-19.042,1
2.973077,0.518,1.004,-0.201,-41.32,-74.096,-21.118,1
2.979697,0.525,0.935,-0.211,-34.301,-73.73,-23.254,1
2.986746,0.524,0.875,-0.163,-29.235,-72.631,-23.986,1
2.994986,0.567,0.83,-0.148,-20.263,-71.899,-23.803,1
3.001936,0.596,0.813,-0.117,2.563,-72.753,-23.01,1
3.010246,0.619,0.773,-0.1,36.743,-74.157,-21.667,1
3.018312,0.608,0.741,-0.084,74.646,-76.049,-20.69,1
3.025211,0.636,0.696,-0.075,107.238,-76.293,-19.592,1
3.03319,0.661,0.637,-0.122,119.14,-74.584,-19.165,1
3.041301,0.641,0.571,-0.164,101.562,-72.753,-17.883,1
3.049003,0.625,0.561,-0.192,65.429,-69.641,-15.136,1
3.057482,0.651,0.581,-0.203,26.733,-68.054,-12.451,1
3.063879,0.698,0.643,-0.168,0.793,-67.443,-8.972,1
3.072341,0.749,0.693,-0.141,-8.178,-68.115,-5.981,1
3.079033,0.789,0.728,-0.107,-4.028,-68.786,-3.417,1
3.086949,0.832,0.749,-0.073,3.845,-69.58,-1.892,1
3.094552,0.866,0.755,-0.026,15.624,-69.152,-0.488,1
3.102695,0.89,0.768,0.0,20.141,-67.504,0.061,1
3.109485,0.884,0.777,0.001,16.662,-65.002,-0.549,1
3.115963,0.827,0.784,0.007,2.441,-61.401,-1.22,1
3.124252,0.732,0.801,0.003,-19.348,-57.006,-2.929,1
3.13085,0.698,0.842,0.012,-42.48,-51.879,-4.821,1
3.139105,0.678,0.884,0.005,-58.532,-48.034,-7.324,1
3.146916,0.66,0.939,0.021,-60.546,-45.837,-9.277,1
3.153615,0.637,0.985,0.017,-49.011,-44.372,-12.084,1
3.161618,0.598,0.995,0.003,-27.404,-43.762,-15.502,1
3.169973,0.544,0.967,-0.028,-16.113,-42.724,-19.042,1
3.177042,0.499,0.932,-0.057,-14.587,-41.625,-22.46,1
3.185328,0.44,0.905,-0.063,-21.362,-39.428,-25.878,1
3.19309,0.474,0.862,-0.078,-32.958,-37.597,-29.235,1
3.20129,0.471,0.843,-0.08,-44.189,-35.766,-31.86,1
3.210077,0.459,0.837,-0.088,-57.922,-33.63,-34.301,1
3.218081,0.41,0.836,-0.111,-74.34,-31.799,-36.437,1
3.225008,0.393,0.844,-0.124,-89.233,-30.395,-39.123,1
3.233501,0.386,0.828,-0.125,-96.679,-29.785,-41.503,1
3.240158,0.378,0.794,-0.132,-101.562,-29.235,-43.518,1
3.247203,0.385,0.745,-0.144,-106.14,-28.869,-45.104,1
3.25521,0.411,0.69,-0.141,-110.351,-28.747,-46.081,1
3.262158,0.467,0.633,-0.113,-111.633,-29.663,-45.837,1
3.270705,0.533,0.569,-0.082,-109.985,-30.029,-44.738,1
3.277172,0.566,0.493,-0.071,-112.548,-29.541,-43.029,1
3.28434,0.609,0.408,-0.067,-122.009,-29.052,-40.771,1
3.292949,0.643,0.361,-0.071,-136.23,-27.099,-37.902,1
3.299575,0.693,0.305,-0.09,-155.517,-26.0,-34.301,1
3.306493,0.751,0.263,-0.123,-178.344,-24.23,-30.09,1
3.314621,0.784,0.232,-0.168,-201.049,-22.827,-26.367,1
3.322613,0.876,0.226,-0.185,-217.712,-22.583,-22.277,1
3.330387,0.728,0.342,-0.15,-206.359,-22.399,-17.639,1
3.338229,0.585,0.358,-0.15,-166.198,-25.207,-12.756,1
3.34653,0.703,0.373,-0.138,-112.731,-27.954,-8.178,1
3.354358,0.667,0.34,-0.141,-51.025,-30.517,-6.835,1
3.362378,0.566,0.312,-0.126,-23.925,-30.273,-3.906,1
3.369001,0.53,0.279,-0.115,-5.371,-30.273,-0.305,1
3.377493,0.608,0.235,-0.09,5.92,-26.916,2.99,1
3.384393,0.758,0.195,-0.117,6.408,-25.268,6.713,1
3.392447,0.929,0.173,-0.124,0.915,-22.644,11.047,1
3.400216,1.061,0.16,-0.143,-5.432,-21.667,14.526,1
3.407154,1.186,0.169,-0.155,-9.582,-20.141,16.174,1
3.415533,1.061,0.178,-0.189,-13.183,-21.911,16.174,1
3.422241,0.752,0.186,-0.186,-9.338,-22.338,16.052,1
3.429408,0.581,0.16,-0.222,-4.76,-24.23,17.15,1
3.437567,0.514,0.116,-0.181,0.0,-23.315,18.127,1
3.445955,0.404,0.065,-0.211,-2.746,-20.019,20.263,1
3.454081,0.292,0.024,-0.143,-15.563,-20.385,23.681,1
3.462007,0.388,0.046,-0.191,-22.033,-12.939,27.77,1
3.468318,0.409,0.104,-0.121,-27.709,-14.343,30.151,1
3.475487,0.536,0.166,-0.178,-13.793,-13.061,30.456,1
3.4835,0.609,0.198,-0.149,1.831,-18.859,29.907,1
3.491192,0.567,0.212,-0.114,32.775,-17.7,31.311,1
3.497844,0.598,0.185,-0.128,51.94,-22.766,33.447,1
3.506326,0.657,0.184,-0.113,67.871,-21.911,35.4,1
3.514319,0.562,0.18,-0.136,62.622,-23.254,36.987,1
3.520872,0.532,0.149,-0.104,52.856,-20.996,39.245,1
3.528858,0.527,0.156,-0.115,34.545,-18.859,42.236,1
3.53579,0.592,0.187,-0.087,18.127,-15.441,45.471,1
3.5441,0.675,0.229,-0.086,3.479,-12.634,48.583,1
3.551974,0.665,0.259,-0.091,-11.23,-8.422,51.94,1
3.558583,0.694,0.38,-0.117,-22.46,-4.699,53.588,1
3.567393,0.643,0.446,-0.149,-30.578,-3.112,54.992,1
3.574138,0.621,0.521,-0.156,-33.264,0.671,56.64,1
3.581167,0.622,0.591,-0.203,-35.095,2.075,57.495,1
3.588107,0.592,0.648,-0.208,-33.264,4.577,57.861,1
3.596086,0.627,0.694,-0.253,-30.395,5.92,58.105,1
3.602567,0.649,0.73,-0.276,-25.085,6.286,58.41,1
3.610515,0.671,0.779,-0.315,-17.211,6.713,58.837,1
3.618489,0.66,0.828,-0.362,-11.047,6.042,58.959,1
3.625442,0.633,0.876,-0.4,-10.437,5.615,58.715,1
3.633349,0.621,0.92,-0.447,-15.014,5.187,58.471,1
3.640382,0.635,0.977,-0.467,-20.324,4.394,57.373,1
3.64921,0.629,1.029,-0.489,-21.423,3.417,56.091,1
3.655796,0.664,1.064,-0.498,-16.357,1.159,54.504,1
3.663839,0.724,1.082,-0.487,-4.455,-1.342,52.612,1
3.670599,0.781,1.077,-0.49,8.3,-3.234,50.781,1
3.678894,0.823,1.073,-0.513,14.404,-4.821,48.95,1
3.685883,0.826,1.091,-0.545,9.826,-6.103,46.813,1
3.694244,0.839,1.118,-0.563,1.464,-6.469,44.189,1
3.701178,0.862,1.158,-0.59,-6.958,-6.958,41.015,1
3.70922,0.815,1.184,-0.566,-7.446,-7.995,38.696,1
3.715722,0.844,1.206,-0.601,-11.474,-7.812,36.315,1
3.723984,0.867,1.224,-0.602,-17.578,-9.216,32.47,1
3.732288,0.884,1.252,-0.594,-23.254,-7.812,29.174,1
3.74024,0.947,1.307,-0.613,-22.766,-9.521,24.475,1
3.74683,0.859,1.326,-0.604,-15.686,-9.521,21.728,1
3.753746,0.927,1.354,-0.694,-14.465,-11.413,18.859,1
3.762338,0.933,1.376,-0.696,-15.624,-13.061,15.808,1
3.769187,0.956,1.413,-0.721,-19.287,-12.817,12.268,1
3.777525,0.85,1.474,-0.768,-24.658,-15.624,8.911,1
3.784014,0.976,1.555,-0.812,-39.489,-15.441,5.065,1
3.791181,0.758,1.367,-0.873,-64.819,-18.432,3.356,1
3.799711,1.025,1.624,-0.844,-82.885,-17.7,-3.601,1
3.807637,0.792,1.708,-0.833,-67.749,-22.338,-8.178,1
3.815691,0.801,1.711,-0.891,-62.316,-23.62,-12.084,1
3.822376,0.883,1.911,-0.936,-61.279,-28.381,-15.747,1
3.830698,1.024,1.684,-1.123,-96.923,-34.24,-13.366,1
3.838839,1.145,1.784,-1.215,-98.449,-36.193,-22.705,1
3.846697,1.009,2.169,-1.127,-103.271,-33.447,-31.555,1
3.855516,0.797,2.104,-1.279,-96.435,-42.846,-39.245,1
3.861827,0.8,2.041,-1.279,-85.083,-41.748,-46.874,1
3.870245,0.869,2.014,-1.496,-87.707,-46.508,-55.908,1
3.878461,0.722,1.973,-1.514,-114.685,-49.56,-64.819,1
3.886857,0.675,2.027,-1.584,-129.455,-53.222,-71.655,1
3.896689,0.48,2.084,-1.548,-121.826,-63.964,-79.895,1
3.905078,0.333,2.068,-1.532,-88.684,-74.951,-87.341,1
3.912149,0.227,1.986,-1.505,-61.584,-88.439,-93.566,1
3.921973,0.222,1.787,-1.414,-50.537,-98.266,-98.999,1
3.928639,0.304,1.574,-1.292,-68.786,-106.323,-103.515,1
3.936713,0.458,1.438,-1.236,-86.547,-113.403,-105.346,1
3.945301,0.412,1.261,-1.066,-107.788,-118.591,-105.834,1
3.952759,0.402,1.119,-0.923,-136.413,-120.544,-103.759,1
3.959668,0.241,0.97,-0.847,-146.484,-125.915,-106.079,1
3.96763,0.136,1.104,-0.536,-147.338,-127.014,-105.163,1
3.975921,-0.026,0.801,-0.5,-148.132,-135.375,-103.881,1
3.982509,-0.031,0.85,-0.245,-132.873,-131.774,-105.773,1
3.991278,-0.055,0.709,-0.204,-122.802,-139.343,-107.91,1
3.998026,-0.104,0.616,0.058,-102.05,-135.009,-107.116,1
4.006748,-0.035,0.441,0.034,-93.322,-137.39,-106.75,1
4.013358,0.059,0.4,0.238,-90.332,-132.08,-105.834,1
4.021703,0.169,0.292,0.312,-87.646,-131.042,-104.614,1
4.029983,0.173,0.209,0.52,-77.148,-123.229,-103.21,1
4.038358,0.276,0.082,0.606,-66.528,-120.544,-102.6,1
4.046332,0.42,-0.062,0.843,-52.246,-109.191,-99.182,1
4.052966,0.571,-0.198,0.899,-46.813,-102.722,-95.581,1
4.060075,0.623,-0.317,1.075,-46.386,-92.956,-90.026,1
4.068582,0.688,-0.41,1.149,-54.687,-82.275,-83.19,1
4.075137,0.682,-0.461,1.261,-67.016,-72.998,-76.049,1
4.082189,0.769,-0.491,1.342,-75.744,-63.293,-68.969,1
4.090567,0.884,-0.497,1.396,-84.716,-52.673,-60.913,1
4.098515,1.028,-0.486,1.421,-97.412,-40.344,-53.161,1
4.105432,1.154,-0.434,1.419,-117.919,-26.794,-45.654,1
4.114725,1.274,-0.369,1.438,-127.807,-14.16,-39.916,1
4.12276,1.369,-0.258,1.395,-129.211,-2.38,-34.851,1
4.129584,1.348,-0.13,1.332,-128.723,10.375,-30.273,1
4.13788,1.285,-0.006,1.252,-132.995,19.836,-28.076,1
4.144858,1.25,0.123,1.185,-140.808,30.151,-26.306,1
4.153429,1.19,0.261,1.089,-152.587,39.062,-25.573,1
4.160166,1.109,0.424,0.986,-168.334,47.668,-25.024,1
4.168503,0.993,0.63,0.842,-185.302,54.138,-25.817,1
4.177018,0.876,0.911,0.685,-195.556,58.959,-28.991,1
4.183621,0.8,1.15,0.514,-195.556,61.889,-34.606,1
4.191578,0.703,1.326,0.315,-185.18,61.828,-43.64,1
4.20007,0.613,1.47,0.138,-176.879,61.462,-52.856,1
4.208368,0.534,1.572,-0.075,-177.429,59.448,-62.744,1
4.215018,0.457,1.636,-0.278,-190.368,57.128,-73.608,1
4.223028,0.376,1.679,-0.461,-211.12,54.321,-84.838,1
4.231427,0.287,1.716,-0.662,-234.436,47.79,-98.449,1
4.23808,0.152,1.728,-0.779,-244.14,39.55,-110.717,1
4.245686,0.074,1.668,-0.905,-243.53,29.113,-122.802,1
4.254016,0.016,1.562,-0.978,-237.304,19.042,-132.263,1
4.262443,-0.042,1.4,-1.047,-224.548,4.821,-144.409,1
4.270817,-0.1,1.202,-1.074,-214.172,-9.399,-153.32,1
4.278816,-0.173,0.955,-1.056,-194.458,-25.756,-160.827,1
4.286879,-0.275,0.742,-1.002,-168.762,-40.954,-165.588,1
4.294822,-0.299,0.416,-0.979,-146.057,-54.138,-169.189,1
4.30141,-0.459,0.15,-0.916,-133.667,-69.213,-170.715,1
4.309874,-0.555,-0.104,-0.858,-128.295,-79.711,-169.25,1
4.317853,-0.614,-0.363,-0.791,-132.385,-91.43,-166.381,1
4.324284,-0.604,-0.658,-0.714,-154.113,-98.999,-160.156,1
4.332438,-0.614,-0.873,-0.64,-180.908,-107.604,-151.489,1
4.340507,-0.62,-1.062,-0.562,-205.932,-115.173,-140.319,1
4.34853,-0.594,-1.207,-0.493,-227.6,-122.192,-128.173,1
4.357049,-0.795,-1.3,-0.42,-242.065,-133.789,-113.342,1
4.365008,-0.913,-1.374,-0.317,-246.337,-141.113,-99.731,1
4.371519,-0.99,-1.451,-0.263,-246.765,-149.475,-85.51,1
4.379909,-1.055,-1.507,-0.171,-242.248,-157.653,-70.312,1
4.386818,-1.046,-1.596,-0.134,-234.313,-163.269,-54.199,1
4.394963,-1.148,-1.641,-0.086,-213.073,-170.41,-38.513,1
4.403045,-1.211,-1.693,-0.055,-180.603,-178.71,-20.019,1
4.41109,-1.262,-1.783,-0.017,-159.973,-184.814,-4.333,1
4.41955,-1.329,-1.912,0.021,-164.184,-187.499,12.268,1
4.426275,-1.45,-2.002,0.072,-187.744,-188.598,29.541,1
4.43471,-1.473,-2.042,0.143,-207.214,-188.842,48.828,1
4.441116,-1.546,-2.023,0.215,-213.989,-189.88,68.054,1
4.449543,-1.576,-2.038,0.323,-208.801,-191.04,89.111,1
4.456364,-1.61,-2.086,0.383,-195.312,-191.589,110.473,1
4.464845,-1.849,-2.087,0.459,-178.71,-191.101,131.53,1
4.471413,-1.91,-2.122,0.517,-167.358,-190.246,153.32,1
4.478838,-2.049,-2.135,0.549,-154.357,-188.537,176.33,1
4.487494,-2.188,-2.109,0.6,-140.38,-185.607,200.134,1
4.494287,-2.292,-2.151,0.62,-148.01,-181.64,225.83,1
4.502869,-2.368,-2.14,0.705,-180.358,-173.278,253.601,1
4.511034,-2.671,-2.052,0.82,-225.83,-161.376,282.897,1
4.517599,-2.988,-1.959,0.945,-265.686,-144.104,318.847,1
4.525501,-3.245,-1.872,1.02,-285.461,-127.563,351.257,1
4.532541,-3.512,-1.758,1.119,-291.503,-109.497,383.239,1
4.540956,-3.83,-1.631,1.211,-291.076,-89.721,415.71,1
4.549234,-4.22,-1.548,1.335,-285.583,-72.814,442.626,1
4.556899,-4.691,-1.472,1.48,-275.817,-43.334,479.858,1
4.56524,-5.231,-1.387,1.6,-268.554,-17.883,510.131,1
4.573625,-5.884,-1.393,1.787,-272.705,20.263,546.875,1
4.58077,-6.536,-1.311,1.929,-286.193,57.189,578.125,1
4.588357,-7.333,-1.196,2.157,-289.733,99.792,609.497,1
4.596488,-8.253,-1.036,2.322,-284.545,153.991,645.141,1
4.604493,-9.328,-0.855,2.496,-268.92,204.101,674.804,1
4.611169,-10.366,-0.738,2.606,-265.93,256.53,702.819,1
4.619045,-11.355,-0.643,2.753,-285.888,317.688,730.468,1
4.627529,-12.471,-0.502,2.804,-314.086,387.756,757.202,1
4.63389,-13.945,-0.252,2.799,-341.796,463.806,782.165,1
4.642319,-15.722,0.004,2.629,-362.426,543.334,804.931,1
4.648956,-15.992,0.321,2.395,-375.915,610.29,821.166,1
4.656364,-15.999,0.657,2.118,-376.464,689.941,836.303,1
4.664218,-15.999,1.181,1.719,-349.243,755.981,841.796,1
4.672577,-15.999,1.709,1.291,-294.799,811.523,839.111,1
4.679229,-15.999,2.493,0.948,-219.482,847.656,829.162,1
4.687657,-15.999,3.103,0.812,-61.218,870.361,822.082,1
4.69435,-15.999,3.445,0.626,93.017,863.769,828.369,1
4.702675,-15.999,3.564,0.791,183.715,850.769,843.139,1
4.709318,-15.999,3.176,0.524,208.374,842.895,879.76,1
4.717854,-15.999,3.332,-0.124,125.305,824.707,899.414,1
4.724437,-15.999,2.895,0.171,-2.746,837.341,916.381,1
4.732939,-15.999,2.833,-0.369,-128.173,835.144,917.053,1
4.74092,-15.999,2.987,-0.546,-187.072,851.196,905.639,1
4.749135,-15.999,3.185,-1.129,-206.359,850.402,878.845,1
4.757218,-15.999,3.296,-1.187,-286.132,866.149,835.571,1
4.764005,-15.999,3.195,-1.89,-499.45,905.273,773.437,1
4.772408,-15.999,3.292,-2.864,-854.431,966.918,650.207,1
4.779456,-15.999,3.41,-3.416,-1163.33,1030.639,501.77,1
4.787779,-15.999,3.348,-4.344,-1444.396,1096.74,311.157,1
4.795963,-15.999,2.849,-4.737,-1736.877,1106.323,81.42,1
4.804383,-15.999,2.135,-4.332,-1867.614,1074.646,-195.007,1
4.81264,-15.254,1.714,-3.499,-1728.271,957.763,-399.902,1
4.820603,-13.811,1.075,-2.989,-1389.831,791.442,-559.997,1
4.827797,-12.547,0.452,-2.624,-1046.997,640.502,-642.089,1
4.835489,-11.89,-0.27,-2.518,-730.285,517.822,-678.466,1
4.843536,-11.095,-1.14,-2.737,-523.193,413.696,-683.227,1
4.851528,-10.295,-1.85,-2.896,-419.128,329.223,-669.677,1
4.859533,-9.58,-2.209,-2.915,-344.97,257.202,-648.376,1
4.86643,-8.579,-2.378,-2.753,-286.438,195.8,-621.765,1
4.874403,-7.384,-2.455,-2.47,-227.539,143.249,-591.98,1
4.881394,-6.259,-2.525,-2.157,-179.26,101.135,-559.204,1
4.889306,-5.588,-2.51,-1.86,-159.729,60.852,-521.24,1
4.897305,-5.069,-2.426,-1.542,-152.526,35.278,-489.501,1
4.905138,-4.343,-2.338,-1.312,-153.625,13.366,-460.144,1
4.913714,-3.898,-2.261,-1.042,-175.292,-3.112,-431.091,1
4.920595,-3.617,-2.156,-0.871,-198.181,-17.761,-401.733,1
4.928917,-3.391,-1.959,-0.72,-187.255,-33.142,-373.962,1
4.937437,-3.031,-1.802,-0.598,-127.99,-52.001,-344.116,1
4.945559,-2.817,-1.744,-0.517,-77.087,-64.575,-320.312,1
4.95364,-2.604,-1.701,-0.452,-34.057,-74.951,-294.921,1
4.961699,-2.443,-1.729,-0.4,-8.056,-80.505,-274.902,1
4.968329,-2.197,-1.75,-0.352,4.211,-83.435,-255.92,1
4.976888,-2.087,-1.728,-0.298,12.695,-85.083,-238.098,1
4.983838,-1.726,-1.759,-0.264,16.418,-85.632,-221.496,1
4.992518,-1.557,-1.754,-0.182,3.967,-84.899,-205.505,1
4.999023,-1.395,-1.724,-0.125,-18.981,-81.237,-187.438,1
5.007525,-1.198,-1.693,-0.051,-34.667,-78.918,-171.813,1
5.014216,-0.979,-1.664,-0.015,-38.696,-76.171,-156.555,1
5.02183,-0.889,-1.591,0.05,-34.606,-74.707,-141.845,1
5.029772,-0.779,-1.537,0.089,-21.179,-72.326,-127.807,1
5.038022,-0.645,-1.514,0.1,-7.263,-69.946,-113.952,1
5.044708,-0.586,-1.447,0.125,1.342,-66.223,-100.708,1
5.053178,-0.449,-1.434,0.123,2.258,-63.415,-89.233,1
5.059557,-0.346,-1.395,0.119,3.723,-57.556,-77.697,1
5.068012,-0.399,-1.306,0.129,-1.342,-53.833,-65.917,1
5.076105,-0.281,-1.38,0.092,-8.239,-48.95,-55.236,1
5.083774,-0.277,-1.351,0.134,-25.695,-40.954,-45.043,1
5.092331,-0.176,-1.293,0.089,-36.499,-34.301,-33.691,1
5.099179,-0.093,-1.231,0.084,-31.188,-30.639,-24.841,1
5.107355,-0.031,-1.205,0.039,-22.338,-26.428,-14.77,1
5.114388,-0.001,-1.158,0.025,-12.634,-24.291,-6.408,1
5.12279,0.071,-1.131,-0.003,3.967,-22.277,1.159,1
5.129771,0.109,-1.099,-0.023,19.836,-21.423,8.666,1
5.137623,0.158,-1.1,-0.076,28.625,-19.226,16.296,1
5.146058,0.2,-1.063,-0.099,27.648,-17.456,23.864,1
5.153957,0.244,-1.003,-0.11,25.573,-15.014,31.066,1
5.162177,0.248,-0.933,-0.143,19.958,-13.366,37.353,1
5.170163,0.253,-0.875,-0.151,5.798,-9.46,44.25,1
5.178264,0.242,-0.814,-0.169,-15.808,-6.103,49.499,1
5.185214,0.23,-0.751,-0.175,-36.804,-2.38,54.504,1
5.192141,0.183,-0.645,-0.173,-49.987,1.098,58.715,1
5.19993,0.191,-0.559,-0.206,-49.682,3.234,61.218,1
5.208282,0.256,-0.547,-0.186,-53.1,4.455,65.063,1
5.215231,0.273,-0.517,-0.238,-55.175,8.178,68.664,1
5.223499,0.308,-0.469,-0.239,-60.668,8.85,71.838,1
5.229995,0.356,-0.441,-0.258,-65.246,12.512,75.134,1
5.237078,0.425,-0.42,-0.299,-72.326,13.427,78.186,1
5.246533,0.466,-0.384,-0.306,-78.613,17.089,81.542,1
5.253148,0.504,-0.362,-0.354,-87.402,18.31,84.35,1
5.260304,0.502,-0.348,-0.343,-96.74,21.423,87.158,1
5.268871,0.468,-0.251,-0.346,-105.285,24.108,89.05,1
5.276763,0.571,-0.272,-0.38,-118.103,25.939,92.041,1
5.284701,0.612,-0.262,-0.366,-129.821,29.418,95.52,1
5.292798,0.652,-0.275,-0.396,-135.314,30.822,99.426,1
5.299416,0.683,-0.258,-0.371,-131.835,32.47,103.027,1
5.307945,0.728,-0.244,-0.403,-122.497,33.691,107.116,1
5.314891,0.763,-0.236,-0.403,-112.854,34.362,110.778,1
5.323191,0.79,-0.216,-0.43,-100.585,35.766,114.379,1
5.331568,0.798,-0.178,-0.431,-85.449,36.865,118.164,1
5.339648,0.725,-0.161,-0.467,-71.166,37.17,121.215,1
5.346267,0.676,-0.167,-0.479,-64.086,37.597,124.328,1
5.353293,0.604,-0.174,-0.488,-64.453,38.696,127.929,1
5.361666,0.516,-0.188,-0.473,-68.725,39.855,131.958,1
5.368602,0.444,-0.172,-0.427,-63.171,42.053,136.657,1
5.377065,0.463,-0.163,-0.424,-56.64,42.053,140.197,1
5.383839,0.505,-0.142,-0.381,-52.368,42.724,142.639,1
5.392324,0.57,-0.15,-0.376,-53.405,41.442,144.47,1
5.40038,0.531,-0.165,-0.323,-55.664,41.809,146.606,1
5.407306,0.494,-0.176,-0.296,-57.373,42.724,149.169,1
5.415736,0.428,-0.173,-0.239,-53.039,44.555,152.16,1
5.422745,0.376,-0.15,-0.234,-42.358,46.264,154.907,1
5.43077,0.387,-0.13,-0.221,-25.268,46.752,157.775,1
5.43942,0.401,-0.133,-0.208,-6.713,47.241,161.01,1
5.446094,0.378,-0.138,-0.194,8.789,47.912,165.222,1
5.454163,0.369,-0.145,-0.19,18.188,49.133,169.494,1
5.461094,0.337,-0.138,-0.198,21.057,50.842,173.95,1
5.468047,0.239,-0.097,-0.194,23.132,53.1,177.856,1
5.476564,0.187,-0.058,-0.229,25.695,53.955,181.701,1
5.484508,0.138,-0.034,-0.252,29.113,54.138,184.631,1
5.491068,0.131,-0.024,-0.271,31.677,53.466,188.11,1
5.498959,0.148,-0.007,-0.294,31.249,53.955,192.26,1
5.50664,0.241,0.02,-0.34,29.724,54.199,195.922,1
5.513155,0.247,0.056,-0.386,26.123,54.87,199.096,1
5.519933,0.199,0.101,-0.459,17.333,54.077,202.575,1
5.527725,0.102,0.161,-0.507,7.568,54.504,205.322,1
5.534874,0.044,0.228,-0.575,3.295,53.649,207.946,1
5.542691,0.015,0.304,-0.621,8.85,52.795,210.571,1
5.551058,0.008,0.375,-0.683,22.094,49.133,213.195,1
5.558441,-0.029,0.425,-0.728,37.658,46.142,215.698,1
5.56532,-0.059,0.486,-0.776,45.715,42.846,218.444,1
5.573419,-0.08,0.568,-0.816,45.776,38.696,220.52,1
5.581512,-0.098,0.7,-0.848,46.081,36.193,221.984,1
5.588606,-0.135,0.853,-0.9,49.682,31.372,222.778,1
5.597051,-0.186,1.018,-0.951,53.466,25.695,222.106,1
5.603672,-0.229,1.174,-1.011,53.771,20.202,219.97,1
5.610659,-0.253,1.312,-1.058,54.199,14.892,217.651,1
5.618978,-0.243,1.418,-1.086,54.687,8.605,214.416,1
5.62701,-0.242,1.535,-1.123,56.274,2.38,210.266,1
5.634931,-0.252,1.603,-1.149,54.26,-3.967,205.688,1
5.641511,-0.276,1.653,-1.132,52.978,-10.986,199.035,1
5.649945,-0.283,1.654,-1.096,58.349,-17.15,193.786,1
5.656506,-0.291,1.645,-1.068,57.189,-21.667,187.927,1
5.664026,-0.297,1.637,-1.063,44.189,-25.634,181.64,1
5.671914,-0.285,1.62,-1.032,30.456,-29.052,175.903,1
5.68025,-0.163,1.613,-0.991,27.282,-33.569,171.203,1
5.688021,-0.071,1.641,-0.949,39.062,-38.696,167.602,1
5.696554,-0.045,1.678,-0.945,55.419,-44.738,164.062,1
5.703502,-0.088,1.677,-0.918,64.27,-51.757,160.461,1
5.710977,-0.127,1.657,-0.887,65.063,-56.091,156.738,1
5.718926,-0.155,1.611,-0.825,62.072,-59.631,152.832,1
5.726916,-0.155,1.567,-0.777,59.387,-62.011,148.803,1
5.735007,-0.138,1.546,-0.776,38.696,-62.194,144.592,1
5.741933,-0.152,1.585,-0.809,4.028,-61.157,139.77,1
5.749927,-0.13,1.666,-0.81,-29.968,-60.668,135.925,1
5.757913,-0.095,1.844,-0.791,-36.071,-62.805,130.676,1
5.766402,-0.084,1.925,-0.765,-19.531,-67.687,125.366,1
5.773338,-0.071,1.84,-0.766,-9.277,-72.753,120.117,1
5.780374,-0.209,1.944,-0.745,3.356,-76.782,112.731,1
5.788869,-0.212,1.993,-0.73,17.15,-82.824,105.773,1
5.797277,-0.223,1.939,-0.7,21.484,-85.632,99.182,1
5.804302,-0.16,1.911,-0.69,18.371,-88.684,91.979,1
5.812257,-0.142,1.776,-0.664,6.164,-90.393,87.036,1
5.820686,-0.15,1.873,-0.677,7.934,-90.881,78.613,1
5.828625,-0.152,1.904,-0.609,14.831,-93.811,70.068,1
5.835463,-0.096,1.859,-0.621,10.253,-95.642,63.476,1
5.843416,-0.106,1.816,-0.584,7.019,-97.839,56.518,1
5.851313,-0.113,1.755,-0.553,7.934,-98.754,51.208,1
5.859624,-0.09,1.697,-0.536,8.728,-101.318,45.776,1
5.867472,-0.088,1.65,-0.493,13.183,-102.966,41.442,1
5.874094,-0.076,1.598,-0.452,22.888,-105.712,37.231,1
5.881165,-0.077,1.534,-0.413,29.174,-107.116,34.118,1
5.888701,-0.058,1.484,-0.393,30.029,-107.971,32.348,1
5.895875,-0.042,1.461,-0.356,30.334,-108.886,30.578,1
5.90416,-0.04,1.425,-0.321,28.747,-109.497,29.174,1
5.910701,-0.031,1.383,-0.283,22.705,-109.191,28.076,1
5.918752,-0.041,1.261,-0.276,4.882,-107.91,27.893,1
5.926549,0.001,1.44,-0.209,-5.615,-103.21,24.902,1
5.934345,-0.045,1.4,-0.189,2.014,-107.238,23.986,1
5.942157,-0.027,1.312,-0.153,10.925,-103.332,22.644,1
5.950478,0.009,1.281,-0.166,10.498,-104.553,20.629,1
5.958937,-0.012,1.205,-0.132,9.46,-101.867,19.042,1
5.965645,0.028,1.257,-0.09,-7.202,-98.388,18.188,1
5.974005,-0.016,1.155,-0.125,4.333,-101.379,16.174,1
5.982489,0.0,1.132,-0.014,22.155,-97.778,14.465,1
5.988832,0.054,1.069,-0.075,24.658,-98.266,13.061,1
5.997038,0.039,1.034,-0.005,23.193,-97.167,12.145,1
6.004976,0.125,1.025,-0.011,21.789,-95.642,11.84,1
6.01196,0.101,1.024,0.02,22.216,-95.886,11.474,1
6.019806,0.125,1.004,0.025,23.437,-94.665,11.413,1
6.027725,0.12,0.971,0.029,18.981,-94.299,11.23,1
6.034644,0.148,0.95,0.065,12.939,-91.552,10.864,1
6.041585,0.115,0.937,0.064,3.234,-89.965,10.131,1
6.050046,0.102,0.931,0.084,-2.929,-87.463,9.826,1
6.056549,0.095,0.937,0.104,-6.591,-84.35,9.216,1
6.063556,0.109,0.922,0.116,-4.394,-82.092,8.666,1
6.07189,0.104,0.904,0.135,1.159,-78.979,8.3,1
6.078536,0.088,0.877,0.145,4.699,-76.66,8.3,1
6.086608,0.075,0.852,0.152,4.516,-73.059,8.117,1
6.094595,0.085,0.821,0.165,-1.831,-68.42,8.789,1
6.101383,0.113,0.81,0.169,-12.268,-63.903,9.338,1
6.109804,0.117,0.816,0.166,-20.996,-59.814,10.62,1
6.116293,0.11,0.841,0.162,-24.78,-56.579,11.596,1
6.124813,0.094,0.849,0.147,-24.536,-54.138,12.39,1
6.131337,0.069,0.86,0.133,-22.46,-51.391,13.671,1
6.139142,0.049,0.864,0.114,-20.629,-49.194,14.587,1
6.147041,0.04,0.855,0.093,-20.385,-47.241,15.624,1
6.155798,0.04,0.861,0.084,-18.066,-45.288,16.296,1
6.162517,0.046,0.865,0.074,-13.427,-44.006,17.272,1
6.170013,0.052,0.86,0.066,-10.559,-42.358,18.066,1
6.176599,0.046,0.864,0.062,-11.169,-40.649,18.859,1
6.184977,0.043,0.874,0.051,-13.549,-39.123,19.592,1
6.192268,0.047,0.883,0.049,-14.343,-37.475,20.019,1
6.199178,0.057,0.889,0.04,-12.573,-36.132,20.263,1
6.207644,0.063,0.881,0.04,-8.3,-35.156,20.69,1
6.215141,0.058,0.871,0.045,-2.868,-34.057,21.484,1
6.222545,0.057,0.846,0.046,1.281,-32.653,22.155,1
6.22872,0.062,0.822,0.058,2.502,-30.7,23.315,1
6.23661,0.072,0.798,0.059,2.197,-28.93,24.536,1
6.243375,0.082,0.782,0.059,0.305,-26.733,25.817,1
6.251945,0.09,0.764,0.063,-1.159,-24.475,27.526,1
6.258474,0.101,0.754,0.057,-3.601,-22.033,29.357,1
6.266363,0.113,0.759,0.043,-7.019,-19.897,30.944,1
6.273315,0.109,0.774,0.017,-10.253,-17.944,32.592,1
6.280333,0.12,0.789,0.0,-12.084,-16.723,33.752,1
6.288204,0.118,0.805,-0.011,-11.291,-15.441,34.667,1
6.296576,0.116,0.816,-0.024,-10.437,-14.892,35.522,1
6.303514,0.101,0.834,-0.034,-6.958,-13.61,36.132,1
6.312005,0.098,0.836,-0.041,-4.089,-13.305,36.682,1
6.318647,0.104,0.834,-0.047,-3.356,-12.084,36.865,1
6.326721,0.1,0.834,-0.039,-3.662,-10.742,37.353,1
6.334653,0.097,0.842,-0.036,-2.38,-9.521,37.597,1
6.342982,0.094,0.854,-0.034,0.0,-8.544,38.208,1
6.349529,0.092,0.865,-0.034,3.051,-7.141,38.146,1
6.35794,0.088,0.882,-0.038,4.943,-5.859,38.452,1
6.364547,0.095,0.898,-0.039,7.751,-4.821,38.879,1
6.372957,0.102,0.918,-0.04,10.437,-3.906,38.94,1
6.379435,0.107,0.937,-0.049,12.39,-2.807,38.818,1
6.38726,0.097,0.949,-0.059,13.122,-2.075,39.123,1
6.394314,0.085,0.963,-0.067,13.916,-0.976,38.879,1
6.402578,0.066,0.975,-0.067,15.136,-0.061,38.33,1
6.409552,0.049,0.983,-0.072,16.845,0.915,38.024,1
6.416326,0.033,0.985,-0.074,19.714,2.075,37.658,1
6.42472,0.028,0.982,-0.081,24.475,2.441,37.536,1
6.431383,0.019,0.965,-0.088,28.625,2.746,37.658,1
6.438303,0.01,0.96,-0.094,34.362,3.479,37.658,1
6.445266,0.003,0.949,-0.116,39.916,3.662,37.658,1
6.453676,-0.01,0.941,-0.124,46.447,3.906,37.841,1
6.461717,-0.015,0.928,-0.139,51.818,3.234,37.78,1
6.468293,-0.019,0.914,-0.138,55.236,3.112,38.085,1
6.475262,-0.018,0.887,-0.143,54.992,3.112,38.452,1
6.483754,-0.02,0.88,-0.146,50.537,3.417,39.184,1
6.490649,-0.022,0.867,-0.146,43.579,4.15,39.672,1
6.498764,-0.03,0.864,-0.151,36.315,4.638,40.405,1
6.50781,-0.047,0.866,-0.151,30.151,5.249,41.137,1
6.514419,-0.057,0.857,-0.151,26.672,5.554,41.992,1
6.522455,-0.074,0.863,-0.155,27.404,5.859,42.785,1
6.530757,-0.075,0.862,-0.154,30.639,5.065,43.762,1
6.537879,-0.075,0.851,-0.146,35.705,4.76,44.311,1
6.546551,-0.083,0.84,-0.154,38.574,4.577,45.41,1
6.553152,-0.079,0.836,-0.142,40.222,3.906,46.569,1
6.561642,-0.095,0.838,-0.137,40.893,4.089,47.79,1
6.568633,-0.105,0.84,-0.136,40.405,4.028,48.339,1
6.575249,-0.118,0.844,-0.126,39.062,4.028,48.767,1
6.583206,-0.131,0.842,-0.124,37.231,4.15,49.743,1
6.591535,-0.152,0.842,-0.12,35.217,3.906,50.842,1
6.599854,-0.172,0.846,-0.114,32.836,4.333,51.818,1
6.606564,-0.182,0.847,-0.111,31.127,4.272,52.307,1
6.614924,-0.18,0.848,-0.109,29.113,4.699,53.1,1
6.622534,-0.185,0.84,-0.109,26.428,4.76,54.199,1
6.631027,-0.195,0.85,-0.104,25.207,5.126,54.687,1
6.637878,-0.199,0.856,-0.106,26.0,4.882,56.091,1
6.644896,-0.201,0.857,-0.104,27.343,5.065,56.701,1
6.653452,-0.212,0.867,-0.1,29.113,4.882,57.8,1
6.662872,-0.223,0.879,-0.104,30.517,5.065,58.715,1
6.6695,-0.243,0.903,-0.111,31.555,4.882,59.57,1
6.677948,-0.249,0.925,-0.113,32.287,4.699,59.997,1
6.686145,-0.246,0.949,-0.114,32.958,4.577,60.363,1
6.693095,-0.244,0.987,-0.112,33.508,4.394,60.424,1
6.701008,-0.254,1.025,-0.11,32.775,4.333,60.729,1
6.70935,-0.269,1.08,-0.108,31.677,3.845,60.913,1
6.715895,-0.273,1.134,-0.113,28.93,3.967,60.546,1
6.722911,-0.288,1.219,-0.125,24.353,3.845,59.875,1
6.731405,-0.314,1.289,-0.129,14.099,4.333,58.715,1
6.739316,-0.305,1.384,-0.13,1.403,5.187,56.701,1
6.745845,-0.243,1.474,-0.118,-6.896,6.042,54.382,1
6.754506,-0.212,1.536,-0.11,-10.437,7.507,51.391,1
6.761299,-0.213,1.584,-0.109,-9.643,8.85,48.339,1
6.76832,-0.208,1.618,-0.127,-4.516,10.314,44.738,1
6.77673,-0.2,1.644,-0.157,3.967,11.413,40.649,1
6.783295,-0.19,1.651,-0.206,12.878,11.901,36.193,1
6.792185,-0.181,1.642,-0.262,19.165,11.596,32.104,1
6.798676,-0.171,1.628,-0.307,24.536,10.437,27.832,1
6.807213,-0.148,1.61,-0.351,29.235,9.033,24.353,1
6.813791,-0.148,1.596,-0.392,29.541,7.629,20.446,1
6.821687,-0.157,1.587,-0.428,23.437,5.859,16.906,1
6.828595,-0.158,1.582,-0.464,12.084,4.333,13.366,1
6.837152,-0.165,1.577,-0.49,-0.976,2.685,9.643,1
6.843634,-0.164,1.571,-0.504,-11.779,0.976,5.798,1
6.851622,-0.166,1.555,-0.51,-18.676,-1.708,2.38,1
6.861119,-0.169,1.547,-0.502,-20.141,-4.333,-0.671,1
6.867838,-0.173,1.536,-0.49,-17.822,-6.958,-3.723,1
6.876118,-0.173,1.529,-0.479,-13.671,-9.521,-6.347,1
6.884166,-0.178,1.533,-0.464,-11.413,-11.84,-9.46,1
6.891478,-0.175,1.545,-0.458,-10.925,-13.549,-12.207,1
6.899777,-0.174,1.559,-0.452,-10.742,-15.441,-15.869,1
6.908255,-0.167,1.56,-0.452,-11.108,-17.211,-18.554,1
6.916618,-0.168,1.562,-0.454,-12.207,-18.737,-21.85,1
6.924306,-0.17,1.567,-0.45,-14.526,-20.019,-24.597,1
6.932939,-0.178,1.576,-0.459,-21.85,-21.728,-27.893,1
6.941127,-0.173,1.609,-0.462,-30.578,-22.888,-30.944,1
6.948299,-0.193,1.662,-0.471,-38.208,-24.353,-34.79,1
6.956322,-0.196,1.692,-0.476,-41.015,-26.489,-38.818,1
6.964899,-0.195,1.717,-0.483,-41.32,-28.381,-42.48,1
6.973336,-0.198,1.727,-0.494,-40.588,-30.029,-46.02,1
6.979871,-0.204,1.736,-0.505,-38.269,-32.409,-50.231,1
6.98826,-0.214,1.734,-0.496,-35.156,-34.24,-53.833,1
6.996609,-0.218,1.724,-0.495,-31.372,-36.01,-57.312,1
7.004964,-0.218,1.723,-0.497,-28.991,-37.536,-60.424,1
7.013004,-0.23,1.709,-0.493,-31.921,-38.33,-63.964,1
7.019821,-0.25,1.69,-0.488,-41.32,-38.33,-67.077,1
7.028302,-0.272,1.673,-0.479,-56.03,-37.597,-70.007,1
7.035228,-0.282,1.649,-0.454,-72.631,-36.254,-72.875,1
7.043764,-0.269,1.619,-0.437,-88.562,-34.851,-75.073,1
7.050858,-0.243,1.584,-0.411,-101.745,-34.179,-76.843,1
7.059286,-0.229,1.551,-0.377,-110.351,-33.264,-78.491,1
7.067746,-0.248,1.508,-0.33,-110.168,-32.775,-79.467,1
7.075752,-0.256,1.469,-0.305,-105.834,-31.799,-80.688,1
7.082699,-0.257,1.431,-0.277,-102.172,-30.578,-81.481,1
7.091285,-0.268,1.397,-0.265,-99.914,-29.052,-82.58,1
7.097864,-0.283,1.38,-0.264,-98.449,-27.77,-83.312,1
7.105865,-0.288,1.367,-0.268,-95.581,-26.428,-84.96,1
7.113793,-0.283,1.332,-0.279,-95.947,-25.085,-85.937,1
7.12325,-0.287,1.296,-0.317,-98.937,-23.315,-87.158,1
7.12975,-0.326,1.269,-0.357,-107.299,-21.728,-87.89,1
7.138096,-0.329,1.255,-0.399,-116.333,-20.874,-88.256,1
7.145298,-0.324,1.241,-0.436,-122.436,-19.958,-88.745,1
7.153315,-0.273,1.205,-0.485,-129.76,-20.202,-89.05,1
7.16034,-0.336,1.203,-0.491,-137.451,-20.08,-89.111,1
7.168939,-0.396,1.206,-0.526,-141.174,-20.446,-89.416,1
7.176497,-0.417,1.202,-0.544,-141.296,-22.155,-89.965,1
7.183615,-0.4,1.191,-0.567,-138.671,-23.986,-90.087,1
7.192166,-0.371,1.181,-0.598,-134.338,-26.367,-90.026,1
7.199103,-0.366,1.172,-0.627,-127.624,-29.174,-90.026,1
7.206989,-0.356,1.157,-0.664,-118.286,-32.348,-89.66,1
7.215023,-0.347,1.149,-0.706,-108.642,-35.522,-89.416,1
7.223285,-0.354,1.14,-0.762,-100.952,-38.635,-89.172,1
7.23104,-0.386,1.133,-0.813,-97.167,-41.992,-88.378,1
7.238962,-0.395,1.113,-0.855,-95.947,-44.86,-87.829,1
7.246958,-0.394,1.091,-0.882,-99.06,-47.302,-87.402,1
7.253561,-0.37,1.073,-0.915,-107.36,-49.194,-86.486,1
7.261736,-0.341,1.072,-0.926,-117.492,-51.391,-85.815,1
7.270537,-0.304,1.073,-0.919,-123.107,-53.955,-84.411,1
7.278732,-0.295,1.072,-0.907,-121.215,-57.861,-82.763,1
7.287258,-0.296,1.056,-0.89,-115.539,-61.645,-81.176,1
7.295502,-0.276,1.05,-0.875,-109.252,-65.063,-79.711,1
7.302166,-0.258,1.043,-0.858,-100.219,-68.298,-78.43,1
7.310649,-0.25,1.039,-0.859,-84.289,-71.96,-76.66,1
7.317216,-0.216,1.037,-0.86,-67.749,-76.232,-76.354,1
7.324738,-0.242,1.011,-0.839,-52.856,-78.125,-75.256,1
7.333553,-0.216,1.026,-0.857,-37.78,-83.312,-74.462,1
7.34174,-0.17,0.962,-0.793,-28.015,-84.411,-73.73,1
7.348838,-0.012,0.874,-0.833,-40.954,-86.242,-72.692,1
7.357247,-0.06,0.813,-0.757,-72.387,-87.28,-70.678,1
7.364168,-0.083,0.755,-0.749,-107.36,-85.571,-67.871,1
7.372711,-0.118,0.738,-0.715,-145.385,-86.608,-64.758,1
7.379349,-0.142,0.708,-0.671,-179.87,-85.571,-60.729,1
7.387761,-0.173,0.655,-0.666,-213.989,-86.914,-55.236,1
7.395858,-0.192,0.745,-0.614,-228.088,-85.388,-50.72,1
7.40244,-0.145,0.799,-0.624,-223.388,-91.125,-47.424,1
7.410504,-0.127,0.871,-0.537,-198.181,-94.055,-45.288,1
7.417419,-0.1,0.709,-0.49,-175.231,-99.975,-40.161,1
7.425219,-0.016,0.781,-0.531,-140.563,-99.67,-39.001,1
7.433601,0.017,0.704,-0.42,-125.854,-107.482,-34.484,1
7.441859,0.069,0.67,-0.521,-105.895,-104.675,-34.729,1
7.45018,0.125,0.829,-0.342,-95.031,-102.416,-34.912,1
7.45709,0.125,0.625,-0.465,-100.341,-109.558,-33.569,1
7.465494,0.203,0.819,-0.326,-96.374,-98.144,-34.851,1
7.472015,0.203,0.818,-0.427,-102.661,-105.834,-35.888,1
7.480246,0.255,0.672,-0.285,-103.637,-98.51,-35.095,1
7.487158,0.396,0.827,-0.309,-108.093,-93.627,-37.841,1
7.495408,0.386,0.813,-0.249,-109.68,-96.74,-39.978,1
7.503273,0.38,0.758,-0.17,-113.464,-88.073,-41.198,1
7.512009,0.434,0.712,-0.161,-131.896,-88.134,-42.663,1
7.518767,0.488,0.655,-0.102,-153.686,-80.566,-43.151,1
7.528053,0.483,0.627,-0.076,-172.973,-78.674,-42.785,1
7.534784,0.604,0.585,-0.042,-185.852,-74.157,-41.625,1
7.543409,0.634,0.584,-0.027,-195.861,-72.265,-39.794,1
7.550026,0.668,0.592,0.014,-196.838,-69.946,-37.048,1
7.558406,0.701,0.617,0.037,-188.537,-69.763,-34.24,1
7.564894,0.741,0.623,0.063,-176.025,-68.786,-31.677,1
7.573022,0.762,0.621,0.074,-171.447,-67.26,-29.663,1
7.579939,0.823,0.656,0.059,-165.893,-64.514,-29.479,1
7.588271,0.832,0.661,0.077,-161.987,-63.659,-29.846,1
7.59669,0.881,0.696,0.057,-158.325,-57.8,-31.066,1
7.604699,0.809,0.594,0.024,-168.09,-56.823,-31.86,1
7.611412,0.89,0.772,-0.021,-169.128,-50.781,-36.132,1
7.618585,0.708,0.827,-0.073,-167.419,-56.64,-40.466,1
7.626976,0.544,0.858,-0.116,-164.794,-52.856,-44.372,1
7.635319,0.386,0.899,-0.265,-178.1,-59.02,-49.865,1
7.641977,0.264,0.902,-0.314,-197.143,-59.448,-55.48,1
7.65039,0.089,0.926,-0.453,-225.708,-63.72,-61.34,1
7.657187,-0.057,0.961,-0.519,-248.596,-68.481,-67.138,1
7.665525,-0.146,0.979,-0.569,-258.483,-74.279,-72.814,1
7.673427,-0.253,0.946,-0.611,-257.995,-82.153,-78.857,1
7.681905,-0.317,0.884,-0.627,-252.38,-89.66,-85.144,1
7.689455,-0.377,0.828,-0.643,-238.769,-97.229,-90.209,1
7.697409,-0.468,0.723,-0.64,-214.05,-106.384,-96.313,1
7.705559,-0.635,0.586,-0.62,-203.124,-114.746,-100.463,1
7.714145,-0.834,0.45,-0.585,-204.772,-122.009,-103.454,1
7.722511,-1.036,0.304,-0.54,-220.214,-130.493,-105.834,1
7.730678,-1.15,0.173,-0.525,-238.586,-137.451,-106.567,1
7.737366,-1.258,0.032,-0.5,-255.31,-144.775,-106.201,1
7.746972,-1.38,-0.126,-0.494,-266.235,-153.93,-103.149,1
7.753815,-1.488,-0.311,-0.49,-277.771,-161.01,-97.778,1
7.762163,-1.523,-0.453,-0.462,-280.944,-171.569,-89.538,1
7.770443,-1.625,-0.617,-0.44,-275.451,-178.222,-79.833,1
7.778952,-1.696,-0.807,-0.456,-273.437,-188.354,-68.725,1
7.78686,-1.755,-0.959,-0.383,-262.634,-198.486,-53.649,1
7.793931,-1.764,-1.141,-0.377,-252.319,-207.458,-38.513,1
7.802517,-1.815,-1.343,-0.322,-249.328,-216.796,-18.676,1
7.809447,-1.825,-1.503,-0.292,-248.229,-224.67,0.854,1
7.8178,-1.857,-1.624,-0.228,-241.394,-232.482,22.46,1
7.825818,-1.901,-1.767,-0.197,-232.666,-240.539,45.837,1
7.834525,-2.006,-1.923,-0.139,-210.388,-251.037,74.89,1
7.84292,-2.079,-2.13,-0.078,-183.288,-262.084,105.895,1
7.851092,-2.255,-2.29,0.013,-169.738,-268.554,134.277,1
7.859252,-2.512,-2.398,0.093,-162.658,-273.742,164.062,1
7.867866,-2.906,-2.472,0.187,-158.63,-279.052,200.134,1
7.874438,-3.345,-2.522,0.263,-159.057,-282.959,232.604,1
7.882834,-3.85,-2.552,0.378,-165.588,-286.01,267.15,1
7.889296,-4.367,-2.531,0.483,-173.583,-285.949,303.588,1
7.897926,-4.91,-2.422,0.539,-198.364,-284.484,342.163,1
7.905959,-5.523,-2.152,0.694,-225.891,-281.127,380.493,1
7.913813,-6.186,-2.073,0.802,-242.858,-275.451,422.058,1
7.921539,-6.78,-2.038,1.125,-271.118,-261.596,475.097,1
7.93033,-7.365,-1.89,1.38,-256.164,-244.201,522.155,1
7.937108,-8.142,-1.849,1.853,-201.477,-232.482,570.007,1
7.945024,-8.913,-1.838,2.077,-143.493,-209.35,617.98,1
7.952942,-9.507,-1.726,2.294,-115.905,-190.124,663.391,1
7.959611,-10.701,-1.553,2.61,-110.9,-156.738,709.655,1
7.967971,-11.664,-1.393,2.731,-158.386,-108.398,763.0,1
7.976374,-12.856,-1.115,2.86,-207.397,-50.659,811.645,1
7.983151,-14.15,-0.831,2.822,-256.469,10.803,859.863,1
7.991309,-15.672,-0.49,2.786,-309.265,86.914,907.714,1
7.998098,-15.993,-0.044,2.59,-357.788,168.945,952.209,1
8.004983,-15.999,0.498,2.338,-383.239,243.286,985.839,1
8.011891,-15.999,0.994,1.997,-401.55,334.106,1021.301,1
8.019885,-15.999,1.6,1.577,-416.32,424.621,1049.194,1
8.026754,-15.999,2.147,1.085,-432.128,520.507,1067.504,1
8.033679,-15.999,2.792,0.617,-444.03,595.947,1072.692,1
8.041762,-15.999,3.505,0.138,-437.927,678.894,1067.382,1
8.048583,-15.999,4.079,-0.13,-400.756,750.915,1051.635,1
8.055464,-15.999,4.357,-0.227,-371.459,812.011,1036.01,1
8.062588,-15.999,4.474,-0.466,-396.24,887.329,1013.244,1
8.071111,-15.999,4.418,-0.681,-486.45,976.379,979.98,1
8.078157,-15.999,5.164,-1.719,-647.888,1082.275,929.443,1
8.085069,-15.999,4.458,-1.251,-725.463,1190.063,854.919,1
8.093483,-15.999,4.129,-1.865,-844.238,1299.255,763.366,1
8.099576,-15.999,4.114,-2.69,-995.422,1385.559,631.408,1
8.107522,-15.999,4.091,-3.365,-1151.611,1448.242,486.389,1
8.115441,-15.999,3.928,-4.579,-1342.895,1488.464,264.831,1
8.122136,-15.999,3.395,-5.099,-1527.221,1475.83,5.371,1
8.130522,-15.999,2.387,-5.375,-1679.687,1414.794,-260.192,1
8.137586,-15.999,1.601,-4.729,-1690.795,1281.86,-513.61,1
8.145872,-15.999,1.143,-3.646,-1469.787,1111.023,-710.144,1
8.153922,-15.999,0.376,-2.675,-1146.972,948.974,-826.904,1
8.162265,-15.999,-0.354,-2.535,-803.527,769.897,-890.624,1
8.170242,-15.999,-1.217,-2.442,-618.53,655.09,-904.724,1
8.178621,-15.999,-1.774,-2.632,-491.882,538.085,-896.118,1
8.18672,-15.999,-2.375,-2.602,-441.833,447.326,-879.394,1
8.193409,-15.361,-3.124,-2.512,-461.669,377.868,-853.088,1
8.201829,-13.341,-3.459,-2.453,-528.137,307.983,-824.157,1
8.20978,-11.699,-3.621,-2.185,-558.288,223.693,-784.973,1
8.217653,-10.146,-3.74,-1.943,-536.193,150.512,-744.811,1
8.226934,-9.094,-3.78,-1.695,-492.004,86.303,-698.425,1
8.23358,-7.615,-3.729,-1.382,-421.508,13.549,-641.479,1
8.241999,-6.788,-3.612,-0.993,-371.215,-28.869,-591.125,1
8.251296,-5.822,-3.395,-0.759,-331.481,-73.181,-533.752,1
8.259683,-5.195,-3.066,-0.424,-280.883,-103.637,-479.675,1
8.267649,-4.686,-2.782,-0.258,-227.05,-126.647,-437.072,1
8.275735,-4.236,-2.467,-0.048,-157.043,-144.775,-391.784,1
8.284186,-3.843,-2.221,0.046,-94.97,-155.151,-356.994,1
8.292563,-3.467,-2.019,0.138,-38.146,-162.17,-322.021,1
8.300053,-3.177,-1.892,0.194,-8.972,-162.414,-294.799,1
8.308311,-2.787,-1.729,0.237,17.15,-160.217,-267.15,1
8.316428,-2.542,-1.674,0.256,24.719,-156.921,-246.276,1
8.324771,-2.264,-1.623,0.293,14.526,-149.353,-222.595,1
8.332812,-2.044,-1.514,0.321,8.361,-144.836,-204.162,1
8.33992,-1.88,-1.403,0.353,13.854,-139.404,-187.133,1
8.348353,-1.751,-1.337,0.354,21.179,-134.765,-171.508,1
8.356709,-1.637,-1.293,0.371,14.587,-128.54,-154.113,1
8.364781,-1.485,-1.203,0.375,10.498,-122.619,-137.695,1
8.373128,-1.416,-1.132,0.4,10.803,-117.309,-125.305,1
8.381234,-1.356,-1.046,0.411,19.958,-111.999,-113.342,1
8.389177,-1.313,-0.963,0.412,36.987,-108.398,-103.637,1
8.397336,-1.261,-1.013,0.394,36.56,-103.149,-94.726,1
8.405435,-1.219,-1.016,0.409,16.418,-95.092,-85.449,1
8.413324,-1.119,-1.007,0.45,0.244,-87.097,-78.735,1
8.421606,-0.993,-1.001,0.474,-12.939,-78.002,-70.861,1
8.428468,-0.863,-1.012,0.482,-18.371,-71.044,-64.27,1
8.436576,-0.748,-1.02,0.486,-18.066,-65.368,-56.762,1
8.445033,-0.637,-1.03,0.492,-5.31,-59.509,-48.461,1
8.453196,-0.513,-1.073,0.498,5.981,-54.687,-41.625,1
8.461545,-0.434,-1.102,0.495,14.282,-48.156,-33.508,1
8.469206,-0.377,-1.103,0.494,21.606,-43.273,-26.367,1
8.477564,-0.341,-1.097,0.492,28.625,-37.719,-20.141,1
8.484418,-0.309,-1.079,0.47,31.86,-32.714,-14.099,1
8.492288,-0.259,-1.056,0.446,30.456,-26.367,-7.934,1
8.500661,-0.25,-1.013,0.401,22.949,-20.874,-3.662,1
8.508932,-0.253,-0.959,0.343,10.681,-16.601,-0.183,1
8.517188,-0.232,-0.943,0.321,-5.371,-11.718,3.051,1
8.52415,-0.161,-0.945,0.303,-17.761,-7.202,6.286,1
8.533173,-0.107,-0.942,0.289,-26.611,-3.234,9.765,1
8.541543,-0.095,-0.942,0.285,-28.503,0.305,14.343,1
8.549746,0.008,-0.938,0.309,-16.54,4.333,19.47,1
8.556503,0.101,-0.959,0.328,2.807,8.3,24.108,1
8.562965,0.164,-0.93,0.35,32.958,12.207,29.235,1
8.570774,0.224,-1.023,0.315,40.954,16.296,35.217,1
8.578527,0.11,-0.985,0.334,34.973,24.719,41.564,1
8.587254,0.277,-0.976,0.28,30.883,31.311,47.546,1
8.593723,0.224,-0.957,0.257,19.104,40.893,53.771,1
8.601518,0.232,-0.929,0.165,-1.22,49.499,59.143,1
8.610262,0.144,-0.846,0.133,-19.47,58.41,63.72,1
8.616705,0.094,-0.778,0.073,-29.113,66.955,67.504,1
8.625089,0.068,-0.72,0.014,-29.479,73.303,70.068,1
8.632774,0.036,-0.692,-0.056,-22.338,78.979,72.021,1
8.641016,0.019,-0.711,-0.109,-16.723,83.251,74.157,1
8.647833,0.029,-0.721,-0.154,-6.408,88.562,78.063,1
8.655712,0.082,-0.777,-0.221,3.112,92.773,81.604,1
8.662656,0.131,-0.852,-0.283,-3.784,96.923,86.547,1
8.669845,0.125,-0.883,-0.328,-18.005,101.379,92.285,1
8.677688,0.104,-0.898,-0.362,-27.465,106.384,96.801,1
8.685527,0.094,-0.884,-0.399,-35.644,110.778,103.088,1
8.692593,0.155,-0.911,-0.449,-30.517,114.135,109.497,1
8.700989,0.157,-0.889,-0.489,-22.155,115.6,115.722,1
8.707757,0.139,-0.895,-0.524,-17.089,117.492,123.046,1
8.71539,0.084,-0.874,-0.58,-14.221,119.873,130.249,1
8.723371,0.064,-0.817,-0.65,-7.812,121.398,137.207,1
8.731306,-0.011,-0.768,-0.726,0.671,122.009,143.981,1
8.739756,-0.078,-0.717,-0.788,6.774,121.398,150.512,1
8.746184,-0.152,-0.669,-0.838,11.291,121.093,157.958,1
8.754087,-0.248,-0.627,-0.882,11.779,121.276,164.245,1
8.76255,-0.281,-0.612,-0.933,8.3,121.948,170.471,1
8.770532,-0.296,-0.582,-1.002,2.807,122.68,177.001,1
8.778925,-0.324,-0.539,-1.054,1.22,122.436,184.143,1
8.786158,-0.341,-0.488,-1.127,7.873,121.215,190.917,1
8.792867,-0.378,-0.417,-1.204,18.066,118.164,196.655,1
8.80045,-0.427,-0.342,-1.272,29.235,115.051,201.721,1
8.808126,-0.458,-0.266,-1.313,45.349,109.191,207.092,1
8.815213,-0.479,-0.162,-1.36,69.641,101.501,213.012,1
8.823532,-0.511,-0.075,-1.398,86.059,94.299,217.224,1
8.830477,-0.576,-0.01,-1.383,101.806,85.693,221.862,1
8.83768,-0.499,0.036,-1.378,114.746,78.43,226.44,1
8.846124,-0.53,0.095,-1.375,119.689,70.678,230.895,1
8.852636,-0.515,0.186,-1.378,122.497,64.758,235.961,1
8.860974,-0.493,0.293,-1.41,123.168,57.495,240.051,1
8.867779,-0.505,0.4,-1.432,121.093,50.72,243.347,1
8.876115,-0.556,0.495,-1.453,105.895,44.738,246.154,1
8.882961,-0.512,0.577,-1.47,89.66,39.367,248.657,1
8.889741,-0.549,0.698,-1.493,77.819,34.301,249.511,1
8.897766,-0.574,0.747,-1.476,64.147,26.794,250.427,1
8.904419,-0.547,0.863,-1.471,62.072,21.606,250.244,1
8.913258,-0.539,0.904,-1.505,65.673,11.962,250.366,1
8.921658,-0.51,0.998,-1.481,77.453,4.516,249.389,1
8.92866,-0.532,1.045,-1.503,89.721,-6.286,248.046,1
8.936612,-0.535,1.045,-1.501,86.853,-13.427,247.375,1
8.944799,-0.519,1.126,-1.519,77.941,-18.981,244.506,1
8.952042,-0.53,1.265,-1.497,68.115,-23.803,240.6,1
8.960196,-0.507,1.346,-1.492,55.725,-29.968,236.816,1
8.96902,-0.491,1.348,-1.477,47.729,-36.437,232.482,1
8.977025,-0.53,1.413,-1.415,48.461,-41.198,226.623,1
8.983731,-0.474,1.45,-1.333,45.837,-46.386,220.703,1
8.991569,-0.482,1.381,-1.265,49.011,-52.978,215.27,1
8.999931,-0.549,1.389,-1.185,39.672,-54.077,210.998,1
9.006455,-0.606,1.36,-1.147,28.137,-58.593,204.895,1
9.014893,-0.657,1.282,-1.042,8.544,-57.861,200.927,1
9.021344,-0.566,1.366,-0.971,-15.441,-54.87,197.021,1
9.03019,-0.622,1.294,-0.848,-27.832,-56.945,191.833,1
9.037022,-0.503,1.33,-0.749,-30.273,-48.95,187.622,1
9.044054,-0.446,1.295,-0.709,-22.216,-50.903,184.143,1
9.052297,-0.503,1.244,-0.623,-19.531,-46.02,182.739,1
9.060714,-0.465,1.104,-0.623,-37.841,-42.236,181.64,1
9.06854,-0.281,1.23,-0.538,-51.879,-33.02,178.039,1
9.076645,-0.278,1.263,-0.547,-61.157,-25.756,176.574,1
9.084958,-0.409,1.285,-0.566,-74.462,-20.751,174.682,1
9.091518,-0.449,1.309,-0.51,-81.848,-15.624,173.034,1
9.09998,-0.501,1.321,-0.482,-82.702,-10.437,170.959,1
9.106742,-0.67,1.107,-0.479,-97.045,-7.263,172.18,1
9.114694,-0.475,1.253,-0.444,-89.721,-0.976,167.907,1
9.121585,-0.683,1.321,-0.428,-65.673,1.647,165.832,1
9.129926,-0.689,1.294,-0.483,-54.931,3.356,165.283,1
9.136499,-0.657,1.29,-0.498,-40.466,2.258,163.818,1
9.144833,-0.644,1.267,-0.466,-20.263,4.089,162.719,1
9.151452,-0.616,1.217,-0.487,-2.99,2.075,161.804,1
9.159793,-0.608,1.157,-0.443,8.239,2.319,161.743,1
9.166322,-0.561,1.125,-0.449,15.747,3.479,161.987,1
9.174638,-0.548,1.077,-0.426,16.357,3.356,162.292,1
9.181652,-0.552,1.055,-0.398,13.977,5.798,163.33,1
9.188538,-0.549,1.055,-0.418,9.033,7.263,163.513,1
9.196994,-0.58,1.061,-0.421,1.892,9.033,163.513,1
9.203973,-0.586,1.073,-0.441,-2.624,10.864,163.33,1
9.212306,-0.592,1.097,-0.451,-1.647,10.62,162.536,1
9.219216,-0.595,1.103,-0.46,3.479,11.108,162.048,1
9.227183,-0.585,1.098,-0.475,10.009,9.643,160.949,1
9.234976,-0.586,1.089,-0.476,17.333,8.728,160.461,1
9.243126,-0.593,1.083,-0.477,24.963,7.324,159.667,1
9.249769,-0.598,1.064,-0.469,32.165,5.798,158.569,1
9.258016,-0.591,1.042,-0.461,38.879,4.394,158.081,1
9.264546,-0.585,1.02,-0.444,44.433,3.112,157.47,1
9.27306,-0.579,0.995,-0.436,45.898,2.807,157.47,1
9.27997,-0.579,0.973,-0.431,44.006,2.38,156.86,1
9.288816,-0.585,0.952,-0.422,39.306,2.319,156.738,1
9.295463,-0.576,0.936,-0.415,34.667,2.746,157.043,1
9.302244,-0.572,0.926,-0.407,31.738,3.112,156.982,1
9.309804,-0.578,0.911,-0.405,30.395,3.295,157.104,1
9.317879,-0.575,0.901,-0.396,29.846,3.479,157.531,1
9.325542,-0.572,0.895,-0.396,29.968,3.662,157.836,1
9.33262,-0.58,0.878,-0.397,30.578,3.845,158.813,1
9.341397,-0.59,0.873,-0.399,31.188,3.601,159.362,1
9.348043,-0.597,0.873,-0.404,33.691,3.723,160.095,1
9.354935,-0.614,0.875,-0.415,35.095,3.112,160.827,1
9.361912,-0.618,0.883,-0.416,38.94,2.685,161.743,1
9.370304,-0.618,0.885,-0.424,44.555,1.892,162.414,1
9.377191,-0.625,0.887,-0.422,49.865,1.098,163.208,1
9.384191,-0.639,0.892,-0.428,52.246,0.732,164.001,1
9.392538,-0.66,0.897,-0.43,51.818,0.244,165.1,1
9.40049,-0.661,0.908,-0.43,50.048,0.183,165.832,1
9.407091,-0.668,0.933,-0.428,48.217,0.122,166.503,1
9.415541,-0.681,0.941,-0.433,47.363,0.488,166.931,1
9.422318,-0.706,0.959,-0.434,47.119,0.244,167.419,1
9.429971,-0.752,0.982,-0.435,50.659,-0.488,167.663,1
9.438019,-0.774,1.0,-0.44,58.227,-1.647,167.724,1
9.444634,-0.779,1.019,-0.449,66.711,-3.234,167.358,1
9.453096,-0.789,1.026,-0.451,74.218,-5.249,166.809,1
9.459587,-0.797,1.026,-0.45,80.444,-7.263,166.32,1
9.467566,-0.824,1.03,-0.446,83.923,-8.483,165.954,1
9.475534,-0.851,1.061,-0.447,84.472,-9.399,165.527,1
9.482227,-0.849,1.097,-0.452,87.097,-10.925,164.367,1
9.490132,-0.844,1.119,-0.441,91.979,-12.207,162.658,1
9.498178,-0.84,1.127,-0.44,97.595,-14.587,160.644,1
9.506147,-0.835,1.127,-0.428,104.736,-17.15,158.63,1
9.514411,-0.839,1.114,-0.421,114.929,-19.348,155.883,1
9.521057,-0.852,1.102,-0.419,125.244,-22.766,153.747,1
9.529025,-0.864,1.077,-0.415,138.122,-26.306,151.489,1
9.536053,-0.87,1.051,-0.417,150.085,-29.968,149.78,1
9.544115,-0.881,1.03,-0.42,159.545,-34.24,147.949,1
9.551098,-0.893,0.98,-0.413,149.414,-35.766,146.423,1
9.560173,-0.871,0.965,-0.407,122.802,-35.583,144.958,1
9.567125,-0.869,0.974,-0.388,86.059,-33.264,143.127,1
9.574169,-0.624,1.005,-0.325,77.27,-35.034,140.197,1
9.582165,-1.019,0.997,-0.328,64.758,-29.418,139.892,1
9.589096,-0.993,1.052,-0.374,54.748,-32.348,138.305,1
9.597531,-0.999,1.04,-0.293,57.006,-33.63,137.756,1
9.604562,-0.92,1.006,-0.312,72.814,-33.264,137.023,1
9.61307,-0.906,1.048,-0.291,106.933,-38.879,132.446,1
9.619638,-0.967,1.05,-0.242,147.949,-39.916,129.943,1
9.628094,-0.915,1.013,-0.32,172.302,-45.104,127.746,1
9.634756,-0.946,0.988,-0.283,197.631,-51.208,125.732,1
9.642077,-0.944,0.975,-0.326,215.942,-53.894,124.206,1
9.650361,-0.987,0.939,-0.323,208.496,-58.166,121.643,1
9.658439,-0.969,0.924,-0.319,178.894,-56.213,119.201,1
9.666514,-0.948,0.922,-0.314,143.92,-56.091,116.21,1
9.673153,-0.95,0.929,-0.287,108.947,-52.185,113.952,1
9.680261,-0.915,0.953,-0.296,77.209,-50.048,111.145,1
9.688723,-0.911,0.969,-0.262,55.236,-47.607,108.398,1
9.695727,-0.895,0.979,-0.274,43.151,-46.02,105.895,1
9.704233,-0.918,0.99,-0.259,41.687,-45.959,103.027,1
9.711024,-0.928,1.011,-0.243,54.809,-46.142,100.524,1
9.71952,-0.904,1.01,-0.24,80.444,-49.377,97.9,1
9.726397,-0.911,0.996,-0.231,113.464,-52.185,95.458,1
9.734861,-0.901,0.973,-0.25,144.409,-56.457,93.2,1
9.741465,-0.891,0.935,-0.25,165.344,-59.814,90.759,1
9.749954,-0.876,0.896,-0.252,172.546,-61.34,88.378,1
9.756579,-0.866,0.862,-0.251,167.114,-62.316,85.693,1
9.763577,-0.871,0.834,-0.25,151.916,-61.889,83.129,1
9.771983,-0.863,0.809,-0.245,131.469,-60.791,80.566,1
9.78082,-0.864,0.791,-0.229,108.825,-59.02,78.002,1
9.787182,-0.861,0.772,-0.226,87.89,-56.762,75.805,1
9.794948,-0.863,0.763,-0.219,69.824,-55.236,73.791,1
9.803368,-0.861,0.752,-0.213,57.128,-53.466,72.204,1
9.810144,-0.862,0.747,-0.204,51.208,-52.185,70.861,1
9.81785,-0.85,0.733,-0.197,52.001,-51.696,69.946,1
9.826039,-0.84,0.722,-0.193,59.143,-51.818,69.152,1
9.833853,-0.827,0.701,-0.186,70.19,-52.551,68.603,1
9.840227,-0.815,0.688,-0.186,83.19,-53.405,68.115,1
9.848746,-0.815,0.673,-0.185,95.825,-54.382,67.199,1
9.85601,-0.815,0.653,-0.19,106.811,-55.175,67.016,1
9.86293,-0.823,0.637,-0.192,113.952,-55.725,66.223,1
9.869938,-0.817,0.623,-0.198,117.98,-56.457,65.551,1
9.877796,-0.816,0.603,-0.191,118.103,-56.457,65.002,1
9.886202,-0.825,0.586,-0.195,114.379,-55.786,64.697,1
9.893102,-0.847,0.572,-0.195,107.604,-55.114,64.392,1
9.901522,-0.898,0.572,-0.198,97.961,-53.894,64.086,1
9.909349,-0.973,0.577,-0.205,86.73,-52.246,64.453,1
9.916289,-1.041,0.581,-0.208,75.256,-50.598,64.453,1
9.924444,-1.087,0.586,-0.205,64.392,-48.95,64.819,1
9.931154,-1.099,0.587,-0.209,54.87,-46.997,65.307,1
9.940714,-1.09,0.588,-0.213,46.264,-44.921,65.979,1
9.947207,-1.058,0.596,-0.21,39.306,-43.334,66.711,1
9.955603,-1.007,0.603,-0.214,38.574,-42.846,67.138,1
9.964005,-0.949,0.604,-0.211,42.358,-42.907,67.565,1
9.973191,-0.895,0.617,-0.211,52.612,-43.823,67.626,1
9.979768,-0.854,0.623,-0.216,65.979,-45.471,67.26,1
9.988201,-0.829,0.629,-0.212,85.388,-48.156,66.955,1
9.996046,-0.819,0.628,-0.209,100.524,-50.231,66.467,1
