timestamp_s,ax,ay,az,gx,gy,gz,label
0.007158,-0.814,0.581,-0.197,0.366,-0.549,-0.915,1
0.013928,-0.815,0.58,-0.195,-0.549,-0.305,-0.793,1
0.022827,-0.814,0.585,-0.191,-0.854,-0.549,-0.976,1
0.029527,-0.814,0.581,-0.193,-0.427,-0.793,-1.037,1
0.036525,-0.815,0.582,-0.19,0.0,-1.098,-1.159,1
0.04432,-0.815,0.582,-0.192,0.244,-1.403,-1.159,1
0.051959,-0.813,0.584,-0.191,0.671,-1.892,-1.22,1
0.059683,-0.812,0.584,-0.196,0.61,-1.953,-1.525,1
0.067216,-0.815,0.592,-0.197,0.854,-2.258,-1.708,1
0.074916,-0.819,0.597,-0.191,1.831,-2.624,-1.708,1
0.082219,-0.816,0.6,-0.188,3.845,-3.051,-2.075,1
0.089618,-0.812,0.598,-0.19,5.859,-3.601,-2.38,1
0.097575,-0.814,0.594,-0.185,7.019,-3.845,-2.624,1
0.106031,-0.81,0.595,-0.188,7.324,-4.028,-2.685,1
0.112496,-0.81,0.588,-0.187,6.713,-3.967,-3.051,1
0.120778,-0.807,0.584,-0.187,5.493,-4.333,-3.051,1
0.128477,-0.807,0.581,-0.188,4.089,-4.211,-3.112,1
0.13552,-0.806,0.586,-0.185,2.929,-4.455,-3.173,1
0.142778,-0.802,0.587,-0.188,2.746,-4.638,-3.54,1
0.150998,-0.795,0.591,-0.187,3.234,-4.76,-3.356,1
0.158675,-0.793,0.593,-0.185,4.211,-4.943,-3.601,1
0.165106,-0.796,0.593,-0.184,5.187,-5.554,-3.784,1
0.173616,-0.796,0.597,-0.187,5.737,-5.676,-3.662,1
0.180346,-0.798,0.592,-0.185,5.676,-5.798,-4.15,1
0.187432,-0.797,0.588,-0.184,5.187,-5.798,-4.15,1
0.194972,-0.795,0.591,-0.184,3.967,-5.737,-4.333,1
0.202675,-0.799,0.589,-0.186,2.075,-5.615,-4.699,1
0.210177,-0.796,0.591,-0.187,0.122,-5.92,-4.76,1
0.21728,-0.797,0.591,-0.19,-0.976,-5.432,-5.126,1
0.22517,-0.791,0.589,-0.185,-1.22,-5.737,-5.249,1
0.234013,-0.793,0.586,-0.181,-0.732,-5.859,-5.249,1
0.241113,-0.783,0.585,-0.187,0.366,-5.92,-5.31,1
0.249473,-0.773,0.585,-0.184,2.929,-6.774,-5.004,1
0.255909,-0.769,0.59,-0.189,5.737,-7.141,-4.821,1
0.263728,-0.77,0.601,-0.194,8.972,-7.751,-4.394,1
0.272918,-0.772,0.616,-0.203,11.962,-8.483,-4.15,1
0.279291,-0.774,0.644,-0.21,15.563,-9.216,-4.15,1
0.28693,-0.778,0.671,-0.221,20.568,-10.314,-4.089,1
0.294549,-0.785,0.694,-0.227,26.0,-11.291,-4.394,1
0.302167,-0.785,0.709,-0.233,29.968,-12.268,-5.004,1
0.310042,-0.782,0.724,-0.242,31.188,-12.817,-5.004,1
0.316536,-0.777,0.748,-0.256,29.418,-13.183,-5.554,1
0.324642,-0.77,0.772,-0.272,23.62,-13.122,-5.92,1
0.332755,-0.759,0.808,-0.291,12.084,-12.634,-6.896,1
0.340045,-0.736,0.873,-0.312,-4.333,-11.596,-8.3,1
0.348039,-0.73,0.946,-0.325,-20.69,-11.169,-10.437,1
0.356443,-0.76,1.028,-0.345,-34.912,-10.62,-13.549,1
0.363216,-0.779,1.109,-0.374,-42.48,-10.437,-16.784,1
0.371235,-0.784,1.191,-0.389,-42.663,-11.108,-20.507,1
0.37926,-0.793,1.266,-0.421,-36.071,-12.451,-24.658,1
0.386643,-0.796,1.329,-0.453,-25.39,-14.282,-28.686,1
0.394496,-0.816,1.383,-0.489,-12.207,-16.723,-33.569,1
0.402403,-0.831,1.429,-0.527,-4.394,-19.226,-37.963,1
0.410583,-0.839,1.485,-0.559,-1.586,-20.812,-42.663,1
0.417082,-0.837,1.53,-0.589,-4.699,-22.399,-47.607,1
0.424944,-0.838,1.574,-0.61,-12.329,-23.193,-52.673,1
0.43318,-0.833,1.621,-0.631,-21.667,-23.62,-57.922,1
0.44119,-0.829,1.684,-0.682,-29.968,-24.475,-63.476,1
0.449158,-0.84,1.739,-0.733,-36.132,-26.733,-69.091,1
0.45609,-0.865,1.808,-0.795,-35.949,-29.846,-74.707,1
0.463736,-0.894,1.864,-0.846,-27.77,-34.606,-79.833,1
0.470979,-0.926,1.917,-0.887,-13.244,-40.1,-84.716,1
0.479284,-0.921,1.937,-0.92,1.22,-45.776,-90.209,1
0.485856,-0.913,1.909,-0.94,2.014,-51.635,-95.031,1
0.49382,-1.07,1.977,-0.952,11.718,-53.833,-100.341,1
0.501829,-1.0,1.971,-1.002,8.911,-59.936,-106.14,1
0.509774,-1.017,1.986,-0.971,2.502,-62.194,-111.328,1
0.517543,-1.013,1.993,-1.022,-6.591,-65.612,-116.882,1
0.524247,-1.083,2.015,-1.045,-19.531,-70.007,-122.436,1
0.532518,-1.1,2.031,-1.082,-31.372,-73.913,-127.624,1
0.540219,-1.066,1.993,-1.097,-48.889,-81.542,-133.361,1
0.547293,-1.359,2.078,-1.104,-48.095,-83.923,-137.268,1
0.556516,-1.281,2.031,-1.175,-54.077,-93.139,-141.906,1
0.563076,-1.308,1.983,-1.119,-65.612,-97.595,-144.775,1
0.570333,-1.291,1.938,-1.161,-78.796,-102.416,-147.033,1
0.578698,-1.256,1.849,-1.137,-101.806,-109.436,-148.498,1
0.585554,-1.456,1.879,-1.084,-110.351,-110.107,-149.353,1
0.593198,-1.42,1.847,-1.102,-110.9,-118.957,-150.268,1
0.600566,-1.346,1.833,-0.996,-93.505,-122.863,-151.184,1
0.608544,-1.319,1.796,-1.022,-67.077,-127.38,-153.015,1
0.616583,-1.344,1.736,-1.006,-43.457,-133.239,-154.968,1
0.624913,-1.29,1.659,-0.996,-29.235,-134.765,-156.494,1
0.631565,-1.304,1.625,-1.016,-15.991,-138.183,-159.057,1
0.639498,-1.214,1.519,-1.006,-17.578,-141.052,-161.193,1
0.647957,-1.276,1.49,-0.984,-25.573,-140.747,-162.841,1
0.654625,-1.283,1.454,-0.988,-33.813,-143.432,-165.527,1
0.662514,-1.328,1.431,-0.96,-48.034,-143.981,-167.48,1
0.669521,-1.298,1.372,-0.981,-67.016,-145.385,-169.86,1
0.677092,-1.376,1.368,-0.938,-87.524,-147.155,-172.058,1
0.685488,-1.396,1.351,-0.937,-102.172,-148.559,-173.339,1
0.692863,-1.417,1.33,-0.916,-108.825,-153.381,-174.316,1
0.70024,-1.422,1.306,-0.877,-101.257,-156.982,-174.743,1
0.707937,-1.413,1.276,-0.886,-84.228,-162.536,-175.17,1
0.715458,-1.402,1.231,-0.881,-70.983,-167.114,-175.17,1
0.723323,-1.409,1.194,-0.874,-60.058,-170.654,-175.17,1
0.7314,-1.402,1.167,-0.873,-52.185,-174.804,-175.353,1
0.739131,-1.395,1.121,-0.848,-52.429,-177.307,-175.659,1
0.745966,-1.405,1.083,-0.826,-64.514,-178.771,-175.781,1
0.753052,-1.363,1.083,-0.796,-79.65,-180.725,-175.109,1
0.760808,-1.352,1.108,-0.756,-85.754,-182.434,-175.231,1
0.768141,-1.36,1.088,-0.737,-96.557,-184.265,-175.231,1
0.776646,-1.402,1.08,-0.708,-104.431,-185.974,-175.72,1
0.783522,-1.36,0.977,-0.746,-112.67,-179.748,-179.077,1
0.791438,-1.342,0.997,-0.809,-142.883,-177.612,-182.373,1
0.798642,-1.434,0.92,-0.765,-178.833,-174.133,-185.668,1
0.806931,-1.308,0.901,-0.716,-195.617,-166.748,-191.467,1
0.813953,-1.413,0.761,-0.821,-217.407,-162.414,-190.856,1
0.822753,-1.398,0.725,-0.825,-239.624,-165.893,-188.781,1
0.829035,-1.385,0.691,-0.705,-252.99,-167.297,-182.495,1
0.836577,-1.308,0.666,-0.708,-250.122,-175.292,-175.109,1
0.844539,-1.24,0.615,-0.62,-238.037,-184.02,-166.381,1
0.853058,-1.166,0.559,-0.589,-220.642,-192.443,-157.775,1
0.860517,-1.144,0.521,-0.529,-201.904,-202.819,-149.719,1
0.868507,-1.129,0.458,-0.454,-181.884,-210.327,-142.211,1
0.875309,-1.09,0.394,-0.391,-162.658,-218.688,-135.681,1
0.883432,-1.083,0.333,-0.296,-138.427,-225.646,-129.943,1
0.891382,-1.147,0.279,-0.229,-106.872,-232.604,-124.45,1
0.899417,-1.211,0.208,-0.161,-65.612,-238.037,-119.323,1
0.906041,-1.181,0.162,-0.153,-18.554,-244.812,-114.44,1
0.913897,-1.153,0.129,-0.099,35.278,-250.976,-112.792,1
0.921194,-1.177,0.037,-0.058,60.852,-250.244,-113.891,1
0.928683,-1.218,-0.103,-0.092,57.006,-246.704,-115.661,1
0.936377,-1.049,-0.224,-0.13,10.131,-241.577,-116.027,1
0.945699,-0.957,-0.326,-0.116,-68.298,-238.403,-113.159,1
0.95268,-0.969,-0.342,-0.066,-150.39,-231.811,-105.59,1
0.9596,-1.069,-0.314,-0.031,-229.492,-229.675,-93.749,1
0.9681,-1.065,-0.254,0.049,-261.962,-228.21,-82.092,1
0.975299,-1.029,-0.194,0.056,-257.385,-233.093,-70.983,1
0.982069,-1.035,-0.202,0.13,-229.064,-239.562,-60.424,1
0.989842,-1.101,-0.223,0.171,-195.434,-244.628,-49.926,1
0.997897,-1.128,-0.242,0.239,-166.198,-250.244,-40.283,1
1.005511,-1.191,-0.278,0.319,-142.639,-253.051,-30.456,1
1.013766,-1.301,-0.302,0.374,-124.45,-255.126,-20.507,1
1.02097,-1.376,-0.291,0.458,-104.797,-256.713,-10.437,1
1.028329,-1.374,-0.33,0.513,-82.946,-257.507,-2.624,1
1.036469,-1.395,-0.395,0.577,-70.739,-258.972,5.981,1
1.043243,-1.387,-0.446,0.676,-64.147,-257.202,14.465,1
1.051357,-1.338,-0.509,0.749,-61.523,-255.92,22.949,1
1.058402,-1.274,-0.57,0.843,-60.363,-252.99,31.066,1
1.066141,-1.2,-0.612,0.926,-57.8,-251.647,38.513,1
1.074725,-1.201,-0.705,1.044,-57.434,-248.657,46.264,1
1.081102,-1.174,-0.788,1.163,-59.02,-243.652,54.077,1
1.089727,-1.191,-0.87,1.272,-64.331,-237.365,63.049,1
1.096092,-1.26,-0.933,1.357,-71.105,-229.919,73.059,1
1.104425,-1.335,-0.975,1.415,-74.218,-222.595,84.106,1
1.111033,-1.42,-1.018,1.476,-69.213,-215.881,96.252,1
1.118927,-1.472,-1.08,1.509,-58.837,-209.899,109.497,1
1.125878,-1.546,-1.169,1.548,-51.269,-205.566,120.788,1
1.133498,-1.625,-1.27,1.599,-50.598,-199.707,135.07,1
1.141452,-1.643,-1.333,1.654,-54.077,-192.016,150.268,1
1.148797,-1.75,-1.428,1.733,-64.758,-185.852,166.687,1
1.155992,-1.855,-1.473,1.829,-76.171,-175.231,184.448,1
1.164474,-1.954,-1.503,1.88,-89.416,-165.954,202.331,1
1.171088,-2.109,-1.542,1.99,-99.182,-153.747,221.801,1
1.178443,-2.231,-1.569,2.052,-109.802,-141.296,242.065,1
1.186432,-2.441,-1.578,2.158,-113.891,-128.601,262.878,1
1.19426,-2.614,-1.571,2.278,-110.9,-113.769,284.545,1
1.202346,-2.872,-1.56,2.424,-101.501,-98.999,306.64,1
1.20856,-3.17,-1.559,2.58,-95.581,-81.176,329.406,1
1.216704,-3.456,-1.564,2.776,-99.121,-62.194,351.623,1
1.224186,-3.72,-1.57,3.013,-103.027,-37.78,374.694,1
1.232085,-4.008,-1.561,3.226,-110.412,-11.84,398.559,1
1.238873,-4.387,-1.545,3.464,-125.976,19.104,422.424,1
1.246146,-4.756,-1.503,3.737,-147.338,54.504,445.8,1
1.253979,-5.16,-1.428,4.041,-162.597,96.374,469.116,1
1.26097,-5.667,-1.34,4.276,-171.997,134.521,487.731,1
1.268963,-6.177,-1.227,4.467,-186.706,184.753,508.3,1
1.276462,-6.784,-1.039,4.639,-194.885,239.929,526.855,1
1.283459,-7.49,-0.832,4.708,-195.19,298.584,543.151,1
1.291731,-8.213,-0.624,4.598,-215.087,359.985,556.457,1
1.299055,-9.116,-0.242,4.435,-235.595,424.011,565.673,1
1.306581,-10.168,0.166,4.112,-248.596,488.281,570.556,1
1.314379,-11.25,0.614,3.706,-262.878,548.889,569.458,1
1.320901,-12.343,1.053,3.328,-280.944,608.581,563.11,1
1.329037,-13.342,1.435,2.916,-302.795,667.358,550.842,1
1.33588,-14.335,1.722,2.42,-319.58,715.026,537.292,1
1.342962,-15.074,1.961,1.959,-332.702,765.808,517.334,1
1.350648,-15.921,2.321,1.584,-325.805,809.753,493.347,1
1.358878,-15.997,2.463,1.162,-265.38,848.815,473.693,1
1.364705,-15.999,2.434,0.694,-265.686,877.319,453.369,1
1.372728,-15.999,2.571,0.407,-277.648,914.306,435.424,1
1.379237,-15.999,2.83,0.018,-280.334,941.772,408.752,1
1.386938,-15.999,3.169,-0.298,-258.972,966.979,378.356,1
1.394357,-15.999,3.258,-0.825,-274.23,981.75,342.59,1
1.401417,-15.999,3.461,-1.27,-301.147,990.295,306.091,1
1.408968,-15.999,3.5,-1.756,-353.698,991.882,254.272,1
1.417314,-15.999,3.471,-2.185,-403.869,990.783,195.556,1
1.424644,-15.999,3.342,-2.652,-429.382,984.68,123.901,1
1.432762,-15.999,2.828,-3.381,-532.959,972.045,53.466,1
1.439351,-15.999,2.456,-4.017,-691.162,960.205,-15.624,1
1.447466,-15.999,2.194,-4.508,-869.811,934.143,-113.525,1
1.455943,-15.321,1.757,-4.646,-964.05,878.723,-218.566,1
1.46239,-13.531,1.179,-4.411,-950.805,806.03,-314.575,1
1.469509,-12.106,0.52,-4.087,-860.534,725.402,-386.718,1
1.477083,-11.046,0.041,-3.961,-742.431,638.732,-436.279,1
1.484623,-10.165,-0.411,-3.767,-640.808,556.213,-467.163,1
1.492861,-9.187,-0.848,-3.548,-552.734,485.351,-484.619,1
1.501247,-8.238,-1.281,-3.373,-485.412,419.738,-493.774,1
1.508153,-7.407,-1.671,-3.107,-467.59,367.431,-494.811,1
1.514804,-6.676,-1.85,-2.841,-479.248,317.993,-491.76,1
1.523752,-6.041,-1.88,-2.467,-481.445,270.141,-485.351,1
1.530736,-5.428,-1.84,-2.12,-459.045,225.158,-474.975,1
1.537563,-4.795,-1.782,-1.794,-429.382,181.945,-460.205,1
1.545223,-4.324,-1.688,-1.547,-382.263,144.226,-441.223,1
1.553299,-3.961,-1.506,-1.365,-304.504,106.811,-419.982,1
1.56008,-3.77,-1.36,-1.246,-199.401,73.852,-398.681,1
1.56863,-3.556,-1.359,-1.185,-113.586,47.18,-377.929,1
1.575733,-3.293,-1.375,-1.104,-70.068,28.747,-356.872,1
1.584699,-3.04,-1.336,-1.026,-48.278,15.197,-337.158,1
1.5912,-2.76,-1.283,-0.92,-33.63,4.272,-319.091,1
1.599673,-2.522,-1.24,-0.826,-28.625,-2.685,-302.001,1
1.607499,-2.252,-1.167,-0.716,-35.339,-8.85,-283.813,1
1.615601,-2.057,-1.085,-0.642,-49.804,-11.23,-269.531,1
1.623213,-1.877,-0.998,-0.592,-71.228,-13.427,-256.103,1
1.631067,-1.688,-0.896,-0.54,-89.172,-15.808,-243.408,1
1.639503,-1.496,-0.765,-0.509,-89.05,-20.202,-228.942,1
1.649335,-1.375,-0.667,-0.491,-62.622,-26.916,-215.515,1
1.657108,-1.307,-0.6,-0.48,-29.968,-31.738,-204.162,1
1.665538,-1.15,-0.557,-0.478,10.742,-38.757,-191.65,1
1.673114,-1.026,-0.56,-0.476,41.748,-40.893,-181.762,1
1.681287,-0.909,-0.562,-0.488,59.387,-43.701,-170.959,1
1.689715,-0.798,-0.546,-0.476,65.612,-42.907,-161.743,1
1.698099,-0.682,-0.491,-0.497,67.504,-42.846,-152.282,1
1.705026,-0.645,-0.444,-0.489,66.589,-41.32,-144.836,1
1.713636,-0.612,-0.404,-0.509,61.218,-40.344,-138.244,1
1.720713,-0.559,-0.347,-0.501,54.321,-39.062,-132.629,1
1.728993,-0.494,-0.313,-0.504,49.255,-37.475,-125.671,1
1.737037,-0.469,-0.278,-0.501,50.17,-37.109,-119.75,1
1.744151,-0.369,-0.259,-0.498,57.128,-36.376,-114.44,1
1.752053,-0.312,-0.256,-0.505,59.387,-36.499,-109.497,1
1.761548,-0.288,-0.239,-0.503,58.349,-35.461,-103.332,1
1.768068,-0.162,-0.249,-0.487,55.786,-35.034,-98.51,1
1.776641,-0.076,-0.247,-0.47,53.894,-33.935,-93.444,1
1.784551,-0.009,-0.237,-0.471,50.415,-31.921,-87.219,1
1.792985,0.038,-0.223,-0.474,44.982,-31.249,-82.214,1
1.801184,0.098,-0.223,-0.47,35.705,-28.747,-77.941,1
1.808697,0.166,-0.227,-0.475,21.728,-26.855,-73.486,1
1.817054,0.231,-0.222,-0.461,5.798,-23.559,-68.298,1
1.824527,0.263,-0.216,-0.453,-4.333,-21.667,-64.208,1
1.832174,0.267,-0.214,-0.444,-9.399,-19.836,-59.936,1
1.840355,0.312,-0.212,-0.451,-9.216,-18.737,-54.382,1
1.846861,0.388,-0.209,-0.461,-9.033,-17.944,-49.316,1
1.855573,0.424,-0.205,-0.469,-11.474,-18.005,-44.677,1
1.861973,0.444,-0.193,-0.458,-14.587,-17.761,-39.611,1
1.870011,0.471,-0.183,-0.461,-17.944,-17.822,-35.156,1
1.878133,0.486,-0.169,-0.437,-19.165,-18.066,-30.639,1
1.884885,0.498,-0.153,-0.416,-16.601,-17.7,-26.489,1
1.892355,0.515,-0.127,-0.41,-11.108,-17.272,-22.705,1
1.900803,0.53,-0.108,-0.414,-5.065,-16.662,-19.409,1
1.907643,0.534,-0.105,-0.405,-0.305,-15.502,-16.174,1
1.916478,0.546,-0.105,-0.427,-2.197,-13.122,-12.878,1
1.923179,0.534,-0.091,-0.457,-10.62,-11.779,-9.765,1
1.930971,0.528,-0.058,-0.463,-14.892,-9.582,-7.202,1
1.939474,0.559,-0.049,-0.483,-19.653,-9.826,-4.821,1
1.947449,0.557,-0.037,-0.476,-22.521,-8.972,-1.586,1
1.955875,0.565,-0.026,-0.481,-21.728,-9.826,1.037,1
1.963913,0.573,-0.025,-0.463,-19.226,-10.559,3.417,1
1.971282,0.593,-0.033,-0.46,-18.127,-10.559,5.92,1
1.979754,0.604,-0.041,-0.454,-16.479,-11.657,8.666,1
1.986442,0.617,-0.053,-0.437,-13.732,-12.329,11.962,1
1.994486,0.632,-0.063,-0.433,-12.329,-12.512,14.831,1
2.002409,0.647,-0.078,-0.428,-12.207,-12.695,18.066,1
2.011398,0.659,-0.078,-0.43,-15.014,-12.573,21.606,1
2.018113,0.66,-0.076,-0.433,-18.493,-12.329,24.475,1
2.027405,0.653,-0.073,-0.423,-20.507,-11.535,27.832,1
2.034176,0.655,-0.067,-0.414,-19.775,-11.291,30.639,1
2.042028,0.671,-0.074,-0.4,-17.639,-10.375,33.447,1
2.050315,0.69,-0.084,-0.408,-16.723,-9.338,36.926,1
2.058398,0.686,-0.084,-0.407,-17.211,-8.483,40.832,1
2.065608,0.67,-0.084,-0.41,-19.348,-7.507,44.433,1
2.073773,0.634,-0.074,-0.421,-23.742,-7.019,48.034,1
2.081738,0.594,-0.06,-0.425,-28.381,-6.042,51.269,1
2.088358,0.556,-0.041,-0.432,-32.775,-5.859,54.748,1
2.097167,0.526,-0.028,-0.432,-34.729,-5.554,58.166,1
2.104778,0.505,-0.02,-0.437,-33.386,-5.859,61.157,1
2.113429,0.506,-0.013,-0.446,-31.127,-5.798,64.147,1
2.120214,0.514,-0.015,-0.455,-28.259,-6.286,67.382,1
2.128134,0.515,-0.021,-0.478,-26.184,-5.859,70.312,1
2.136727,0.51,-0.034,-0.491,-27.099,-5.432,74.279,1
2.143044,0.498,-0.037,-0.515,-30.7,-4.882,77.941,1
2.151459,0.489,-0.023,-0.52,-32.714,-4.333,81.909,1
2.158574,0.479,-0.011,-0.538,-33.569,-4.089,85.266,1
2.166883,0.458,-0.006,-0.545,-34.606,-4.211,88.989,1
2.175816,0.412,0.003,-0.56,-36.987,-3.967,92.651,1
2.182003,0.374,0.023,-0.57,-37.597,-4.089,96.862,1
2.189293,0.336,0.037,-0.576,-35.705,-4.638,100.097,1
2.197369,0.294,0.054,-0.576,-33.508,-5.31,103.332,1
2.204443,0.27,0.06,-0.598,-28.198,-5.981,106.75,1
2.212558,0.236,0.073,-0.618,-26.184,-7.202,109.924,1
2.219675,0.218,0.106,-0.644,-23.071,-7.995,112.976,1
2.228097,0.198,0.142,-0.672,-17.028,-10.864,116.943,1
2.235036,0.193,0.164,-0.684,-9.765,-12.939,119.995,1
2.2433,0.168,0.172,-0.715,-5.371,-14.953,122.497,1
2.249873,0.123,0.173,-0.733,-2.807,-16.906,125.183,1
2.257657,0.101,0.171,-0.743,-3.295,-18.432,128.356,1
2.264408,0.084,0.176,-0.763,-4.394,-20.812,131.347,1
2.27158,0.072,0.192,-0.762,-5.432,-23.376,134.582,1
2.279795,0.068,0.208,-0.767,-3.845,-25.817,138.183,1
2.286439,0.039,0.208,-0.786,-1.159,-28.442,141.052,1
2.29442,0.021,0.233,-0.772,-2.99,-31.005,144.348,1
2.301331,0.026,0.263,-0.795,2.746,-34.912,147.644,1
2.308997,-0.023,0.304,-0.803,11.413,-39.367,150.817,1
2.315837,-0.058,0.322,-0.841,18.31,-43.823,154.418,1
2.32362,-0.053,0.374,-0.803,19.531,-47.424,157.348,1
2.330678,-0.041,0.438,-0.844,28.015,-52.49,159.606,1
2.337664,-0.057,0.48,-0.856,40.405,-57.922,161.621,1
2.345812,-0.043,0.521,-0.857,47.363,-62.622,163.269,1
2.352278,-0.039,0.559,-0.878,47.912,-67.749,164.611,1
2.359998,-0.06,0.586,-0.873,36.254,-71.228,165.771,1
2.368127,-0.059,0.621,-0.865,19.348,-72.814,166.625,1
2.37478,-0.049,0.676,-0.844,-3.906,-75.256,167.785,1
2.382502,-0.054,0.737,-0.811,-21.362,-77.514,169.433,1
2.390597,-0.069,0.806,-0.792,-29.785,-79.589,170.654,1
2.397252,-0.128,0.878,-0.758,-26.916,-82.885,171.142,1
2.406094,-0.195,0.921,-0.722,-18.005,-85.998,171.874,1
2.413112,-0.241,0.971,-0.703,-6.591,-89.416,172.363,1
2.41995,-0.297,1.013,-0.677,6.958,-93.078,171.874,1
2.427954,-0.368,1.039,-0.652,19.653,-96.557,171.325,1
2.434645,-0.43,1.029,-0.616,27.587,-99.243,170.837,1
2.442913,-0.474,1.033,-0.587,27.954,-100.708,170.471,1
2.449548,-0.535,1.034,-0.582,23.62,-101.867,169.677,1
2.457688,-0.595,1.047,-0.562,16.845,-102.905,168.457,1
2.464333,-0.652,1.05,-0.562,8.911,-103.637,167.175,1
2.472576,-0.669,1.065,-0.554,1.831,-105.224,165.832,1
2.478911,-0.691,1.082,-0.525,4.577,-108.459,165.1,1
2.488237,-0.727,1.109,-0.49,19.042,-112.854,164.245,1
2.495356,-0.787,1.123,-0.45,38.208,-117.614,163.269,1
2.501792,-0.835,1.121,-0.418,56.335,-122.192,161.743,1
2.50979,-0.879,1.115,-0.382,69.824,-126.647,159.79,1
2.517045,-0.901,1.117,-0.353,79.711,-129.76,158.264,1
2.524882,-0.909,1.148,-0.351,84.716,-132.751,156.372,1
2.533895,-0.927,1.183,-0.351,85.449,-136.108,154.174,1
2.540008,-0.944,1.192,-0.342,83.496,-138.732,151.306,1
2.548124,-0.951,1.166,-0.326,71.96,-139.648,148.071,1
2.55478,-0.958,1.125,-0.312,52.673,-139.953,145.385,1
2.562865,-0.96,1.082,-0.285,31.677,-139.221,142.7,1
2.569399,-0.948,1.04,-0.26,15.563,-138.854,141.845,1
2.576793,-0.919,1.016,-0.216,6.652,-139.465,142.028,1
2.584537,-0.935,1.035,-0.157,13.305,-141.357,142.822,1
2.592231,-0.981,1.065,-0.098,31.799,-144.409,143.859,1
2.60009,-1.005,1.083,-0.038,55.358,-147.705,144.531,1
2.608384,-0.998,1.076,0.003,82.885,-150.878,144.897,1
2.615538,-1.04,1.087,0.022,109.924,-154.235,144.287,1
2.622293,-1.068,0.997,0.029,115.173,-155.639,143.737,1
2.630509,-1.031,0.99,0.046,104.614,-153.991,142.944,1
2.637284,-1.048,1.015,0.048,87.158,-154.235,141.418,1
2.645489,-1.062,1.008,0.071,69.03,-151.977,141.235,1
2.65207,-1.078,1.013,0.075,50.598,-150.451,140.136,1
2.659819,-1.119,1.014,0.105,32.409,-148.437,139.831,1
2.666484,-1.117,1.052,0.123,8.361,-145.324,139.831,1
2.673599,-1.078,1.125,0.186,-4.516,-144.348,140.319,1
2.68155,-1.121,1.203,0.283,-0.915,-142.761,141.296,1
2.688359,-1.115,1.271,0.375,16.601,-142.578,141.906,1
2.696544,-1.125,1.338,0.455,44.433,-144.348,140.747,1
2.703391,-1.122,1.33,0.493,67.871,-143.493,138.854,1
2.710761,-1.088,1.368,0.563,73.73,-141.784,136.474,1
2.719177,-1.028,1.389,0.599,70.861,-138.366,133.361,1
2.725566,-1.02,1.445,0.637,65.246,-134.338,129.516,1
2.73404,-1.014,1.478,0.637,59.02,-130.065,125.61,1
2.740535,-0.993,1.51,0.631,47.668,-125.488,120.788,1
2.748926,-0.974,1.522,0.604,32.226,-121.398,117.004,1
2.755661,-0.945,1.534,0.592,6.164,-116.21,112.182,1
2.763715,-0.848,1.558,0.599,-15.197,-109.802,107.666,1
2.772042,-0.851,1.646,0.616,-14.953,-106.689,103.698,1
2.778841,-0.843,1.646,0.611,-4.028,-104.858,99.609,1
2.786064,-0.813,1.639,0.624,11.047,-104.492,95.336,1
2.793946,-0.807,1.627,0.633,27.221,-103.271,90.393,1
2.802028,-0.784,1.585,0.64,39.794,-102.294,85.021,1
2.808996,-0.753,1.537,0.651,48.95,-99.853,79.956,1
2.816146,-0.745,1.477,0.633,52.673,-98.327,76.293,1
2.824318,-0.719,1.416,0.623,51.635,-95.214,72.265,1
2.830926,-0.71,1.353,0.607,51.635,-92.346,69.396,1
2.838468,-0.678,1.273,0.586,54.016,-89.477,67.138,1
2.845671,-0.631,1.177,0.549,54.809,-86.914,65.795,1
2.853885,-0.693,1.091,0.498,57.678,-84.716,65.49,1
2.86236,-0.681,1.039,0.444,56.457,-83.618,65.307,1
2.86893,-0.653,1.007,0.417,59.326,-83.923,66.223,1
2.877165,-0.673,1.026,0.403,74.462,-84.777,66.284,1
2.884284,-0.607,0.997,0.394,88.684,-86.791,66.223,1
2.893043,-0.644,0.987,0.386,101.257,-88.562,66.162,1
2.899049,-0.644,0.967,0.378,110.534,-90.576,65.673,1
2.907342,-0.664,0.952,0.39,118.286,-92.041,64.697,1
2.91361,-0.657,0.928,0.375,122.436,-93.2,63.781,1
2.920741,-0.63,0.917,0.379,124.206,-94.421,62.377,1
2.928916,-0.609,0.907,0.362,128.356,-95.214,60.485,1
2.937036,-0.605,0.898,0.333,134.155,-96.74,58.288,1
2.944941,-0.592,0.872,0.304,140.014,-98.999,55.786,1
2.953353,-0.594,0.857,0.28,139.892,-100.036,53.71,1
2.959927,-0.654,0.819,0.265,125.793,-100.585,51.757,1
2.96838,-0.646,0.807,0.28,103.637,-99.121,50.476,1
2.976198,-0.594,0.828,0.306,81.604,-98.083,49.621,1
2.983081,-0.55,0.846,0.334,68.847,-96.191,49.255,1
2.991488,-0.59,0.889,0.357,60.241,-95.886,48.339,1
2.997702,-0.594,0.928,0.375,59.875,-94.665,47.363,1
3.005843,-0.571,0.956,0.375,64.636,-94.482,45.959,1
3.01344,-0.571,0.971,0.377,73.059,-94.482,44.433,1
3.020056,-0.578,0.98,0.375,82.214,-95.275,42.785,1
3.027985,-0.556,0.997,0.372,93.261,-95.703,41.259,1
3.03588,-0.549,1.007,0.364,102.355,-96.252,39.978,1
3.042562,-0.56,0.991,0.358,107.727,-95.886,37.963,1
3.05017,-0.553,0.978,0.362,103.088,-94.604,36.804,1
3.058034,-0.57,0.986,0.373,93.383,-92.834,35.705,1
3.06492,-0.579,1.007,0.389,85.815,-91.064,35.034,1
3.072381,-0.587,1.029,0.413,78.674,-89.233,33.996,1
3.079965,-0.607,1.037,0.433,72.387,-87.646,33.02,1
3.088887,-0.607,1.038,0.452,66.589,-85.815,32.226,1
3.095673,-0.643,1.057,0.475,61.767,-84.594,31.799,1
3.102619,-0.676,1.041,0.495,55.664,-83.618,31.311,1
3.110651,-0.636,1.07,0.51,48.278,-80.688,30.517,1
3.117126,-0.671,1.108,0.526,49.804,-80.383,29.663,1
3.1253,-0.652,1.101,0.527,53.71,-78.857,28.564,1
3.131917,-0.675,1.125,0.525,59.936,-78.308,27.404,1
3.140584,-0.67,1.115,0.53,66.101,-76.965,26.245,1
3.147307,-0.664,1.083,0.517,63.537,-74.89,24.414,1
3.154146,-0.706,1.102,0.524,59.753,-72.998,22.766,1
3.162229,-0.666,1.084,0.523,53.161,-70.068,20.935,1
3.170595,-0.694,1.113,0.521,47.851,-67.749,19.653,1
3.17759,-0.615,1.075,0.517,48.156,-64.88,17.639,1
3.18447,-0.662,1.101,0.52,52.551,-63.72,15.93,1
3.193912,-0.712,1.087,0.499,56.884,-62.683,14.526,1
3.200222,-0.703,1.083,0.51,63.171,-60.852,12.817,1
3.208336,-0.724,1.08,0.495,65.856,-60.791,11.23,1
3.214954,-0.722,1.048,0.491,68.603,-59.448,9.765,1
3.223354,-0.7,1.011,0.476,64.086,-58.41,7.69,1
3.231899,-0.692,0.989,0.47,57.373,-56.701,5.798,1
3.238734,-0.676,0.972,0.453,49.682,-54.809,3.723,1
3.245834,-0.664,0.956,0.454,41.809,-53.527,1.77,1
3.253091,-0.669,0.94,0.447,33.569,-51.208,0.244,1
3.26088,-0.654,0.92,0.447,22.155,-48.889,-1.159,1
3.267805,-0.626,0.923,0.466,15.014,-46.813,-1.953,1
3.27476,-0.582,0.912,0.491,7.751,-43.701,-3.417,1
3.283067,-0.605,0.94,0.471,-6.835,-39.978,-3.479,1
3.290202,-0.615,0.963,0.523,-1.159,-37.048,-4.211,1
3.298148,-0.583,0.977,0.503,17.883,-36.743,-4.76,1
3.306483,-0.672,0.985,0.52,36.865,-35.949,-5.065,1
3.313739,-0.699,0.972,0.505,46.813,-35.4,-5.31,1
3.320683,-0.725,0.976,0.516,53.833,-34.484,-5.554,1
3.327618,-0.715,0.973,0.524,54.077,-31.311,-5.493,1
3.335831,-0.706,0.988,0.52,48.767,-28.564,-5.798,1
3.343755,-0.682,1.009,0.528,41.992,-24.597,-6.042,1
3.350857,-0.617,1.039,0.52,36.254,-20.324,-6.347,1
3.359455,-0.596,1.071,0.505,32.592,-16.235,-6.53,1
3.366171,-0.6,1.114,0.486,31.372,-12.39,-7.202,1
3.374663,-0.554,1.145,0.458,31.799,-9.094,-8.361,1
3.381369,-0.529,1.161,0.442,33.081,-5.615,-9.643,1
3.38799,-0.554,1.192,0.4,34.79,-2.563,-11.23,1
3.396422,-0.554,1.217,0.368,34.301,0.061,-13.122,1
3.404178,-0.589,1.256,0.336,33.081,2.319,-15.563,1
3.41059,-0.611,1.281,0.306,30.944,3.845,-18.737,1
3.418721,-0.628,1.292,0.277,22.949,5.676,-21.911,1
3.425183,-0.644,1.309,0.257,10.192,7.69,-25.512,1
3.433302,-0.65,1.326,0.241,-2.38,9.277,-28.686,1
3.441064,-0.621,1.347,0.232,-17.028,10.986,-32.47,1
3.447813,-0.617,1.37,0.214,-29.296,12.573,-36.499,1
3.455088,-0.622,1.406,0.208,-35.644,13.183,-40.283,1
3.463104,-0.618,1.434,0.187,-35.949,12.878,-44.25,1
3.471555,-0.631,1.446,0.173,-33.752,12.084,-48.339,1
3.478282,-0.648,1.443,0.16,-33.386,11.596,-52.062,1
3.48626,-0.676,1.448,0.145,-36.376,11.169,-55.786,1
3.493951,-0.709,1.472,0.14,-41.015,10.498,-59.57,1
3.502022,-0.738,1.498,0.144,-44.677,9.948,-63.354,1
3.509944,-0.75,1.53,0.156,-48.278,9.46,-66.833,1
3.517751,-0.769,1.566,0.161,-54.809,9.277,-70.8,1
3.524998,-0.778,1.592,0.174,-65.551,9.521,-74.707,1
3.531415,-0.758,1.612,0.178,-79.162,10.437,-78.552,1
3.539794,-0.754,1.626,0.176,-91.857,11.291,-81.848,1
3.547699,-0.763,1.669,0.174,-96.191,11.596,-85.205,1
3.554413,-0.763,1.687,0.161,-92.712,11.108,-88.623,1
3.562557,-0.763,1.696,0.145,-86.059,10.07,-91.308,1
3.569716,-0.793,1.71,0.118,-82.702,8.972,-93.994,1
3.577872,-0.82,1.73,0.096,-83.923,7.873,-97.412,1
3.585077,-0.827,1.755,0.084,-89.355,7.263,-100.463,1
3.592703,-0.843,1.783,0.075,-103.088,7.69,-103.82,1
3.600743,-0.848,1.815,0.05,-123.962,8.3,-107.177,1
3.607665,-0.843,1.87,0.029,-147.033,8.911,-111.511,1
3.615863,-0.841,1.937,0.0,-161.987,8.728,-115.478,1
3.623723,-0.852,1.981,-0.029,-176.147,7.812,-120.361,1
3.630358,-0.846,2.037,-0.081,-188.537,6.835,-125.61,1
3.638249,-0.815,2.064,-0.11,-195.251,4.333,-130.493,1
3.645876,-0.845,2.092,-0.145,-200.134,1.708,-135.986,1
3.652584,-0.878,2.106,-0.193,-209.411,-0.244,-141.906,1
3.659595,-0.926,2.103,-0.22,-233.764,-2.685,-147.766,1
3.667933,-0.954,2.102,-0.254,-269.409,-3.723,-153.076,1
3.675076,-0.944,2.107,-0.286,-315.551,-5.92,-157.836,1
3.683103,-1.041,2.218,-0.3,-351.257,-8.666,-162.78,1
3.691881,-1.059,2.307,-0.335,-365.539,-15.808,-168.029,1
3.698796,-1.095,2.407,-0.341,-355.773,-24.047,-173.645,1
3.705992,-1.116,2.435,-0.362,-326.11,-35.949,-179.626,1
3.714005,-1.088,2.414,-0.326,-289.062,-46.264,-185.668,1
3.72215,-1.084,2.365,-0.325,-258.056,-55.297,-192.443,1
3.728842,-1.117,2.282,-0.294,-241.271,-63.171,-199.707,1
3.737238,-1.174,2.18,-0.258,-237.487,-69.213,-206.542,1
3.744112,-1.211,2.063,-0.218,-242.126,-74.768,-213.134,1
3.75265,-1.277,1.957,-0.207,-249.145,-79.895,-218.627,1
3.759288,-1.347,1.85,-0.208,-252.319,-86.608,-223.999,1
3.767338,-1.332,1.732,-0.204,-247.253,-93.444,-227.172,1
3.775409,-1.368,1.6,-0.212,-239.807,-99.182,-229.553,1
3.782198,-1.371,1.475,-0.194,-225.83,-105.957,-230.895,1
3.790231,-1.354,1.331,-0.172,-205.505,-111.755,-230.651,1
3.796801,-1.325,1.218,-0.156,-182.189,-116.149,-229.431,1
3.8056,-1.266,1.069,-0.17,-161.621,-118.53,-227.539,1
3.811914,-1.205,0.934,-0.192,-144.714,-120.483,-224.853,1
3.820018,-1.125,0.797,-0.224,-128.601,-121.032,-221.557,1
3.827561,-1.0,0.638,-0.293,-116.577,-121.276,-217.407,1
3.834579,-0.961,0.492,-0.361,-117.492,-121.704,-211.669,1
3.84262,-0.87,0.367,-0.436,-131.958,-119.384,-204.284,1
3.849821,-0.801,0.281,-0.566,-155.761,-119.628,-196.594,1
3.857878,-0.778,0.228,-0.669,-176.574,-120.117,-188.842,1
3.864536,-0.686,0.172,-0.796,-191.833,-123.84,-180.175,1
3.873326,-0.605,0.148,-0.898,-205.322,-126.525,-170.898,1
3.881135,-0.479,0.178,-1.043,-215.087,-131.958,-161.376,1
3.888067,-0.388,0.256,-1.145,-209.289,-140.441,-152.648,1
3.89572,-0.333,0.326,-1.232,-190.063,-151.123,-144.958,1
3.904109,-0.316,0.39,-1.287,-169.982,-160.766,-138.427,1
3.91028,-0.336,0.463,-1.353,-155.822,-170.654,-133.361,1
3.918382,-0.358,0.525,-1.386,-150.268,-180.541,-129.15,1
3.92658,-0.405,0.591,-1.395,-149.597,-189.941,-125.732,1
3.933492,-0.434,0.639,-1.372,-150.268,-201.049,-122.863,1
3.941416,-0.514,0.664,-1.299,-144.775,-211.303,-119.812,1
3.949605,-0.594,0.68,-1.228,-139.648,-221.069,-116.088,1
3.957838,-0.672,0.699,-1.178,-143.005,-229.919,-112.915,1
3.965007,-0.779,0.733,-1.079,-146.057,-239.562,-110.473,1
3.971862,-0.918,0.734,-0.956,-143.676,-247.375,-107.788,1
3.979999,-0.999,0.726,-0.858,-138.854,-257.385,-104.614,1
3.988758,-1.083,0.719,-0.74,-130.065,-264.099,-102.294,1
3.995425,-1.177,0.707,-0.644,-122.375,-269.47,-100.341,1
4.003509,-1.287,0.69,-0.556,-118.957,-274.292,-98.754,1
4.01215,-1.369,0.684,-0.468,-116.516,-279.235,-98.083,1
4.020203,-1.466,0.668,-0.382,-114.501,-283.203,-97.595,1
4.026997,-1.597,0.62,-0.292,-111.755,-285.4,-97.106,1
4.035321,-1.755,0.572,-0.24,-108.825,-287.536,-97.29,1
4.043709,-1.807,0.485,-0.154,-107.36,-292.419,-96.862,1
4.050843,-1.938,0.426,-0.079,-101.867,-293.884,-96.74,1
4.059852,-2.066,0.325,0.014,-96.618,-298.339,-96.862,1
4.067901,-2.107,0.21,0.155,-88.378,-297.973,-95.825,1
4.074767,-2.047,0.02,0.298,-84.655,-299.316,-94.421,1
4.082798,-2.119,-0.181,0.46,-88.256,-297.424,-92.102,1
4.091273,-2.246,-0.378,0.599,-101.562,-294.189,-86.608,1
4.098391,-2.003,-0.636,0.752,-115.112,-292.724,-81.481,1
4.10729,-1.968,-0.821,0.982,-135.437,-288.818,-71.289,1
4.11403,-2.012,-0.994,1.14,-146.362,-282.897,-60.668,1
4.122823,-2.172,-1.097,1.309,-136.962,-280.517,-49.316,1
4.129563,-2.229,-1.281,1.46,-115.539,-275.695,-37.902,1
4.137947,-2.169,-1.561,1.497,-110.473,-266.723,-25.695,1
4.146139,-2.118,-1.839,1.487,-135.131,-255.615,-8.728,1
4.154399,-2.145,-1.971,1.51,-146.667,-247.131,7.446,1
4.16267,-2.102,-2.219,1.555,-145.141,-240.844,29.235,1
4.169247,-2.046,-2.399,1.641,-129.211,-233.093,50.842,1
4.17788,-2.037,-2.61,1.664,-124.877,-226.013,74.218,1
4.184516,-2.025,-2.755,1.668,-129.638,-216.186,100.341,1
4.192794,-2.031,-2.856,1.665,-125.61,-208.801,128.784,1
4.200839,-2.096,-2.967,1.705,-104.064,-204.833,158.569,1
4.208855,-2.184,-3.088,1.759,-73.73,-201.049,190.368,1
4.215965,-2.398,-3.228,1.751,-51.452,-195.8,223.51,1
4.224073,-2.751,-3.268,1.72,-64.514,-189.636,257.873,1
4.232025,-3.148,-3.209,1.679,-90.942,-182.128,293.457,1
4.23994,-3.738,-3.127,1.634,-119.812,-171.081,336.73,1
4.246526,-4.441,-3.0,1.611,-150.573,-161.56,373.962,1
4.254582,-5.095,-2.8,1.722,-158.752,-148.498,411.315,1
4.262593,-5.858,-2.695,1.762,-153.015,-134.399,448.791,1
4.269611,-6.464,-2.615,1.886,-143.432,-119.995,486.267,1
4.27896,-7.102,-2.548,2.079,-129.455,-103.515,523.376,1
4.285705,-7.851,-2.471,2.274,-115.844,-83.19,561.401,1
4.292583,-8.84,-2.354,2.43,-124.206,-57.067,599.731,1
4.30056,-9.729,-2.249,2.597,-159.912,-24.291,639.221,1
4.309875,-10.605,-2.141,2.751,-231.14,28.93,686.584,1
4.3166,-11.538,-1.976,2.891,-308.105,87.89,727.905,1
4.323354,-12.498,-1.708,3.026,-372.619,158.996,767.761,1
4.331161,-13.505,-1.4,3.052,-419.128,239.685,804.077,1
4.33839,-14.525,-1.038,3.017,-452.026,326.11,833.557,1
4.346696,-15.847,-0.607,2.822,-479.064,422.058,855.895,1
4.353303,-15.995,-0.066,2.38,-495.056,501.586,866.577,1
4.361857,-15.999,0.574,1.906,-505.554,591.308,868.041,1
4.368049,-15.999,1.074,1.507,-499.023,678.161,856.994,1
4.376366,-15.999,1.587,0.963,-505.126,757.324,832.702,1
4.383123,-15.999,2.231,0.408,-520.019,846.557,794.006,1
4.391029,-15.999,2.629,0.065,-535.278,915.771,758.239,1
4.399368,-15.999,2.926,-0.368,-473.083,971.801,708.618,1
4.405929,-15.999,2.951,-0.701,-441.833,1021.545,663.024,1
4.412966,-15.999,3.042,-1.232,-446.044,1067.627,615.783,1
4.420804,-15.999,3.392,-1.295,-450.134,1103.027,558.288,1
4.428933,-15.999,3.503,-1.721,-430.236,1133.972,507.141,1
4.435756,-15.999,3.52,-2.482,-451.354,1149.841,442.993,1
4.443183,-15.999,3.617,-3.211,-474.975,1162.841,372.802,1
4.450801,-15.999,3.654,-4.34,-514.221,1146.972,296.386,1
4.458232,-15.999,3.304,-5.341,-677.673,1125.183,204.284,1
4.466514,-15.999,3.094,-6.05,-911.743,1105.285,84.594,1
4.474326,-15.999,2.606,-6.213,-1062.988,1054.504,-55.48,1
4.481931,-15.999,2.042,-5.289,-1079.956,984.619,-193.42,1
4.488594,-15.999,1.436,-4.513,-913.085,907.226,-316.772,1
4.49695,-15.764,0.969,-4.267,-730.957,832.092,-377.258,1
4.505538,-14.3,0.396,-4.254,-453.735,731.079,-425.781,1
4.512358,-12.89,-0.282,-4.351,-324.645,659.606,-440.978,1
4.520481,-11.724,-0.686,-4.238,-295.104,599.548,-445.8,1
4.528744,-10.313,-0.898,-3.89,-280.273,538.269,-448.486,1
4.535551,-9.33,-1.003,-3.579,-268.31,487.06,-446.411,1
4.543284,-8.416,-0.991,-3.159,-254.76,441.711,-442.138,1
4.551351,-7.651,-0.961,-2.81,-231.628,400.207,-436.706,1
4.55896,-6.999,-0.993,-2.56,-212.646,362.792,-429.809,1
4.565917,-6.433,-0.972,-2.361,-210.998,333.984,-422.363,1
4.574525,-5.946,-0.845,-2.16,-203.674,299.072,-413.635,1
4.580963,-5.674,-0.704,-2.019,-171.142,265.991,-404.907,1
4.588715,-5.377,-0.655,-1.978,-112.548,225.83,-395.019,1
4.596534,-5.053,-0.681,-1.876,-65.795,195.739,-385.498,1
4.604236,-4.675,-0.72,-1.749,-34.545,171.508,-375.488,1
4.612817,-4.364,-0.775,-1.598,-20.935,152.832,-365.173,1
4.619587,-4.041,-0.842,-1.516,-27.099,138.671,-353.942,1
4.627491,-3.71,-0.851,-1.382,-46.63,124.999,-342.834,1
4.635729,-3.425,-0.852,-1.219,-65.368,114.379,-331.603,1
4.644055,-3.09,-0.853,-1.137,-79.65,103.942,-320.556,1
4.650772,-2.847,-0.833,-1.078,-82.214,92.285,-309.143,1
4.659276,-2.607,-0.819,-1.048,-72.937,79.223,-297.79,1
4.667824,-2.377,-0.811,-1.005,-47.607,65.185,-283.63,1
4.673948,-2.121,-0.806,-0.997,-14.038,53.039,-270.019,1
4.682342,-1.823,-0.779,-0.963,28.503,41.931,-256.835,1
4.689429,-1.666,-0.78,-0.961,61.218,34.301,-244.75,1
4.697643,-1.561,-0.796,-0.969,70.8,28.686,-233.154,1
4.704544,-1.437,-0.806,-0.972,53.955,26.123,-222.412,1
4.712261,-1.335,-0.792,-0.956,21.667,24.719,-212.036,1
4.719438,-1.164,-0.752,-0.916,-5.371,22.705,-203.002,1
4.727149,-0.974,-0.754,-0.89,-22.338,19.775,-194.335,1
4.736181,-0.82,-0.754,-0.863,-34.484,15.502,-185.546,1
4.744083,-0.626,-0.773,-0.821,-42.48,11.901,-176.94,1
4.75143,-0.423,-0.792,-0.79,-45.715,8.728,-167.663,1
4.759104,-0.272,-0.787,-0.771,-41.076,3.601,-156.677,1
4.767813,-0.131,-0.793,-0.736,-35.034,-0.244,-147.583,1
4.775676,-0.062,-0.8,-0.716,-36.621,-3.417,-137.939,1
4.782494,0.01,-0.766,-0.686,-45.532,-6.408,-127.685,1
4.790439,0.064,-0.708,-0.65,-52.368,-8.605,-118.957,1
4.79881,0.076,-0.631,-0.625,-56.396,-10.742,-110.656,1
4.80593,0.095,-0.567,-0.594,-60.791,-12.145,-103.332,1
4.814438,0.122,-0.503,-0.57,-66.833,-12.939,-96.374,1
4.821507,0.194,-0.44,-0.558,-67.993,-13.854,-90.026,1
4.830424,0.242,-0.39,-0.56,-57.678,-15.869,-83.007,1
4.837314,0.271,-0.361,-0.559,-42.297,-18.737,-78.43,1
4.845715,0.298,-0.365,-0.557,-28.198,-20.568,-74.157,1
4.853871,0.3,-0.432,-0.582,-22.644,-22.216,-69.03,1
4.862322,0.441,-0.479,-0.559,-26.855,-23.376,-63.659,1
4.870471,0.564,-0.48,-0.526,-30.334,-22.705,-57.678,1
4.87742,0.624,-0.473,-0.506,-36.254,-23.559,-50.964,1
4.885487,0.643,-0.455,-0.479,-43.457,-22.521,-44.738,1
4.893801,0.673,-0.43,-0.467,-55.969,-21.667,-39.184,1
4.901753,0.699,-0.382,-0.435,-72.326,-19.47,-33.813,1
4.909437,0.706,-0.335,-0.434,-94.421,-15.869,-28.32,1
4.917843,0.704,-0.275,-0.424,-112.182,-13.671,-24.658,1
4.92456,0.72,-0.229,-0.421,-121.948,-12.145,-21.423,1
4.932647,0.73,-0.194,-0.429,-119.445,-12.207,-18.615,1
4.941662,0.763,-0.189,-0.423,-98.999,-14.709,-15.686,1
4.949648,0.806,-0.211,-0.414,-76.416,-17.028,-13.061,1
4.956703,0.804,-0.236,-0.404,-60.058,-19.104,-10.864,1
4.964033,0.807,-0.262,-0.374,-50.72,-19.775,-8.178,1
4.972275,0.856,-0.31,-0.376,-48.645,-20.385,-5.859,1
4.980254,0.895,-0.332,-0.342,-53.649,-20.385,-1.953,1
4.988418,0.947,-0.341,-0.321,-58.776,-19.409,1.892,1
4.996326,1.001,-0.335,-0.292,-63.72,-18.554,5.859,1
5.004018,1.027,-0.322,-0.274,-69.335,-16.784,10.192,1
5.0119,1.011,-0.302,-0.274,-77.758,-15.38,14.099,1
5.020106,0.987,-0.284,-0.268,-86.669,-13.732,17.7,1
5.026782,0.968,-0.265,-0.271,-94.787,-12.207,21.118,1
5.033587,0.956,-0.254,-0.264,-99.487,-10.742,25.024,1
5.042148,0.93,-0.236,-0.27,-99.243,-9.948,28.015,1
5.050552,0.906,-0.221,-0.272,-95.764,-9.582,31.127,1
5.056857,0.888,-0.214,-0.276,-91.125,-8.972,34.118,1
5.06612,0.876,-0.199,-0.277,-86.425,-9.094,37.048,1
5.073007,0.851,-0.178,-0.263,-81.298,-8.911,39.855,1
5.08135,0.841,-0.168,-0.254,-76.721,-8.239,43.212,1
5.088324,0.836,-0.161,-0.238,-75.622,-7.019,45.959,1
5.097092,0.837,-0.148,-0.229,-78.308,-4.76,49.194,1
5.103826,0.829,-0.13,-0.229,-85.449,-2.685,51.696,1
5.112155,0.798,-0.109,-0.225,-95.397,-0.183,54.321,1
5.120572,0.771,-0.08,-0.216,-104.614,2.441,57.006,1
5.128601,0.737,-0.058,-0.226,-110.412,4.699,59.997,1
5.135218,0.742,-0.045,-0.231,-112.792,5.737,62.561,1
5.143191,0.719,-0.03,-0.242,-110.229,6.713,65.185,1
5.151158,0.711,-0.009,-0.238,-99.975,5.92,67.626,1
5.15879,0.713,0.015,-0.241,-83.19,5.493,69.824,1
5.165576,0.722,0.021,-0.245,-62.133,3.479,71.411,1
5.172936,0.734,0.014,-0.235,-40.771,3.479,73.608,1
5.18094,0.67,0.029,-0.228,-21.301,0.244,75.866,1
5.187531,0.643,0.029,-0.241,-8.728,1.892,78.125,1
5.195656,0.522,0.015,-0.28,-5.981,0.854,79.589,1
5.202621,0.565,-0.001,-0.24,-19.165,2.075,82.885,1
5.210465,0.565,0.02,-0.29,-44.189,5.432,84.167,1
5.21728,0.497,0.036,-0.306,-73.425,7.141,85.754,1
5.225494,0.479,0.082,-0.303,-93.688,10.498,87.524,1
5.232373,0.52,0.141,-0.326,-97.29,10.07,88.562,1
5.239131,0.527,0.174,-0.312,-83.557,8.483,89.416,1
5.246982,0.534,0.195,-0.306,-53.466,6.835,90.82,1
5.253478,0.562,0.192,-0.315,-21.24,3.54,92.224,1
5.261044,0.575,0.167,-0.319,-2.868,2.38,93.566,1
5.268831,0.589,0.127,-0.359,-0.854,2.38,95.214,1
5.275014,0.585,0.094,-0.388,-19.592,3.112,96.74,1
5.283002,0.577,0.09,-0.39,-41.992,5.859,98.327,1
5.289355,0.592,0.094,-0.4,-66.772,8.3,100.219,1
5.297139,0.605,0.117,-0.405,-83.679,10.681,101.623,1
5.304022,0.607,0.137,-0.415,-91.003,12.39,103.271,1
5.312138,0.598,0.157,-0.42,-90.026,13.122,104.614,1
5.319061,0.621,0.165,-0.425,-82.946,13.305,106.323,1
5.326322,0.626,0.169,-0.442,-72.082,13.427,107.91,1
5.334667,0.631,0.189,-0.463,-60.913,12.573,109.741,1
5.341313,0.663,0.227,-0.49,-47.302,13.0,112.121,1
5.348133,0.751,0.339,-0.607,-36.56,13.977,114.379,1
5.356506,0.793,0.351,-0.701,-29.968,9.338,114.562,1
5.363075,0.641,0.379,-0.662,-31.127,9.582,115.417,1
5.37013,0.556,0.451,-0.711,-35.278,9.582,116.271,1
5.37782,0.488,0.534,-0.697,-39.672,6.896,116.088,1
5.384446,0.431,0.597,-0.674,-40.1,7.263,116.76,1
5.39209,0.388,0.666,-0.71,-38.574,4.516,116.088,1
5.399076,0.341,0.729,-0.695,-33.386,2.014,116.027,1
5.407102,0.346,0.791,-0.685,-28.991,-0.976,115.783,1
5.413687,0.386,0.829,-0.738,-23.803,-3.479,115.966,1
5.421635,0.433,0.807,-0.781,-23.559,-7.69,114.685,1
5.42971,0.479,0.778,-0.833,-29.357,-9.399,113.403,1
5.436235,0.5,0.743,-0.872,-44.189,-12.695,112.67,1
5.444914,0.495,0.754,-0.89,-51.208,-14.526,111.328,1
5.451765,0.432,0.776,-0.844,-51.33,-18.005,111.083,1
5.45868,0.404,0.781,-0.799,-39.001,-21.972,110.229,1
5.467431,0.394,0.74,-0.751,-20.874,-26.794,110.107,1
5.475473,0.416,0.712,-0.733,-3.051,-29.907,109.619,1
5.48198,0.417,0.641,-0.715,3.54,-33.447,110.168,1
5.489873,0.437,0.632,-0.686,4.333,-34.667,110.534,1
5.49655,0.436,0.63,-0.671,3.479,-36.804,111.022,1
5.504637,0.44,0.646,-0.656,2.258,-37.475,112.06,1
5.511019,0.435,0.655,-0.665,-2.624,-38.574,113.22,1
5.519548,0.431,0.7,-0.664,-13.732,-39.245,114.257,1
5.526635,0.414,0.725,-0.666,-23.132,-40.527,114.135,1
5.533402,0.355,0.736,-0.635,-30.456,-41.564,114.685,1
5.541133,0.307,0.699,-0.608,-38.696,-42.419,115.722,1
5.54905,0.288,0.724,-0.558,-41.748,-43.212,115.966,1
5.555986,0.244,0.714,-0.496,-37.902,-45.166,116.76,1
5.563016,0.195,0.698,-0.452,-31.005,-45.776,117.614,1
5.570639,0.157,0.68,-0.438,-28.381,-46.691,118.347,1
5.577697,0.139,0.682,-0.432,-28.32,-47.18,119.201,1
5.585035,0.121,0.703,-0.433,-29.479,-47.241,119.628,1
5.592719,0.109,0.746,-0.42,-33.325,-47.058,120.239,1
5.600776,0.11,0.729,-0.437,-35.644,-47.729,120.239,1
5.607082,0.08,0.775,-0.4,-36.437,-47.485,119.689,1
5.615106,0.05,0.774,-0.398,-37.841,-47.729,119.873,1
5.622165,0.023,0.764,-0.376,-39.794,-47.119,119.689,1
5.629453,-0.01,0.803,-0.363,-38.513,-46.081,119.567,1
5.637954,-0.034,0.812,-0.379,-36.071,-46.203,119.628,1
5.645012,-0.055,0.834,-0.368,-32.47,-46.142,120.117,1
5.652426,-0.059,0.826,-0.395,-35.583,-45.166,120.849,1
5.66086,-0.076,0.899,-0.401,-38.818,-44.433,121.154,1
5.669194,-0.104,0.919,-0.412,-41.687,-44.982,121.276,1
5.675842,-0.165,0.906,-0.407,-48.583,-43.518,121.52,1
5.682824,-0.214,0.838,-0.407,-64.941,-42.724,123.352,1
5.690915,-0.213,0.914,-0.411,-68.664,-39.733,123.046,1
5.697951,-0.287,0.902,-0.388,-66.955,-40.832,123.291,1
5.706176,-0.295,0.842,-0.378,-67.321,-38.94,125.244,1
5.71333,-0.282,0.82,-0.388,-67.443,-39.123,127.38,1
5.721369,-0.273,0.822,-0.386,-62.316,-37.78,130.249,1
5.728559,-0.266,0.865,-0.439,-57.983,-37.231,132.08,1
5.736719,-0.257,0.931,-0.472,-53.771,-37.719,133.178,1
5.744399,-0.268,0.986,-0.484,-49.011,-37.658,134.216,1
5.751436,-0.284,1.008,-0.499,-45.104,-38.818,134.338,1
5.758522,-0.298,1.067,-0.48,-38.33,-39.062,133.911,1
5.766535,-0.302,1.103,-0.44,-29.357,-39.794,132.446,1
5.773375,-0.298,1.132,-0.414,-16.235,-40.893,130.615,1
5.781367,-0.296,1.152,-0.363,-2.014,-41.992,128.54,1
5.788415,-0.288,1.174,-0.331,6.286,-41.809,126.22,1
5.796861,-0.307,1.091,-0.366,-3.845,-41.32,124.023,1
5.803715,-0.242,1.294,-0.256,-22.216,-35.339,120.544,1
5.81079,-0.157,1.321,-0.31,-27.465,-39.367,117.37,1
5.819197,-0.219,1.307,-0.204,-19.409,-37.231,112.426,1
5.826232,-0.12,1.26,-0.202,-21.606,-34.301,108.398,1
5.834229,-0.031,1.258,-0.172,-22.277,-33.264,104.614,1
5.841868,0.02,1.216,-0.126,-20.08,-30.029,101.562,1
5.848531,0.088,1.21,-0.113,-19.897,-27.465,100.219,1
5.857166,0.157,1.227,-0.104,-16.54,-24.658,98.815,1
5.864356,0.233,1.243,-0.112,-16.723,-21.484,97.29,1
5.871065,0.264,1.261,-0.131,-22.033,-18.31,96.374,1
5.879519,0.294,1.292,-0.162,-29.296,-15.441,95.886,1
5.886161,0.312,1.298,-0.179,-35.339,-12.756,95.397,1
5.893055,0.353,1.297,-0.203,-39.489,-10.07,96.069,1
5.901135,0.411,1.316,-0.226,-42.968,-7.934,96.801,1
5.908257,0.445,1.384,-0.248,-45.776,-5.92,97.839,1
5.915433,0.478,1.473,-0.279,-39.611,-4.272,98.571,1
5.923531,0.5,1.499,-0.309,-28.625,-4.089,98.937,1
5.930264,0.508,1.597,-0.341,-14.526,-3.54,98.937,1
5.93829,0.5,1.633,-0.375,-1.403,-5.004,98.754,1
5.945094,0.457,1.587,-0.384,10.925,-7.202,98.205,1
5.95332,0.55,1.754,-0.401,24.23,-6.408,95.886,1
5.962157,0.519,1.754,-0.395,44.372,-12.207,93.688,1
5.966958,0.474,1.716,-0.332,62.805,-12.817,91.369,1
5.974527,0.514,1.689,-0.366,62.011,-14.16,88.5,1
5.982765,0.513,1.627,-0.383,37.841,-14.16,84.899,1
5.989061,0.546,1.684,-0.353,7.202,-10.864,82.885,1
5.997091,0.591,1.729,-0.383,-14.282,-10.314,78.491,1
6.003874,0.535,1.713,-0.362,-21.118,-10.925,74.157,1
6.0121,0.553,1.71,-0.371,-22.399,-10.07,70.617,1
6.018684,0.589,1.693,-0.392,-17.883,-12.329,67.687,1
6.026134,0.556,1.648,-0.368,-4.028,-13.549,64.697,1
6.033816,0.559,1.576,-0.365,9.704,-14.648,62.866,1
6.04166,0.564,1.589,-0.373,26.184,-16.235,60.485,1
6.048262,0.56,1.583,-0.38,32.897,-17.211,58.959,1
6.055382,0.539,1.572,-0.408,31.86,-17.395,56.762,1
6.062644,0.531,1.595,-0.412,25.39,-18.31,54.748,1
6.071095,0.499,1.576,-0.426,16.967,-17.822,51.94,1
6.077858,0.468,1.613,-0.427,4.333,-17.395,48.645,1
6.086926,0.43,1.688,-0.418,-1.77,-17.395,46.02,1
6.095287,0.403,1.675,-0.437,-20.019,-17.089,41.442,1
6.102877,0.423,1.694,-0.416,-21.606,-17.7,37.902,1
6.110686,0.388,1.733,-0.406,-13.061,-20.568,33.569,1
6.117898,0.337,1.56,-0.382,-13.488,-23.437,33.203,1
6.125144,0.399,1.696,-0.413,7.263,-23.559,27.343,1
6.133437,0.338,1.727,-0.363,34.79,-30.822,21.728,1
6.139992,0.296,1.645,-0.348,46.325,-30.212,17.15,1
6.148076,0.31,1.599,-0.37,40.954,-33.142,12.268,1
6.155069,0.289,1.532,-0.315,28.747,-32.104,7.69,1
6.163972,0.278,1.496,-0.304,7.263,-30.029,3.601,1
6.17069,0.177,1.237,-0.317,-33.63,-28.747,2.685,1
6.178888,0.257,1.364,-0.312,-70.556,-19.775,-1.831,1
6.186955,0.255,1.381,-0.298,-78.552,-24.78,-5.554,1
6.195124,0.157,1.311,-0.258,-63.171,-21.789,-9.155,1
6.202752,0.14,1.313,-0.325,-49.926,-23.437,-12.634,1
6.2096,0.12,1.252,-0.339,-35.583,-26.123,-16.662,1
6.216827,0.099,1.178,-0.356,-26.489,-25.939,-20.446,1
6.224793,0.106,1.138,-0.392,-21.057,-27.465,-24.353,1
6.232096,0.044,1.088,-0.398,-14.709,-28.869,-26.855,1
6.239978,-0.01,1.019,-0.425,-8.3,-29.663,-30.151,1
6.248574,-0.034,0.96,-0.434,-3.356,-31.616,-33.081,1
6.255078,-0.025,0.891,-0.429,3.051,-33.447,-35.949,1
6.263339,-0.027,0.808,-0.422,6.347,-34.729,-37.475,1
6.272268,0.006,0.75,-0.395,11.535,-35.522,-38.208,1
6.278786,-0.02,0.643,-0.371,11.23,-34.423,-37.963,1
6.285964,-0.017,0.612,-0.337,10.742,-34.606,-36.132,1
6.294182,-0.066,0.562,-0.291,19.409,-33.569,-34.057,1
6.300714,-0.205,0.515,-0.285,38.33,-33.874,-30.883,1
6.309502,-0.223,0.4,-0.301,53.161,-34.606,-26.489,1
6.316127,-0.059,0.305,-0.281,48.828,-31.921,-22.216,1
6.323667,-0.042,0.222,-0.29,26.123,-27.954,-16.662,1
6.332052,-0.122,0.178,-0.323,-11.779,-25.695,-10.253,1
6.340368,-0.425,0.19,-0.288,-46.386,-20.507,-3.417,1
6.346772,-0.343,0.215,-0.317,-73.669,-17.761,1.892,1
6.35488,-0.238,0.279,-0.243,-81.909,-14.16,7.507,1
6.362608,-0.14,0.295,-0.293,-79.589,-14.038,12.512,1
6.371038,-0.134,0.321,-0.232,-62.499,-14.282,18.005,1
6.37789,0.068,0.289,-0.297,-42.968,-17.456,22.949,1
6.385941,0.342,0.254,-0.32,-19.042,-23.803,27.465,1
6.393083,0.543,0.223,-0.317,12.512,-27.893,31.249,1
6.4011,0.734,0.115,-0.325,42.724,-33.081,37.841,1
6.408005,0.89,0.043,-0.271,62.988,-32.714,45.227,1
6.415913,0.9,0.079,-0.333,66.101,-33.142,48.461,1
6.424083,0.625,0.154,-0.252,63.049,-34.729,51.696,1
6.430977,0.184,0.209,-0.185,59.997,-29.052,58.105,1
6.439441,-0.058,0.303,-0.35,54.016,-27.587,63.171,1
6.446044,-0.293,0.411,-0.391,43.884,-33.264,64.697,1
6.454616,-0.443,0.512,-0.428,38.452,-31.921,67.199,1
6.462551,-0.523,0.591,-0.457,28.381,-37.353,68.115,1
6.469818,-0.471,0.648,-0.426,19.897,-36.132,69.763,1
6.479393,-0.353,0.735,-0.396,13.61,-40.344,70.19,1
6.485695,-0.223,0.796,-0.327,24.475,-41.381,70.739,1
6.492657,-0.148,0.866,-0.297,40.588,-44.311,70.739,1
6.500978,-0.152,0.908,-0.267,56.823,-46.447,70.007,1
6.509295,-0.164,0.937,-0.259,63.964,-48.278,68.969,1
6.516386,-0.176,0.971,-0.233,59.692,-48.278,67.81,1
6.523729,-0.169,1.013,-0.218,47.485,-46.936,66.345,1
6.532212,-0.072,1.048,-0.198,30.883,-44.86,64.331,1
6.538494,-0.042,1.01,-0.196,3.967,-40.527,62.194,1
6.547026,0.03,1.046,-0.179,-26.0,-35.705,60.18,1
6.555073,0.072,1.071,-0.146,-48.706,-31.066,57.922,1
6.561832,0.103,1.068,-0.155,-62.133,-26.062,56.213,1
6.570004,0.198,1.125,-0.155,-66.528,-21.728,54.321,1
6.577478,0.104,1.12,-0.179,-49.133,-22.583,53.039,1
6.585376,0.053,1.093,-0.182,-29.052,-20.141,52.734,1
6.594121,0.033,1.091,-0.206,-11.474,-22.277,52.612,1
6.601968,0.057,1.066,-0.184,5.981,-21.362,53.039,1
6.609138,0.02,0.828,-0.211,-7.202,-22.094,57.556,1
6.61742,0.062,0.9,-0.251,-14.343,-18.31,57.25,1
6.624791,-0.021,1.0,-0.185,-5.676,-19.653,57.617,1
6.631518,-0.041,1.052,-0.251,12.023,-18.92,59.02,1
6.6401,-0.079,1.098,-0.245,27.465,-21.545,58.654,1
6.646343,-0.091,1.137,-0.242,47.729,-21.667,59.326,1
6.655002,-0.07,1.18,-0.295,61.584,-24.23,58.715,1
6.661268,-0.085,1.189,-0.302,66.65,-24.658,58.044,1
6.669378,-0.073,1.216,-0.351,58.471,-23.559,57.128,1
6.676136,-0.088,1.279,-0.393,46.386,-23.132,55.419,1
6.684554,-0.089,1.327,-0.426,34.667,-22.094,53.71,1
6.69123,-0.076,1.388,-0.466,28.869,-22.094,51.025,1
6.699609,-0.075,1.429,-0.507,26.367,-21.484,48.645,1
6.707361,-0.104,1.499,-0.598,22.705,-21.423,44.799,1
6.714217,-0.139,1.578,-0.672,19.836,-22.338,40.344,1
6.72278,-0.122,1.658,-0.745,18.066,-23.132,35.339,1
6.729402,-0.11,1.744,-0.815,21.972,-25.878,29.785,1
6.736503,-0.119,1.821,-0.888,29.296,-27.954,24.353,1
6.74409,-0.078,1.871,-0.977,32.775,-31.005,18.92,1
6.752638,-0.061,1.976,-1.069,32.897,-33.935,11.962,1
6.75889,-0.08,2.083,-1.15,32.409,-37.658,4.455,1
6.767566,-0.083,2.147,-1.235,26.123,-40.649,-1.464,1
6.774302,-0.061,2.24,-1.325,14.221,-44.799,-9.216,1
6.782315,-0.08,2.313,-1.413,-2.319,-49.194,-18.798,1
6.79055,-0.066,2.396,-1.448,-16.174,-53.283,-27.404,1
6.797251,-0.027,2.463,-1.485,-13.916,-59.509,-36.254,1
6.805862,-0.12,2.493,-1.531,-14.831,-63.354,-44.555,1
6.812814,-0.087,2.544,-1.598,-18.737,-70.129,-53.222,1
6.821027,-0.122,2.569,-1.595,-22.583,-75.439,-62.133,1
6.828035,-0.139,2.591,-1.638,-32.043,-80.261,-70.495,1
6.836152,-0.18,2.63,-1.648,-40.588,-86.73,-78.857,1
6.843729,-0.24,2.686,-1.655,-47.302,-92.529,-86.425,1
6.850836,-0.284,2.762,-1.658,-51.513,-100.708,-94.482,1
6.858738,-0.332,2.827,-1.631,-49.804,-108.825,-101.928,1
6.866731,-0.393,2.873,-1.616,-48.095,-118.103,-109.68,1
6.874805,-0.45,2.893,-1.565,-47.485,-126.953,-117.492,1
6.882731,-0.497,2.887,-1.537,-47.546,-133.911,-125.366,1
6.889821,-0.586,2.851,-1.511,-50.598,-142.15,-133.667,1
6.897681,-0.679,2.783,-1.463,-54.443,-150.085,-143.188,1
6.904532,-0.742,2.71,-1.405,-52.001,-157.775,-151.367,1
6.912736,-0.783,2.619,-1.302,-43.151,-164.184,-159.423,1
6.921108,-0.809,2.5,-1.194,-36.376,-169.433,-166.381,1
6.928996,-0.872,2.395,-1.08,-34.362,-173.767,-173.278,1
6.935743,-0.906,2.299,-0.939,-32.531,-176.757,-179.382,1
6.944224,-0.952,2.215,-0.815,-29.174,-179.626,-184.997,1
6.950967,-1.001,2.103,-0.689,-27.343,-181.152,-190.429,1
6.958797,-1.034,1.993,-0.598,-32.287,-181.335,-195.129,1
6.966924,-1.12,1.868,-0.502,-52.246,-180.969,-200.5,1
6.975214,-1.163,1.767,-0.404,-78.247,-178.833,-204.284,1
6.98348,-1.188,1.687,-0.3,-104.675,-176.513,-207.153,1
6.990078,-1.149,1.63,-0.195,-124.999,-175.048,-208.557,1
6.997189,-1.147,1.592,-0.077,-133.789,-174.377,-209.594,1
7.005513,-1.133,1.558,0.036,-131.53,-173.522,-210.144,1
7.012658,-1.093,1.5,0.098,-126.159,-172.485,-210.815,1
7.019733,-1.075,1.444,0.166,-123.413,-171.386,-211.181,1
7.0277,-1.054,1.375,0.235,-125.61,-169.189,-211.669,1
7.034878,-1.037,1.311,0.308,-133.422,-166.259,-211.486,1
7.043092,-1.02,1.247,0.365,-145.935,-163.208,-210.632,1
7.049765,-0.943,1.18,0.442,-158.142,-160.705,-209.167,1
7.057639,-0.874,1.129,0.502,-164.978,-158.447,-206.787,1
7.066171,-0.798,1.091,0.561,-168.334,-155.456,-203.369,1
7.073961,-0.669,1.045,0.625,-165.466,-153.869,-200.622,1
7.081144,-0.55,0.989,0.689,-157.531,-151.672,-198.059,1
7.089569,-0.437,0.926,0.756,-147.094,-147.521,-195.129,1
7.097549,-0.308,0.856,0.803,-142.639,-143.737,-192.626,1
7.104901,-0.201,0.819,0.863,-142.395,-137.207,-189.453,1
7.113322,-0.057,0.794,0.929,-133.605,-133.422,-187.316,1
7.120098,0.076,0.725,1.026,-115.112,-127.563,-184.631,1
7.127842,0.134,0.623,1.024,-95.642,-119.75,-181.64,1
7.136479,0.353,0.543,1.166,-95.397,-112.487,-178.894,1
7.14441,0.35,0.5,1.086,-102.355,-104.797,-176.33,1
7.152661,0.421,0.443,1.219,-115.722,-94.299,-173.889,1
7.159468,0.419,0.394,1.146,-133.056,-86.12,-170.654,1
7.167908,0.462,0.385,1.168,-146.057,-80.017,-168.212,1
7.176392,0.414,0.382,1.118,-156.372,-73.608,-165.039,1
7.183155,0.412,0.394,1.051,-164.306,-69.458,-162.353,1
7.191602,0.422,0.421,0.971,-164.245,-65.673,-160.339,1
7.198204,0.42,0.392,0.902,-166.259,-61.889,-158.691,1
7.206647,0.292,0.424,0.822,-171.936,-59.509,-156.127,1
7.213857,0.172,0.477,0.725,-170.532,-57.312,-153.32,1
7.220878,0.024,0.506,0.58,-168.334,-56.335,-150.756,1
7.228356,-0.118,0.514,0.429,-170.715,-57.006,-148.681,1
7.235618,-0.276,0.503,0.268,-176.025,-58.105,-147.094,1
7.243342,-0.471,0.508,0.115,-189.941,-61.523,-145.69,1
7.251815,-0.565,0.456,0.0,-202.941,-64.147,-144.409,1
7.261081,-0.698,0.421,-0.078,-220.397,-70.434,-141.906,1
7.267973,-0.874,0.411,-0.153,-219.726,-78.735,-138.488,1
7.275527,-0.916,0.347,-0.172,-203.124,-87.341,-135.864,1
7.284225,-0.969,0.265,-0.239,-191.711,-96.374,-133.85,1
7.29183,-1.118,0.162,-0.255,-192.871,-102.844,-132.08,1
7.300686,-1.216,0.1,-0.259,-197.143,-110.717,-130.187,1
7.307904,-1.246,0.027,-0.232,-192.626,-118.591,-128.234,1
7.31512,-1.324,-0.028,-0.183,-177.856,-125.976,-125.61,1
7.323581,-1.411,-0.12,-0.142,-158.813,-133.422,-122.741,1
7.332124,-1.511,-0.223,-0.111,-138.061,-141.357,-119.445,1
7.339254,-1.575,-0.358,-0.09,-123.84,-146.972,-115.783,1
7.347686,-1.573,-0.555,-0.092,-119.384,-151.367,-110.29,1
7.354197,-1.561,-0.784,-0.101,-132.08,-155.029,-102.661,1
7.362348,-1.63,-0.999,-0.109,-157.47,-157.592,-93.2,1
7.369682,-1.777,-1.256,-0.131,-187.255,-161.01,-80.871,1
7.377271,-1.82,-1.422,-0.121,-217.468,-165.588,-62.561,1
7.38588,-1.849,-1.577,-0.09,-225.28,-172.79,-44.311,1
7.393398,-1.887,-1.737,-0.029,-212.524,-179.992,-23.742,1
7.401427,-1.917,-1.874,0.016,-194.702,-187.805,-2.197,1
7.409676,-1.977,-2.025,0.046,-167.358,-194.641,20.935,1
7.416285,-2.049,-2.165,0.08,-140.93,-203.002,44.86,1
7.424064,-2.267,-2.3,0.122,-118.591,-210.205,69.824,1
7.432022,-2.541,-2.396,0.15,-93.627,-215.82,95.642,1
7.439951,-2.773,-2.491,0.207,-85.51,-221.801,123.107,1
7.447848,-3.029,-2.553,0.148,-84.228,-222.717,151.916,1
7.456586,-3.499,-2.741,0.021,-120.727,-228.881,187.255,1
7.463701,-3.753,-2.94,0.0,-187.622,-225.585,224.121,1
7.471615,-4.126,-3.055,-0.009,-261.169,-222.839,264.343,1
7.479525,-4.623,-2.955,0.158,-304.016,-214.782,315.185,1
7.486837,-5.126,-2.814,0.296,-284.057,-209.594,359.13,1
7.495639,-5.623,-2.836,0.487,-240.051,-206.787,404.541,1
7.504171,-6.271,-2.908,0.685,-203.552,-197.021,460.082,1
7.512127,-7.157,-2.863,0.778,-202.27,-187.499,508.3,1
7.519979,-8.219,-2.719,0.867,-220.336,-173.583,557.006,1
7.526814,-9.347,-2.428,1.059,-237.487,-158.264,605.834,1
7.534302,-10.243,-2.137,1.296,-248.291,-132.568,662.78,1
7.54203,-10.994,-1.831,1.572,-264.465,-100.341,711.425,1
7.550328,-11.809,-1.512,1.816,-292.724,-54.87,759.948,1
7.558218,-12.486,-1.288,2.057,-343.872,3.967,809.448,1
7.564915,-13.224,-1.062,2.23,-421.264,84.716,857.238,1
7.573635,-14.229,-0.719,2.302,-507.934,182.678,899.047,1
7.579688,-15.465,-0.296,2.227,-568.847,292.297,930.664,1
7.587534,-15.993,0.122,1.95,-610.229,408.386,952.514,1
7.59436,-15.999,0.555,1.425,-641.662,503.417,962.646,1
7.602046,-15.999,0.881,0.885,-674.438,615.356,962.585,1
7.609845,-15.999,1.552,0.133,-680.419,713.378,944.946,1
7.618084,-15.999,2.134,-0.143,-613.891,795.349,911.804,1
7.624791,-15.999,2.75,-0.221,-500.122,861.572,872.253,1
7.631615,-15.999,3.07,-0.455,-381.286,916.564,838.867,1
7.639205,-15.999,3.578,-1.334,-322.875,971.984,815.002,1
7.648432,-15.999,3.926,-1.168,-423.645,983.642,768.615,1
7.655055,-15.999,3.63,-1.361,-456.726,1069.946,727.05,1
7.663648,-15.999,4.514,-2.317,-592.102,1097.595,663.207,1
7.670773,-15.999,4.775,-2.176,-606.689,1169.555,577.575,1
7.677244,-15.999,4.728,-4.178,-635.498,1171.63,479.492,1
7.68402,-15.999,4.872,-4.514,-679.504,1169.555,383.544,1
7.693187,-15.999,4.589,-5.275,-815.185,1192.199,259.643,1
7.700109,-15.999,4.255,-6.389,-985.412,1171.508,87.646,1
7.708593,-15.999,3.375,-6.494,-1035.217,1130.493,-40.649,1
7.715041,-15.999,2.167,-6.308,-1054.687,1063.415,-195.068,1
7.723446,-15.999,1.37,-5.691,-990.112,965.881,-307.678,1
7.730471,-15.999,0.765,-4.745,-814.208,874.999,-390.502,1
7.738414,-15.103,0.204,-4.423,-603.881,777.099,-441.711,1
7.746395,-13.223,-0.323,-4.151,-430.175,691.894,-468.261,1
7.75608,-11.614,-0.927,-3.976,-322.692,613.769,-476.806,1
7.763312,-10.644,-1.229,-3.674,-284.301,558.959,-477.172,1
7.77118,-9.439,-1.509,-3.545,-274.169,516.967,-472.9,1
7.780045,-8.595,-1.642,-3.437,-313.842,464.294,-467.041,1
7.786916,-7.665,-1.624,-3.19,-336.364,421.691,-462.585,1
7.795185,-6.869,-1.625,-2.913,-307.434,365.539,-455.871,1
7.804579,-6.301,-1.721,-2.698,-256.286,323.608,-445.556,1
7.811083,-5.579,-1.931,-2.576,-205.139,283.691,-431.152,1
7.819469,-5.038,-2.079,-2.471,-164.123,244.201,-410.339,1
7.828121,-4.498,-2.132,-2.364,-144.531,215.393,-391.723,1
7.836592,-4.071,-2.152,-2.235,-135.375,185.18,-369.934,1
7.845053,-3.642,-2.156,-2.095,-140.075,162.658,-351.318,1
7.851862,-3.233,-2.091,-1.918,-145.996,139.892,-329.467,1
7.860349,-2.852,-2.04,-1.762,-143.981,119.567,-311.34,1
7.868086,-2.539,-1.994,-1.625,-135.437,102.05,-292.663,1
7.8762,-2.181,-1.922,-1.489,-131.958,82.763,-271.301,1
7.885959,-1.945,-1.833,-1.374,-139.526,69.213,-252.624,1
7.892975,-1.678,-1.702,-1.268,-143.981,54.26,-230.773,1
7.90195,-1.534,-1.576,-1.205,-122.436,39.062,-211.853,1
7.909759,-1.311,-1.507,-1.113,-82.519,24.169,-193.908,1
7.917431,-1.128,-1.487,-1.058,-43.334,10.681,-173.095,1
7.925361,-0.966,-1.428,-0.999,-25.512,2.258,-156.433,1
7.933791,-0.82,-1.332,-0.916,-17.517,-4.333,-138.366,1
7.94087,-0.693,-1.229,-0.854,-17.578,-8.422,-124.45,1
7.94935,-0.57,-1.117,-0.788,-17.517,-11.535,-111.938,1
7.958201,-0.456,-0.987,-0.714,-15.991,-14.709,-98.815,1
7.96593,-0.322,-0.871,-0.667,-15.319,-16.357,-88.5,1
7.973182,-0.246,-0.735,-0.634,-24.719,-17.15,-78.002,1
7.981407,-0.247,-0.621,-0.616,-38.513,-17.517,-69.885,1
7.990127,-0.205,-0.496,-0.576,-49.804,-18.859,-61.035,1
7.998049,-0.143,-0.408,-0.537,-48.706,-21.057,-54.077,1
8.006452,-0.073,-0.341,-0.498,-38.574,-23.01,-47.241,1
8.012955,0.012,-0.282,-0.471,-23.986,-25.329,-41.259,1
8.021465,0.083,-0.215,-0.448,-10.681,-26.123,-35.522,1
8.029369,0.089,-0.173,-0.46,-5.371,-26.977,-30.7,1
8.036321,0.05,-0.105,-0.46,-6.896,-27.16,-26.611,1
8.044221,0.026,-0.05,-0.457,-10.62,-26.733,-22.521,1
8.05219,0.044,-0.016,-0.444,-12.512,-26.611,-19.47,1
8.060477,0.097,0.016,-0.416,-10.559,-24.902,-17.028,1
8.069371,0.218,0.031,-0.412,-7.629,-22.888,-13.977,1
8.075787,0.27,0.053,-0.422,-10.803,-19.226,-10.986,1
8.084595,0.287,0.088,-0.464,-23.254,-17.028,-8.911,1
8.090803,0.289,0.134,-0.48,-37.963,-14.465,-7.08,1
8.098729,0.309,0.167,-0.501,-50.17,-11.84,-5.249,1
8.105607,0.325,0.209,-0.544,-55.725,-10.131,-3.417,1
8.113059,0.365,0.238,-0.604,-56.945,-10.192,-2.075,1
8.121496,0.397,0.242,-0.649,-60.18,-10.437,-0.915,1
8.127932,0.419,0.243,-0.685,-63.476,-10.986,0.305,1
8.13513,0.453,0.25,-0.705,-65.368,-11.84,1.647,1
8.143291,0.461,0.24,-0.713,-67.871,-12.573,3.54,1
8.150192,0.503,0.245,-0.708,-65.734,-13.427,4.882,1
8.158586,0.515,0.241,-0.708,-56.396,-15.197,6.408,1
8.165324,0.534,0.225,-0.692,-43.334,-16.723,7.873,1
8.174069,0.573,0.209,-0.695,-31.86,-17.456,9.765,1
8.180362,0.569,0.196,-0.708,-26.916,-17.761,11.596,1
8.187455,0.585,0.176,-0.718,-30.517,-18.493,13.0,1
8.195594,0.579,0.166,-0.706,-35.583,-18.066,14.587,1
8.203645,0.592,0.148,-0.727,-41.564,-17.822,15.93,1
8.210057,0.6,0.13,-0.723,-44.616,-19.165,17.517,1
8.218448,0.611,0.098,-0.706,-42.114,-19.836,19.531,1
8.226092,0.629,0.067,-0.707,-37.292,-21.24,21.972,1
8.232859,0.677,0.034,-0.693,-30.7,-22.644,25.024,1
8.239782,0.708,0.022,-0.675,-23.071,-24.169,28.198,1
8.247706,0.728,0.012,-0.666,-15.869,-24.841,31.677,1
8.254951,0.724,0.017,-0.669,-12.451,-25.39,35.339,1
8.263274,0.783,0.033,-0.654,-6.103,-25.573,38.513,1
8.269299,0.704,0.048,-0.659,-5.554,-27.893,40.771,1
8.276932,0.726,0.041,-0.636,-4.15,-26.367,43.823,1
8.283937,0.71,0.066,-0.668,-7.263,-26.672,46.752,1
8.291808,0.668,0.076,-0.649,-15.075,-26.0,49.194,1
8.298669,0.695,0.071,-0.604,-22.827,-24.536,51.391,1
8.306755,0.604,0.106,-0.595,-31.921,-24.78,53.222,1
8.313683,0.616,0.094,-0.595,-38.513,-22.338,55.236,1
8.320706,0.562,0.129,-0.601,-41.931,-24.047,57.25,1
8.328561,0.515,0.124,-0.615,-41.015,-21.545,59.387,1
8.336537,0.539,0.126,-0.549,-35.705,-23.376,61.035,1
8.343128,0.546,0.12,-0.574,-30.761,-22.399,62.988,1
8.350253,0.535,0.12,-0.551,-28.259,-23.071,64.819,1
8.358133,0.546,0.118,-0.519,-26.062,-22.277,66.833,1
8.364842,0.55,0.123,-0.504,-24.963,-22.155,69.091,1
8.372138,0.555,0.133,-0.472,-23.62,-21.789,71.35,1
8.380167,0.564,0.144,-0.45,-23.193,-21.362,73.242,1
8.387654,0.553,0.153,-0.424,-23.62,-20.996,74.829,1
8.394632,0.552,0.151,-0.419,-26.0,-19.592,77.331,1
8.402822,0.522,0.178,-0.413,-32.409,-18.615,79.833,1
8.409693,0.521,0.2,-0.425,-38.94,-17.883,82.214,1
8.417841,0.516,0.222,-0.419,-43.579,-17.883,83.923,1
8.424541,0.521,0.238,-0.405,-46.02,-17.211,85.632,1
8.432727,0.489,0.254,-0.408,-48.4,-16.845,87.524,1
8.440689,0.384,0.25,-0.407,-53.222,-15.563,89.538,1
8.446961,0.424,0.263,-0.4,-62.866,-14.343,91.369,1
8.454178,0.487,0.285,-0.391,-71.472,-12.695,92.59,1
8.461988,0.51,0.316,-0.416,-81.298,-9.704,94.299,1
8.468595,0.535,0.347,-0.429,-91.308,-8.361,95.764,1
8.477324,0.542,0.379,-0.427,-97.595,-5.859,96.801,1
8.484145,0.511,0.417,-0.416,-97.595,-5.004,97.839,1
8.49078,0.509,0.448,-0.412,-90.698,-3.784,99.304,1
8.499665,0.514,0.477,-0.424,-78.552,-3.967,100.646,1
8.506018,0.484,0.492,-0.42,-64.697,-4.638,101.989,1
8.512699,0.458,0.498,-0.421,-53.894,-5.615,103.027,1
8.520426,0.439,0.497,-0.412,-47.119,-5.92,104.003,1
8.528171,0.396,0.505,-0.404,-43.212,-6.103,105.163,1
8.536605,0.362,0.513,-0.407,-40.1,-6.469,106.14,1
8.542587,0.335,0.532,-0.404,-35.766,-6.958,106.384,1
8.550987,0.321,0.543,-0.399,-28.808,-7.263,106.994,1
8.557348,0.318,0.54,-0.394,-20.812,-7.69,107.238,1
8.565772,0.309,0.534,-0.393,-13.977,-7.507,107.604,1
8.57338,0.311,0.522,-0.415,-12.878,-7.019,107.849,1
8.580044,0.32,0.501,-0.422,-19.897,-6.408,108.52,1
8.588252,0.33,0.481,-0.42,-30.883,-4.516,109.313,1
8.595213,0.33,0.469,-0.414,-42.053,-2.685,109.68,1
8.602864,0.327,0.447,-0.389,-49.56,-0.549,110.473,1
8.610985,0.335,0.42,-0.372,-53.833,1.281,111.389,1
8.617372,0.35,0.379,-0.349,-55.419,3.234,112.731,1
8.625402,0.356,0.338,-0.324,-53.222,5.004,114.318,1
8.632486,0.365,0.321,-0.317,-47.363,7.141,116.882,1
8.640499,0.37,0.324,-0.324,-41.442,8.911,119.873,1
8.646853,0.368,0.321,-0.33,-40.161,10.437,122.619,1
8.65402,0.335,0.334,-0.329,-42.968,12.634,125.61,1
8.661609,0.335,0.346,-0.316,-46.569,14.038,128.234,1
8.668685,0.331,0.362,-0.297,-48.156,16.113,131.286,1
8.676114,0.315,0.38,-0.287,-48.461,18.615,134.216,1
8.683227,0.28,0.4,-0.28,-45.41,19.775,136.901,1
8.69103,0.234,0.404,-0.281,-40.466,21.179,139.282,1
8.6977,0.216,0.403,-0.282,-33.02,22.46,141.784,1
8.705606,0.204,0.415,-0.283,-25.512,23.925,144.775,1
8.712247,0.172,0.431,-0.303,-22.338,25.207,147.033,1
8.720984,0.153,0.461,-0.321,-23.559,26.306,148.986,1
8.727649,0.128,0.498,-0.351,-28.503,28.686,151.0,1
8.734282,0.095,0.539,-0.383,-36.621,30.151,152.465,1
8.742018,0.064,0.583,-0.394,-46.02,32.348,153.625,1
8.749978,0.058,0.613,-0.413,-54.87,34.301,154.907,1
8.757138,0.058,0.66,-0.437,-60.424,36.56,156.494,1
8.764384,0.044,0.734,-0.466,-59.753,37.78,157.409,1
8.772455,-0.009,0.775,-0.484,-52.001,37.841,158.142,1
8.780523,-0.057,0.799,-0.502,-39.916,37.353,158.447,1
8.787127,-0.102,0.808,-0.495,-25.878,36.865,159.301,1
8.795108,-0.068,0.839,-0.518,-9.094,35.461,159.423,1
8.803158,-0.187,0.832,-0.544,2.441,34.362,159.301,1
8.810987,-0.278,0.844,-0.586,-1.159,34.118,158.935,1
8.818057,-0.317,0.853,-0.591,-10.131,33.508,158.203,1
8.827444,-0.342,0.87,-0.62,-24.719,35.034,156.86,1
8.834113,-0.301,0.927,-0.636,-37.353,34.729,154.663,1
8.842539,-0.364,0.956,-0.619,-39.428,34.24,152.587,1
8.849003,-0.453,0.979,-0.657,-42.724,34.24,150.817,1
8.857444,-0.451,0.976,-0.671,-42.907,30.883,147.705,1
8.864081,-0.441,0.915,-0.618,-45.349,30.273,145.935,1
8.872322,-0.416,0.884,-0.622,-48.583,30.761,144.714,1
8.880159,-0.409,0.877,-0.638,-46.752,29.724,143.676,1
8.886421,-0.425,0.892,-0.637,-40.222,28.503,143.371,1
8.895924,-0.431,0.895,-0.641,-26.245,26.306,143.188,1
8.902564,-0.43,0.901,-0.637,-7.263,23.315,143.737,1
8.909434,-0.423,0.907,-0.645,11.474,20.69,144.287,1
8.916159,-0.421,0.902,-0.655,24.78,17.761,144.592,1
8.924748,-0.428,0.9,-0.665,32.165,15.075,145.324,1
8.931464,-0.437,0.909,-0.669,36.315,12.878,146.118,1
8.940147,-0.442,0.915,-0.666,39.306,10.681,146.85,1
8.946464,-0.446,0.921,-0.66,40.222,8.972,147.338,1
8.953916,-0.45,0.922,-0.65,39.55,7.141,147.949,1
8.96083,-0.452,0.928,-0.64,38.574,6.347,148.742,1
8.968829,-0.462,0.939,-0.64,36.071,5.31,149.169,1
8.976397,-0.479,0.957,-0.642,31.616,4.699,149.292,1
8.984819,-0.496,0.976,-0.641,27.893,3.784,149.597,1
8.991305,-0.504,0.987,-0.633,25.878,2.685,149.353,1
8.998436,-0.512,0.995,-0.626,26.55,2.075,148.986,1
9.005153,-0.52,1.002,-0.623,28.747,0.976,149.23,1
9.013595,-0.531,1.007,-0.621,33.813,-0.915,148.925,1
9.020174,-0.532,1.002,-0.609,39.428,-2.624,148.742,1
9.027782,-0.534,0.994,-0.606,44.311,-4.577,148.62,1
9.034777,-0.543,0.984,-0.596,47.729,-5.92,148.376,1
9.042591,-0.55,0.974,-0.591,49.804,-7.141,148.193,1
9.0496,-0.551,0.958,-0.58,49.865,-8.544,147.766,1
9.056701,-0.547,0.953,-0.577,49.255,-9.399,148.193,1
9.064332,-0.554,0.953,-0.571,48.828,-10.62,148.315,1
9.071523,-0.58,0.961,-0.558,52.246,-12.145,148.559,1
9.079513,-0.606,0.964,-0.548,58.105,-13.366,148.376,1
9.086325,-0.611,0.955,-0.531,64.025,-15.197,148.315,1
9.093848,-0.61,0.94,-0.521,67.81,-16.357,148.132,1
9.101064,-0.623,0.938,-0.496,73.852,-18.31,148.559,1
9.108736,-0.644,0.932,-0.485,81.726,-19.958,148.315,1
9.115995,-0.646,0.918,-0.473,88.317,-22.033,148.315,1
9.12374,-0.658,0.909,-0.454,93.383,-23.498,148.559,1
9.131569,-0.67,0.917,-0.451,97.045,-25.146,148.559,1
9.139147,-0.681,0.938,-0.448,101.318,-27.343,148.01,1
9.14598,-0.696,0.946,-0.441,106.384,-29.479,147.277,1
9.152953,-0.722,0.957,-0.432,110.595,-31.738,146.667,1
9.160847,-0.74,0.96,-0.421,113.22,-33.508,145.69,1
9.168804,-0.75,0.961,-0.41,112.487,-35.4,144.714,1
9.175272,-0.751,0.962,-0.395,107.666,-36.315,143.554,1
9.183216,-0.761,0.961,-0.39,98.571,-36.499,142.333,1
9.191154,-0.77,0.966,-0.381,86.486,-36.315,141.113,1
9.197787,-0.796,0.981,-0.375,73.303,-35.827,140.075,1
9.205106,-0.818,1.002,-0.372,64.147,-35.583,138.732,1
9.213612,-0.824,1.017,-0.365,56.213,-35.217,137.207,1
9.220065,-0.832,1.033,-0.354,52.551,-35.339,135.498,1
9.227634,-0.836,1.04,-0.347,53.344,-35.583,133.972,1
9.235804,-0.847,1.041,-0.348,56.457,-36.01,132.751,1
9.242568,-0.87,1.048,-0.345,59.509,-36.804,131.652,1
9.25096,-0.886,1.06,-0.345,61.95,-37.536,130.187,1
9.258202,-0.896,1.068,-0.343,65.002,-38.33,128.479,1
9.266334,-0.888,1.064,-0.342,65.429,-38.879,126.586,1
9.272827,-0.885,1.064,-0.332,65.124,-39.184,125.183,1
9.280883,-0.87,1.059,-0.327,65.063,-39.855,123.596,1
9.287854,-0.88,1.052,-0.317,65.002,-39.978,122.009,1
9.296072,-0.907,1.051,-0.329,61.096,-39.794,120.849,1
9.302791,-0.904,1.067,-0.328,56.213,-40.161,118.957,1
9.310987,-0.824,1.077,-0.31,59.265,-41.137,116.455,1
9.319376,-0.965,1.081,-0.31,60.791,-40.039,115.051,1
9.325875,-0.932,1.081,-0.329,59.02,-41.931,112.976,1
9.333978,-0.892,1.079,-0.29,62.744,-42.236,111.206,1
9.342229,-0.877,1.053,-0.305,66.65,-42.724,109.497,1
9.348703,-0.897,1.036,-0.294,67.321,-43.823,107.727,1
9.356524,-0.902,1.019,-0.287,67.016,-43.273,106.567,1
9.364129,-0.903,1.01,-0.29,65.551,-44.067,104.919,1
9.371716,-0.902,0.986,-0.275,62.377,-43.457,103.881,1
9.378658,-0.884,1.001,-0.276,63.72,-44.494,101.806,1
9.386762,-0.904,1.003,-0.257,67.932,-44.189,99.914,1
9.39495,-0.9,1.004,-0.272,68.908,-44.433,98.449,1
9.4015,-0.898,0.991,-0.261,68.298,-44.677,96.74,1
9.409879,-0.895,0.985,-0.264,67.199,-44.189,94.909,1
9.416563,-0.918,0.981,-0.268,65.49,-44.555,93.322,1
9.424266,-0.938,0.944,-0.26,61.767,-43.823,92.224,1
9.432074,-0.925,0.947,-0.265,60.791,-44.189,90.332,1
9.439745,-0.949,0.951,-0.246,62.255,-43.273,89.05,1
9.447421,-0.942,0.937,-0.263,61.95,-43.151,87.707,1
9.455046,-0.935,0.927,-0.251,60.424,-42.846,86.486,1
9.46275,-0.91,0.922,-0.25,61.218,-42.175,85.144,1
9.470925,-0.887,0.914,-0.251,64.086,-42.541,83.74,1
9.477554,-0.873,0.908,-0.246,68.847,-42.602,82.458,1
9.486008,-0.849,0.894,-0.241,75.012,-43.09,80.749,1
9.492686,-0.837,0.883,-0.239,82.885,-43.945,78.918,1
9.500851,-0.812,0.869,-0.239,92.041,-45.043,76.965,1
9.50894,-0.795,0.857,-0.238,101.135,-46.386,74.768,1
9.51593,-0.786,0.833,-0.238,108.459,-47.424,72.57,1
9.522466,-0.782,0.804,-0.239,112.67,-48.645,70.007,1
9.530714,-0.781,0.779,-0.234,113.342,-49.194,67.565,1
9.538258,-0.773,0.753,-0.231,111.938,-49.743,65.795,1
9.544845,-0.77,0.737,-0.219,107.727,-49.743,63.415,1
9.552937,-0.76,0.71,-0.208,100.463,-48.95,61.157,1
9.559175,-0.762,0.685,-0.206,90.515,-47.485,59.265,1
9.56724,-0.767,0.67,-0.194,79.162,-45.776,57.678,1
9.573904,-0.777,0.665,-0.187,70.434,-44.311,56.213,1
9.581195,-0.767,0.66,-0.177,63.537,-43.09,54.992,1
9.589518,-0.745,0.648,-0.161,62.377,-41.625,53.527,1
9.596356,-0.816,0.65,-0.165,61.828,-39.733,52.062,1
9.603343,-0.849,0.653,-0.167,60.485,-39.001,51.147,1
9.611377,-0.849,0.657,-0.164,61.706,-38.024,50.231,1
9.618419,-0.84,0.659,-0.169,66.04,-37.353,48.706,1
9.626783,-0.838,0.652,-0.171,71.105,-36.987,47.546,1
9.633523,-0.845,0.647,-0.179,75.134,-36.254,46.325,1
9.640941,-0.849,0.64,-0.187,78.002,-36.132,44.677,1
9.648738,-0.858,0.636,-0.194,80.444,-36.254,43.334,1
9.655854,-0.861,0.63,-0.196,81.97,-35.766,41.992,1
9.664609,-0.854,0.623,-0.202,82.641,-35.827,40.588,1
9.673373,-0.836,0.609,-0.206,81.787,-35.339,39.001,1
9.679918,-0.811,0.593,-0.206,81.42,-35.522,37.841,1
9.687513,-0.851,0.585,-0.207,78.979,-34.667,36.376,1
9.694308,-0.896,0.581,-0.216,73.486,-34.301,35.461,1
9.702827,-0.908,0.583,-0.212,68.969,-34.057,34.606,1
9.710684,-0.886,0.584,-0.2,66.406,-33.264,33.386,1
9.717398,-0.866,0.581,-0.195,67.626,-32.836,32.043,1
9.725679,-0.855,0.579,-0.191,68.847,-32.043,30.761,1
9.733427,-0.853,0.572,-0.202,68.237,-31.555,29.907,1
9.741674,-0.855,0.565,-0.198,66.345,-30.822,28.869,1
9.748128,-0.854,0.562,-0.198,64.636,-29.785,27.648,1
9.756787,-0.856,0.562,-0.193,63.11,-28.869,26.611,1
9.763017,-0.851,0.554,-0.192,62.377,-27.77,25.695,1
9.770863,-0.838,0.547,-0.187,61.584,-27.16,24.719,1
9.778626,-0.828,0.542,-0.184,60.058,-26.184,23.742,1
9.787188,-0.814,0.528,-0.182,58.471,-24.963,23.193,1
9.795442,-0.806,0.522,-0.176,56.274,-23.376,22.399,1
9.802249,-0.799,0.514,-0.179,54.138,-22.033,21.85,1
9.809035,-0.791,0.511,-0.171,52.001,-20.202,21.362,1
9.817036,-0.777,0.504,-0.166,49.621,-18.737,20.874,1
9.823528,-0.774,0.5,-0.163,47.241,-16.845,20.08,1
9.831424,-0.765,0.496,-0.163,44.982,-14.892,19.897,1
9.838401,-0.769,0.492,-0.162,43.395,-13.366,19.653,1
9.847121,-0.772,0.493,-0.16,41.687,-11.474,19.47,1
9.853879,-0.769,0.494,-0.162,39.611,-9.338,19.042,1
9.860606,-0.77,0.491,-0.166,37.292,-7.446,18.859,1
9.868087,-0.768,0.486,-0.169,34.179,-5.004,18.493,1
9.875045,-0.769,0.482,-0.172,30.029,-3.051,18.371,1
9.883238,-0.774,0.48,-0.178,26.367,-1.342,18.066,1
9.890137,-0.777,0.478,-0.179,21.728,0.854,18.188,1
9.89816,-0.776,0.476,-0.182,16.845,2.624,18.005,1
9.904814,-0.785,0.474,-0.186,11.474,4.821,18.066,1
9.912128,-0.791,0.479,-0.189,6.164,6.774,18.127,1
9.920378,-0.803,0.482,-0.195,2.197,8.239,18.127,1
9.926869,-0.802,0.488,-0.2,-0.488,9.826,17.761,1
9.935166,-0.796,0.489,-0.203,-1.77,10.986,17.944,1
9.942873,-0.795,0.49,-0.203,-2.807,12.451,17.7,1
9.95126,-0.79,0.494,-0.207,-2.685,13.488,17.822,1
9.958062,-0.787,0.493,-0.215,-1.586,14.526,17.517,1
9.965997,-0.777,0.502,-0.215,0.427,15.441,17.395,1
9.972815,-0.771,0.497,-0.224,2.685,16.235,17.272,1
9.980722,-0.77,0.497,-0.229,4.76,16.845,17.272,1
9.98815,-0.766,0.5,-0.237,7.141,17.211,16.967,1
9.996339,-0.771,0.498,-0.242,10.437,17.333,17.028,1
