timestamp_s,ax,ay,az,gx,gy,gz,label
0.006372,0.726,-0.121,-0.376,78.491,-0.793,-93.139,1
0.014067,0.717,-0.129,-0.377,71.411,0.061,-93.078,1
0.021181,0.709,-0.137,-0.361,65.368,1.525,-93.261,1
0.029497,0.71,-0.145,-0.372,58.715,2.38,-93.2,1
0.036574,0.717,-0.151,-0.362,53.283,2.624,-93.078,1
0.044934,0.698,-0.183,-0.355,46.874,3.295,-92.956,1
0.053429,0.708,-0.209,-0.347,35.095,3.295,-92.651,1
0.062206,0.754,-0.225,-0.334,26.733,3.845,-92.285,1
0.068792,0.733,-0.228,-0.324,19.775,3.54,-91.735,1
0.077292,0.715,-0.219,-0.324,16.113,3.479,-91.491,1
0.085573,0.707,-0.224,-0.321,14.038,2.929,-91.125,1
0.093154,0.689,-0.225,-0.325,12.817,2.502,-90.942,1
0.102063,0.675,-0.219,-0.331,11.047,1.77,-90.881,1
0.110638,0.647,-0.221,-0.332,8.422,0.61,-90.82,1
0.118776,0.663,-0.221,-0.315,10.864,-0.854,-91.003,1
0.127468,0.686,-0.234,-0.291,16.052,-2.258,-90.82,1
0.13788,0.698,-0.258,-0.272,22.399,-3.417,-90.576,1
0.146343,0.72,-0.29,-0.25,25.939,-4.638,-89.721,1
0.155203,0.732,-0.301,-0.22,28.198,-5.126,-88.623,1
0.163559,0.747,-0.303,-0.189,30.456,-5.249,-87.341,1
0.172055,0.748,-0.295,-0.155,32.043,-5.187,-86.181,1
0.180179,0.741,-0.292,-0.151,34.851,-4.577,-85.998,1
0.186902,0.751,-0.321,-0.163,31.982,-4.089,-84.899,1
0.197597,0.75,-0.34,-0.173,20.019,-2.685,-83.984,1
0.206468,0.716,-0.348,-0.184,2.197,-1.342,-83.129,1
0.213459,0.723,-0.339,-0.187,-12.451,0.183,-82.458,1
0.224177,0.73,-0.332,-0.199,-15.502,0.61,-82.397,1
0.231509,0.706,-0.333,-0.2,-12.573,0.305,-82.397,1
0.240178,0.716,-0.337,-0.214,-4.211,-0.488,-82.519,1
0.248623,0.716,-0.345,-0.208,5.249,-1.953,-82.946,1
0.255765,0.692,-0.375,-0.204,13.0,-2.319,-83.374,1
0.265956,0.706,-0.413,-0.21,10.742,-2.197,-83.679,1
0.273213,0.719,-0.425,-0.205,4.699,-1.342,-83.862,1
0.281619,0.73,-0.406,-0.202,6.042,-0.61,-84.167,1
0.290338,0.759,-0.434,-0.224,4.699,-0.915,-84.472,1
0.298883,0.75,-0.442,-0.221,0.549,-0.122,-84.655,1
0.307353,0.728,-0.443,-0.242,-4.028,-0.183,-85.205,1
0.314348,0.688,-0.424,-0.24,-8.85,0.183,-85.998,1
0.324492,0.692,-0.416,-0.236,-10.559,-1.098,-87.341,1
0.333646,0.69,-0.409,-0.222,-4.333,-1.22,-88.989,1
0.341692,0.683,-0.455,-0.228,-3.784,-2.075,-91.003,1
0.349293,0.676,-0.486,-0.198,-7.08,-1.281,-92.59,1
0.360253,0.64,-0.494,-0.186,-8.605,-1.159,-94.055,1
0.367005,0.626,-0.533,-0.138,-6.103,-1.098,-95.703,1
0.376646,0.586,-0.566,-0.108,-1.464,-1.586,-96.984,1
0.384588,0.565,-0.614,-0.069,7.202,-0.366,-97.717,1
0.39359,0.574,-0.665,-0.048,16.967,-0.244,-98.632,1
0.400462,0.476,-0.704,0.008,20.202,0.549,-98.51,1
0.408295,0.408,-0.703,0.028,29.602,3.662,-98.754,1
0.416536,0.347,-0.778,0.046,17.395,5.371,-98.693,1
0.426414,0.313,-0.835,0.072,-1.586,9.887,-98.266,1
0.433336,0.281,-0.87,0.104,-21.423,15.014,-97.717,1
0.44252,0.255,-0.907,0.115,-32.043,18.188,-96.923,1
0.450926,0.222,-0.964,0.142,-36.865,20.874,-95.642,1
0.459868,0.203,-1.014,0.16,-34.423,23.803,-93.322,1
0.466908,0.167,-1.065,0.199,-18.432,25.695,-90.148,1
0.477709,0.111,-1.129,0.208,2.38,27.465,-86.364,1
0.484752,0.07,-1.231,0.225,10.742,31.005,-81.909,1
0.491914,0.084,-1.327,0.223,5.065,35.705,-77.087,1
0.501005,0.074,-1.387,0.256,-6.469,39.733,-70.739,1
0.508611,0.054,-1.476,0.204,-20.202,46.752,-64.758,1
0.518282,0.038,-1.501,0.235,-36.254,49.804,-58.349,1
0.526172,0.014,-1.53,0.256,-42.419,54.748,-50.292,1
0.534509,0.0,-1.555,0.278,-24.23,57.495,-41.687,1
0.544375,-0.067,-1.547,0.241,-10.437,60.974,-32.897,1
0.551491,-0.054,-1.672,0.224,-5.004,64.147,-23.132,1
0.55953,-0.158,-1.713,0.285,4.638,71.899,-12.145,1
0.567351,-0.254,-1.812,0.208,-1.22,76.538,-0.976,1
0.576355,-0.336,-1.892,0.214,-23.498,85.327,9.521,1
0.584132,-0.37,-1.926,0.16,-49.011,91.857,19.775,1
0.592257,-0.523,-1.891,0.152,-64.575,99.06,31.86,1
0.59872,-0.664,-1.861,0.105,-61.889,102.783,42.053,1
0.6064,-0.766,-1.861,0.075,-47.668,104.919,52.246,1
0.614468,-0.844,-1.885,0.057,-21.24,106.506,63.049,1
0.62297,-0.929,-1.934,0.013,3.295,106.567,74.89,1
0.631145,-1.034,-1.961,-0.021,33.935,106.384,86.975,1
0.639403,-1.166,-1.996,-0.102,69.946,104.309,102.111,1
0.646976,-1.312,-2.076,-0.165,78.979,104.064,115.539,1
0.65659,-1.391,-2.238,-0.227,26.062,109.985,132.019,1
0.664147,-1.524,-2.208,-0.215,-40.344,116.943,149.597,1
0.672877,-1.635,-2.157,-0.174,-48.339,120.91,167.297,1
0.682117,-1.748,-2.148,-0.175,-29.602,122.558,183.41,1
0.690102,-1.903,-2.184,-0.181,-6.774,123.046,203.857,1
0.697132,-2.023,-2.18,-0.166,13.488,124.145,222.534,1
0.705166,-2.181,-2.152,-0.164,43.334,124.45,246.093,1
0.714066,-2.366,-2.132,-0.18,70.861,123.474,267.7,1
0.72104,-2.543,-2.048,-0.188,103.454,122.192,294.921,1
0.730392,-2.795,-1.998,-0.214,125.366,119.628,315.002,1
0.736709,-3.022,-1.926,-0.248,147.46,116.699,344.177,1
0.744406,-3.309,-1.833,-0.289,157.592,113.342,370.117,1
0.752989,-3.618,-1.74,-0.333,160.095,109.374,396.484,1
0.761411,-3.999,-1.606,-0.375,152.16,105.285,427.185,1
0.770561,-4.431,-1.467,-0.411,140.747,101.989,453.979,1
0.777444,-4.811,-1.353,-0.433,123.229,98.51,485.534,1
0.786049,-5.253,-1.229,-0.443,109.374,96.374,512.634,1
0.794503,-5.725,-1.107,-0.454,100.891,94.116,540.466,1
0.801439,-6.355,-0.965,-0.476,95.764,91.552,573.12,1
0.809018,-6.975,-0.861,-0.513,99.243,87.463,602.172,1
0.816178,-7.68,-0.769,-0.532,107.849,83.435,632.507,1
0.826223,-8.445,-0.68,-0.567,120.971,76.782,664.306,1
0.832639,-9.284,-0.601,-0.607,137.084,67.749,696.899,1
0.839811,-10.275,-0.507,-0.652,159.912,55.786,730.346,1
0.849334,-11.202,-0.417,-0.704,195.007,34.973,770.935,1
0.857578,-12.21,-0.307,-0.761,216.247,13.549,806.213,1
0.865834,-13.531,-0.036,-0.893,262.023,-19.531,846.435,1
0.873459,-14.898,0.206,-1.014,300.598,-59.387,878.295,1
0.880952,-15.999,0.551,-1.157,319.519,-111.877,910.156,1
0.889999,-15.999,0.847,-1.186,319.885,-163.208,933.288,1
0.901096,-15.999,1.335,-1.075,331.787,-223.449,955.81,1
0.908445,-15.999,1.749,-0.917,363.891,-301.269,970.947,1
0.91702,-15.999,2.148,-0.668,400.878,-374.816,973.815,1
0.92448,-15.999,2.387,-0.403,453.796,-461.608,966.552,1
0.933707,-15.999,2.63,-0.02,544.738,-546.447,949.89,1
0.942605,-15.999,2.737,0.497,685.363,-663.696,914.123,1
0.950059,-15.999,2.571,1.091,824.096,-772.827,866.149,1
0.958974,-15.999,2.467,1.977,964.66,-892.822,785.217,1
0.966733,-15.999,2.558,2.541,1093.078,-1000.244,666.748,1
0.974916,-15.999,2.846,2.988,1203.247,-1073.974,531.311,1
0.982633,-15.999,2.684,2.927,1277.282,-1129.882,370.544,1
0.991837,-15.999,2.048,3.053,1145.385,-1147.277,185.668,1
0.999294,-15.999,1.982,2.968,922.18,-1116.882,34.973,1
1.008529,-15.999,2.203,3.235,811.706,-1070.983,-71.899,1
1.01526,-15.999,2.369,3.143,773.742,-1022.888,-169.433,1
1.023783,-15.999,2.299,3.166,798.095,-973.51,-262.573,1
1.031142,-15.999,1.818,2.751,824.096,-895.263,-366.027,1
1.039482,-15.999,1.466,2.624,797.607,-825.866,-444.396,1
1.047977,-15.821,1.163,2.528,730.59,-737.853,-506.652,1
1.05599,-14.466,0.844,2.326,641.784,-657.836,-553.894,1
1.062812,-13.465,0.672,2.273,536.254,-563.476,-590.942,1
1.07051,-12.543,0.489,2.199,445.312,-491.394,-610.412,1
1.079346,-11.774,0.347,2.137,368.041,-427.124,-619.567,1
1.085769,-11.238,0.248,2.093,314.147,-373.168,-621.887,1
1.094566,-10.7,0.123,2.031,298.339,-325.073,-618.774,1
1.1007,-9.945,-0.022,1.862,306.64,-285.156,-614.44,1
1.108942,-9.273,-0.244,1.775,321.228,-248.229,-607.299,1
1.115718,-8.625,-0.52,1.678,314.025,-207.153,-595.825,1
1.122822,-7.992,-0.751,1.59,278.381,-170.532,-580.566,1
1.131456,-7.412,-0.869,1.584,243.835,-132.202,-562.133,1
1.138106,-6.875,-0.979,1.484,218.2,-100.036,-543.334,1
1.146074,-6.369,-1.111,1.431,194.702,-71.594,-521.728,1
1.154599,-6.026,-1.266,1.325,153.625,-46.752,-498.107,1
1.16257,-5.704,-1.287,1.325,118.286,-24.841,-475.158,1
1.169269,-5.362,-1.299,1.264,95.825,-5.981,-452.819,1
1.177611,-5.073,-1.344,1.2,79.956,9.399,-430.419,1
1.185192,-4.614,-1.391,1.159,74.768,23.071,-411.132,1
1.193975,-4.137,-1.429,1.08,79.345,38.33,-387.878,1
1.200024,-3.726,-1.532,1.001,75.012,49.438,-369.384,1
1.208319,-3.392,-1.652,0.963,67.077,60.119,-353.637,1
1.21545,-3.043,-1.751,0.873,46.142,73.364,-335.327,1
1.223438,-2.826,-1.79,0.84,23.864,81.054,-317.321,1
1.230798,-2.662,-1.806,0.808,17.15,88.745,-299.194,1
1.23943,-2.518,-1.791,0.768,26.062,91.369,-280.578,1
1.246752,-2.356,-1.78,0.736,47.973,93.872,-258.178,1
1.254585,-2.163,-1.802,0.682,64.697,96.008,-238.769,1
1.261588,-1.937,-1.819,0.635,69.335,98.937,-219.177,1
1.269734,-1.757,-1.803,0.582,62.499,103.149,-200.012,1
1.278348,-1.619,-1.76,0.531,49.682,105.957,-182.556,1
1.286161,-1.529,-1.686,0.497,36.315,108.642,-163.391,1
1.292948,-1.457,-1.634,0.494,28.381,110.29,-148.62,1
1.300696,-1.324,-1.601,0.491,23.193,112.976,-134.46,1
1.308451,-1.189,-1.571,0.48,17.7,114.807,-121.215,1
1.317057,-1.051,-1.518,0.464,14.099,116.76,-107.788,1
1.323598,-0.916,-1.471,0.435,10.803,118.896,-95.764,1
1.332142,-0.785,-1.418,0.403,9.216,119.934,-83.251,1
1.338523,-0.665,-1.37,0.368,10.925,120.971,-71.533,1
1.346927,-0.531,-1.319,0.327,15.319,120.422,-60.424,1
1.354794,-0.395,-1.266,0.275,21.24,119.873,-48.95,1
1.361596,-0.242,-1.206,0.222,26.916,118.164,-37.78,1
1.369965,-0.113,-1.106,0.171,33.081,116.577,-26.855,1
1.379009,-0.038,-1.013,0.144,39.733,113.22,-15.075,1
1.386115,0.065,-0.92,0.136,46.447,110.595,-6.225,1
1.393982,0.149,-0.823,0.131,54.504,108.398,1.953,1
1.401892,0.233,-0.732,0.124,58.227,107.116,9.155,1
1.408808,0.298,-0.65,0.115,56.823,106.811,16.845,1
1.41753,0.366,-0.561,0.095,53.405,106.628,22.705,1
1.42468,0.406,-0.47,0.078,50.903,106.506,28.198,1
1.432906,0.461,-0.397,0.033,48.828,106.018,32.775,1
1.441233,0.524,-0.321,-0.014,45.288,104.614,37.719,1
1.448584,0.592,-0.254,-0.055,42.968,102.6,41.198,1
1.456258,0.647,-0.209,-0.09,41.564,100.646,44.25,1
1.464947,0.708,-0.158,-0.117,39.855,97.961,46.63,1
1.472048,0.77,-0.106,-0.134,38.818,95.764,49.072,1
1.480233,0.838,-0.053,-0.146,39.611,92.834,51.208,1
1.488707,0.878,0.006,-0.156,42.907,90.393,52.917,1
1.495995,0.895,0.057,-0.166,46.63,87.707,53.894,1
1.504442,0.902,0.124,-0.183,47.79,85.51,54.504,1
1.511749,0.9,0.166,-0.194,44.311,84.228,54.626,1
1.519939,0.901,0.212,-0.22,38.696,82.702,54.26,1
1.527483,0.92,0.248,-0.241,33.447,80.871,53.588,1
1.534494,0.956,0.283,-0.247,30.334,79.04,52.856,1
1.543512,0.983,0.304,-0.253,27.526,77.697,51.818,1
1.551216,1.025,0.342,-0.262,25.329,75.683,50.598,1
1.558991,1.077,0.379,-0.268,26.0,73.12,49.255,1
1.566026,1.12,0.417,-0.259,30.761,70.19,47.607,1
1.574386,1.14,0.44,-0.238,39.306,67.749,45.654,1
1.581745,1.17,0.459,-0.225,47.058,65.551,43.945,1
1.59004,1.178,0.485,-0.198,54.382,64.392,41.931,1
1.597826,1.174,0.514,-0.203,61.95,62.622,39.978,1
1.605862,1.202,0.535,-0.189,73.12,60.913,38.33,1
1.613493,1.206,0.563,-0.204,87.951,58.898,36.315,1
1.622631,1.214,0.571,-0.197,105.102,56.274,33.874,1
1.629887,1.215,0.575,-0.229,113.586,54.992,32.348,1
1.638443,1.182,0.594,-0.23,114.746,53.222,30.395,1
1.645045,1.233,0.573,-0.252,110.412,52.795,28.442,1
1.653265,1.201,0.593,-0.252,99.853,52.917,26.916,1
1.66027,1.164,0.617,-0.261,90.332,52.673,24.902,1
1.66726,1.165,0.623,-0.267,80.688,52.429,22.46,1
1.677196,1.14,0.637,-0.263,69.641,52.978,20.629,1
1.682813,1.125,0.707,-0.284,63.659,52.062,17.456,1
1.6913,1.063,0.758,-0.283,78.308,49.743,14.404,1
1.698558,1.042,0.747,-0.291,93.994,47.302,11.169,1
1.708474,1.034,0.743,-0.297,101.623,46.203,8.361,1
1.713994,1.0,0.753,-0.296,105.468,44.555,5.126,1
1.722519,1.007,0.77,-0.289,111.999,43.457,2.319,1
1.731604,0.951,0.742,-0.299,108.642,43.579,-0.671,1
1.738358,0.926,0.752,-0.3,107.971,43.334,-3.051,1
1.748408,0.941,0.74,-0.297,104.858,43.273,-6.042,1
1.756434,0.938,0.743,-0.3,95.153,44.372,-8.911,1
1.764998,0.943,0.752,-0.314,88.317,44.006,-11.657,1
1.773137,0.962,0.735,-0.313,82.885,44.128,-14.892,1
1.781366,0.945,0.743,-0.325,77.697,44.372,-17.7,1
1.789863,0.946,0.738,-0.335,77.514,43.64,-20.324,1
1.798586,0.927,0.73,-0.334,82.824,42.602,-22.827,1
1.805918,0.929,0.723,-0.329,95.886,41.137,-24.536,1
1.814354,0.924,0.701,-0.324,109.741,39.062,-26.977,1
1.822309,0.904,0.681,-0.317,119.14,38.391,-28.259,1
1.830303,0.874,0.669,-0.305,128.173,37.231,-29.907,1
1.837856,0.852,0.669,-0.299,132.263,37.353,-30.578,1
1.847037,0.835,0.629,-0.32,122.375,38.146,-31.249,1
1.853929,0.833,0.631,-0.303,108.337,39.184,-31.982,1
1.863228,0.827,0.64,-0.303,93.505,39.794,-32.897,1
1.86963,0.817,0.64,-0.297,85.754,39.794,-33.63,1
1.878593,0.826,0.631,-0.288,83.923,39.55,-34.729,1
1.887318,0.858,0.618,-0.276,89.233,38.391,-35.583,1
1.894522,0.861,0.597,-0.262,100.463,37.231,-36.193,1
1.903095,0.887,0.576,-0.254,110.9,36.254,-37.475,1
1.910102,0.885,0.569,-0.229,116.76,36.804,-38.085,1
1.918008,0.901,0.562,-0.227,121.765,37.292,-38.574,1
1.927378,0.908,0.607,-0.192,128.845,37.841,-39.733,1
1.934355,0.89,0.579,-0.208,135.009,38.696,-40.466,1
1.941762,0.878,0.595,-0.188,132.324,40.71,-41.442,1
1.948985,0.869,0.591,-0.208,126.281,41.87,-42.48,1
1.95787,0.861,0.598,-0.223,123.596,43.701,-42.907,1
1.965984,0.886,0.576,-0.254,116.638,43.945,-44.25,1
1.974692,0.884,0.6,-0.25,112.06,44.738,-44.982,1
1.981695,0.916,0.622,-0.277,120.178,44.128,-46.02,1
1.990531,0.889,0.631,-0.251,130.187,44.067,-47.058,1
1.999795,0.887,0.632,-0.267,148.071,44.677,-47.79,1
2.006897,0.898,0.63,-0.261,162.292,43.884,-49.865,1
2.01422,0.863,0.606,-0.245,167.236,46.997,-50.415,1
2.024045,0.851,0.598,-0.259,159.79,48.95,-52.673,1
2.032149,0.814,0.59,-0.24,147.827,53.588,-53.955,1
2.039627,0.807,0.597,-0.28,131.713,57.006,-55.786,1
2.045895,0.768,0.593,-0.277,119.384,59.509,-57.312,1
2.054811,0.765,0.601,-0.312,109.802,62.011,-58.898,1
2.06357,0.744,0.607,-0.328,100.28,62.805,-60.668,1
2.070838,0.741,0.599,-0.336,92.529,63.903,-62.683,1
2.078492,0.746,0.607,-0.338,92.529,63.232,-63.964,1
2.086831,0.77,0.61,-0.348,96.801,63.171,-64.697,1
2.094128,0.811,0.618,-0.4,104.797,60.729,-65.551,1
2.102342,0.82,0.64,-0.404,120.666,57.861,-65.734,1
2.110217,0.823,0.644,-0.415,144.165,54.565,-66.284,1
2.118754,0.844,0.618,-0.416,165.283,51.696,-66.04,1
2.126927,0.854,0.6,-0.409,173.583,50.354,-65.673,1
2.134424,0.864,0.578,-0.399,175.109,49.682,-65.429,1
2.142511,0.86,0.574,-0.378,175.537,49.743,-65.246,1
2.150081,0.869,0.564,-0.381,177.612,49.072,-64.758,1
2.158386,0.835,0.572,-0.363,185.18,48.522,-64.27,1
2.165238,0.82,0.553,-0.38,196.472,46.997,-63.232,1
2.174031,0.808,0.541,-0.372,208.801,45.898,-62.194,1
2.181592,0.811,0.537,-0.363,218.811,45.349,-61.218,1
2.190191,0.801,0.516,-0.339,222.778,45.959,-60.241,1
2.200484,0.785,0.502,-0.336,218.261,48.4,-59.265,1
2.206886,0.77,0.507,-0.321,210.51,51.147,-58.593,1
2.216824,0.745,0.515,-0.335,207.092,53.771,-58.532,1
2.224754,0.723,0.53,-0.333,208.557,56.335,-58.166,1
2.232507,0.723,0.54,-0.372,213.317,58.898,-57.983,1
2.240595,0.727,0.536,-0.417,213.256,61.096,-57.861,1
2.248432,0.735,0.535,-0.456,206.909,63.415,-57.861,1
2.257586,0.741,0.54,-0.459,200.378,66.04,-57.312,1
2.265553,0.746,0.554,-0.491,193.481,68.298,-57.312,1
2.273244,0.727,0.567,-0.5,187.988,69.824,-57.189,1
2.280495,0.679,0.583,-0.532,183.044,72.875,-56.884,1
2.290423,0.641,0.599,-0.56,177.062,74.401,-56.762,1
2.297097,0.584,0.603,-0.6,167.602,78.674,-57.312,1
2.305495,0.556,0.599,-0.675,153.808,80.566,-57.861,1
2.314076,0.544,0.596,-0.679,139.77,82.702,-58.898,1
2.321018,0.559,0.607,-0.685,137.817,82.702,-59.204,1
2.330084,0.568,0.604,-0.677,146.484,81.787,-59.204,1
2.336747,0.584,0.587,-0.703,156.311,80.566,-58.654,1
2.345001,0.588,0.563,-0.72,156.005,79.101,-58.288,1
2.353201,0.586,0.54,-0.728,149.414,78.674,-57.678,1
2.36125,0.579,0.526,-0.729,141.418,78.369,-57.25,1
2.367616,0.558,0.52,-0.717,137.512,77.88,-56.823,1
2.376233,0.534,0.502,-0.722,135.681,77.026,-56.396,1
2.383469,0.513,0.481,-0.729,131.103,76.904,-55.541,1
2.392517,0.512,0.461,-0.736,123.962,76.293,-54.992,1
2.399883,0.53,0.449,-0.731,121.215,75.561,-54.26,1
2.407295,0.549,0.436,-0.737,122.009,74.462,-52.917,1
2.415233,0.57,0.423,-0.749,120.971,73.547,-51.94,1
2.423142,0.566,0.413,-0.749,115.539,73.486,-50.964,1
2.432222,0.569,0.405,-0.75,108.276,72.57,-50.231,1
2.441114,0.555,0.393,-0.736,101.928,71.655,-49.743,1
2.448301,0.573,0.368,-0.716,99.182,70.556,-49.377,1
2.456091,0.58,0.349,-0.688,97.961,70.007,-48.645,1
2.463051,0.597,0.33,-0.691,97.473,69.274,-47.607,1
2.472458,0.61,0.312,-0.684,96.374,68.603,-46.874,1
2.480113,0.628,0.29,-0.69,91.247,68.481,-45.776,1
2.488904,0.621,0.276,-0.689,83.19,68.176,-44.982,1
2.496698,0.595,0.26,-0.678,72.448,68.481,-44.189,1
2.505387,0.579,0.252,-0.67,65.002,68.786,-43.579,1
2.513605,0.569,0.247,-0.664,62.438,68.908,-42.968,1
2.52039,0.567,0.238,-0.653,63.781,68.176,-42.114,1
2.529845,0.55,0.22,-0.646,67.26,67.382,-41.503,1
2.536788,0.547,0.207,-0.638,72.082,66.711,-40.222,1
2.545572,0.56,0.184,-0.634,78.002,65.795,-39.062,1
2.552275,0.62,0.163,-0.632,82.946,65.124,-37.597,1
2.561342,0.662,0.163,-0.652,84.106,64.88,-35.644,1
2.569469,0.702,0.162,-0.666,79.772,64.575,-34.24,1
2.577182,0.712,0.172,-0.694,71.228,64.392,-32.47,1
2.586376,0.704,0.182,-0.708,62.377,63.537,-31.066,1
2.593931,0.706,0.187,-0.715,57.617,62.927,-30.09,1
2.602345,0.696,0.197,-0.724,57.861,61.462,-28.991,1
2.610168,0.687,0.197,-0.723,62.438,59.936,-27.893,1
2.61744,0.687,0.195,-0.73,70.373,58.044,-26.55,1
2.62534,0.692,0.184,-0.74,79.467,56.701,-24.23,1
2.634416,0.69,0.181,-0.758,81.237,55.908,-22.277,1
2.642139,0.699,0.2,-0.775,79.65,55.419,-20.263,1
2.649342,0.691,0.221,-0.804,76.904,54.504,-18.188,1
2.65855,0.697,0.248,-0.816,76.293,53.71,-16.113,1
2.665747,0.723,0.269,-0.857,74.462,52.49,-14.526,1
2.673046,0.736,0.296,-0.885,71.533,50.537,-13.305,1
2.681746,0.738,0.318,-0.915,68.298,49.316,-12.023,1
2.690052,0.737,0.331,-0.928,64.88,47.302,-11.291,1
2.697112,0.722,0.344,-0.941,61.828,45.471,-10.131,1
2.705152,0.688,0.36,-0.948,58.044,43.945,-9.277,1
2.713309,0.684,0.376,-0.956,53.955,41.748,-8.605,1
2.719975,0.659,0.387,-0.964,52.001,39.428,-8.3,1
2.72971,0.619,0.392,-0.956,52.551,37.292,-8.056,1
2.736435,0.581,0.386,-0.956,54.504,34.301,-7.812,1
2.744477,0.556,0.384,-0.945,56.762,32.287,-7.812,1
2.752476,0.535,0.372,-0.939,59.387,29.846,-7.324,1
2.760146,0.515,0.357,-0.921,62.805,27.16,-7.141,1
2.769015,0.535,0.345,-0.906,67.138,25.024,-6.652,1
2.775904,0.595,0.326,-0.905,70.312,23.376,-5.31,1
2.783799,0.673,0.333,-0.911,66.223,22.033,-4.272,1
2.791466,0.709,0.361,-0.933,57.922,20.507,-3.601,1
2.800608,0.701,0.395,-0.939,50.048,19.226,-3.234,1
2.807818,0.712,0.414,-0.939,44.799,17.211,-3.051,1
2.817854,0.736,0.43,-0.938,42.968,14.892,-2.807,1
2.825381,0.727,0.433,-0.933,41.87,12.39,-2.868,1
2.832431,0.708,0.439,-0.915,41.809,10.192,-2.685,1
2.839954,0.685,0.435,-0.903,42.602,7.995,-2.624,1
2.849139,0.658,0.43,-0.887,43.579,5.92,-2.746,1
2.857477,0.651,0.415,-0.863,44.738,4.211,-2.746,1
2.866085,0.662,0.403,-0.846,45.471,2.502,-2.441,1
2.873779,0.679,0.402,-0.831,44.86,1.281,-2.258,1
2.882615,0.696,0.399,-0.817,42.785,0.183,-2.197,1
2.889952,0.717,0.402,-0.807,40.344,-0.915,-2.136,1
2.897073,0.735,0.407,-0.789,38.757,-1.892,-1.953,1
2.90602,0.735,0.412,-0.777,37.78,-3.295,-1.831,1
2.914721,0.767,0.416,-0.765,36.987,-4.455,-1.892,1
2.921122,0.77,0.407,-0.749,35.095,-5.92,-1.708,1
2.930179,0.764,0.405,-0.729,33.264,-6.53,-1.403,1
2.938689,0.759,0.4,-0.704,31.249,-7.629,-1.159,1
2.945665,0.765,0.4,-0.677,31.616,-8.239,-1.342,1
2.956491,0.746,0.393,-0.659,33.02,-9.46,-0.793,1
2.963366,0.734,0.391,-0.631,35.766,-9.765,-0.61,1
2.973024,0.733,0.39,-0.617,39.489,-10.864,-0.366,1
2.980322,0.746,0.396,-0.604,42.846,-11.291,-0.061,1
2.988463,0.758,0.396,-0.595,43.579,-11.779,-0.061,1
2.997801,0.761,0.405,-0.587,42.114,-11.901,-0.061,1
3.00682,0.749,0.414,-0.58,39.184,-12.145,-0.244,1
3.013969,0.754,0.426,-0.569,37.475,-12.451,0.061,1
3.022508,0.752,0.43,-0.559,37.353,-12.756,-0.122,1
3.031176,0.753,0.435,-0.537,38.818,-12.878,-0.244,1
3.040236,0.751,0.437,-0.525,40.649,-13.244,-0.122,1
3.047022,0.747,0.446,-0.505,42.175,-13.122,0.0,1
3.057936,0.755,0.46,-0.493,44.067,-13.122,0.061,1
3.0664,0.755,0.48,-0.481,45.593,-13.061,-0.061,1
3.073187,0.743,0.498,-0.471,45.288,-12.756,-0.61,1
3.080752,0.738,0.512,-0.468,44.555,-12.634,-1.037,1
3.090044,0.747,0.528,-0.454,43.395,-11.962,-1.525,1
3.098405,0.754,0.533,-0.449,41.87,-11.901,-2.197,1
3.105737,0.768,0.542,-0.437,39.733,-11.474,-2.929,1
3.114517,0.777,0.544,-0.429,36.01,-10.925,-3.906,1
3.122868,0.774,0.555,-0.426,34.301,-10.437,-4.455,1
3.131471,0.789,0.565,-0.416,33.569,-10.131,-4.821,1
3.13852,0.79,0.574,-0.395,35.217,-10.07,-5.249,1
3.148714,0.784,0.583,-0.387,38.818,-9.826,-5.615,1
3.15652,0.777,0.587,-0.381,41.503,-9.277,-6.286,1
3.164305,0.759,0.598,-0.373,42.48,-8.789,-6.896,1
3.172642,0.766,0.608,-0.362,41.503,-7.629,-7.507,1
3.182213,0.759,0.613,-0.362,38.818,-6.408,-8.3,1
3.188766,0.751,0.629,-0.373,35.827,-5.187,-9.216,1
3.19748,0.759,0.645,-0.369,31.738,-4.15,-10.498,1
3.206255,0.77,0.648,-0.372,27.404,-3.051,-11.596,1
3.215156,0.778,0.649,-0.377,22.46,-2.258,-13.122,1
3.22369,0.79,0.65,-0.373,18.981,-1.586,-14.404,1
3.232359,0.803,0.66,-0.37,17.028,-0.732,-15.563,1
3.240415,0.821,0.663,-0.359,18.31,-0.122,-16.357,1
3.247031,0.834,0.673,-0.353,20.385,0.427,-17.639,1
3.256685,0.827,0.684,-0.344,22.705,1.037,-18.554,1
3.263414,0.814,0.686,-0.339,23.62,2.197,-19.592,1
3.270347,0.79,0.694,-0.341,22.705,3.051,-20.812,1
3.278955,0.777,0.699,-0.34,20.507,4.211,-21.911,1
3.285538,0.763,0.689,-0.345,15.869,5.859,-23.681,1
3.293574,0.749,0.687,-0.352,12.39,6.896,-24.719,1
3.301078,0.75,0.682,-0.357,8.483,8.3,-26.489,1
3.309866,0.77,0.677,-0.361,7.873,9.277,-27.77,1
3.32023,0.803,0.673,-0.369,9.887,10.131,-29.235,1
3.327482,0.837,0.672,-0.38,14.404,10.253,-30.273,1
3.334043,0.866,0.666,-0.384,18.371,10.864,-31.311,1
3.342846,0.854,0.673,-0.397,19.409,12.084,-32.714,1
3.349855,0.87,0.677,-0.422,18.188,12.451,-33.996,1
3.35922,0.876,0.675,-0.431,15.869,13.854,-35.156,1
3.367896,0.906,0.673,-0.451,11.108,14.77,-36.682,1
3.375279,0.913,0.676,-0.459,6.591,15.869,-38.085,1
3.382234,0.933,0.684,-0.487,1.708,16.967,-39.55,1
3.390987,0.949,0.697,-0.501,-1.831,17.517,-40.771,1
3.400308,0.962,0.71,-0.526,-4.394,18.066,-42.419,1
3.407862,0.97,0.731,-0.549,-6.103,18.066,-44.433,1
3.416846,0.963,0.736,-0.566,-6.591,17.761,-46.02,1
3.424299,0.966,0.737,-0.589,-8.117,16.845,-48.278,1
3.433415,0.947,0.729,-0.59,-14.038,16.357,-50.109,1
3.442639,0.924,0.726,-0.616,-21.484,16.052,-52.307,1
3.451626,0.902,0.724,-0.629,-26.855,14.526,-54.931,1
3.45875,0.895,0.703,-0.653,-28.32,12.512,-57.373,1
3.467699,0.893,0.673,-0.672,-27.648,10.07,-59.265,1
3.474674,0.893,0.643,-0.678,-23.864,6.713,-61.279,1
3.482539,0.892,0.589,-0.685,-21.728,3.967,-62.683,1
3.492268,0.882,0.544,-0.679,-22.399,1.708,-63.964,1
3.500751,0.873,0.5,-0.679,-26.184,-0.61,-64.758,1
3.507805,0.871,0.464,-0.678,-30.151,-2.502,-65.429,1
3.515603,0.872,0.437,-0.665,-33.996,-4.638,-65.795,1
3.52483,0.87,0.412,-0.654,-37.475,-6.53,-65.612,1
3.532911,0.853,0.388,-0.629,-39.672,-8.789,-65.368,1
3.542083,0.853,0.383,-0.591,-34.484,-10.742,-64.697,1
3.550944,0.845,0.383,-0.565,-20.69,-13.061,-64.27,1
3.55831,0.825,0.383,-0.537,-2.319,-14.953,-64.27,1
3.567001,0.809,0.377,-0.53,13.0,-16.845,-64.331,1
3.574493,0.79,0.367,-0.515,25.756,-17.761,-64.697,1
3.583625,0.776,0.347,-0.516,31.066,-18.371,-64.819,1
3.591347,0.763,0.335,-0.519,32.47,-18.859,-65.49,1
3.599199,0.757,0.324,-0.507,32.714,-18.859,-65.673,1
3.606801,0.758,0.308,-0.51,30.517,-18.554,-66.223,1
3.615626,0.765,0.293,-0.501,25.146,-17.761,-66.528,1
3.624731,0.778,0.289,-0.507,15.808,-16.845,-66.772,1
3.631272,0.783,0.293,-0.507,7.873,-16.418,-67.016,1
3.639888,0.783,0.309,-0.499,2.258,-16.601,-67.443,1
3.647974,0.786,0.322,-0.495,2.075,-16.723,-67.871,1
3.65691,0.779,0.321,-0.487,5.004,-17.639,-68.786,1
3.663753,0.81,0.318,-0.486,7.385,-17.944,-69.458,1
3.672672,0.815,0.303,-0.486,8.666,-18.432,-70.129,1
3.681431,0.828,0.291,-0.485,8.178,-18.493,-70.678,1
3.688947,0.831,0.27,-0.495,4.516,-18.615,-71.594,1
3.696266,0.844,0.249,-0.498,-1.831,-18.31,-71.96,1
3.705679,0.86,0.24,-0.503,-9.399,-17.822,-72.387,1
3.712115,0.856,0.244,-0.525,-17.211,-17.272,-72.204,1
3.719984,0.861,0.255,-0.537,-23.376,-17.395,-72.448,1
3.72922,0.857,0.262,-0.551,-28.32,-17.456,-72.692,1
3.73816,0.854,0.266,-0.577,-31.799,-18.615,-73.181,1
3.745842,0.845,0.264,-0.585,-32.348,-19.897,-73.974,1
3.753981,0.837,0.249,-0.594,-32.714,-20.996,-74.401,1
3.761691,0.816,0.223,-0.598,-37.719,-22.033,-75.439,1
3.770654,0.808,0.189,-0.614,-50.537,-22.583,-75.988,1
3.778167,0.795,0.165,-0.618,-67.321,-23.925,-75.988,1
3.787633,0.798,0.17,-0.625,-76.293,-25.085,-75.195,1
3.796764,0.784,0.196,-0.633,-76.538,-28.015,-74.951,1
3.804821,0.78,0.202,-0.626,-64.575,-31.921,-74.768,1
3.815241,0.767,0.208,-0.615,-45.227,-35.949,-75.317,1
3.823026,0.752,0.209,-0.616,-24.902,-38.879,-76.232,1
3.830319,0.743,0.198,-0.62,-8.361,-42.297,-77.514,1
3.840166,0.721,0.179,-0.621,0.976,-44.25,-78.735,1
3.84843,0.709,0.17,-0.634,8.85,-47.058,-79.589,1
3.856155,0.717,0.164,-0.618,17.883,-50.354,-80.2,1
3.86467,0.714,0.164,-0.609,27.282,-52.551,-80.566,1
3.872258,0.705,0.155,-0.602,39.306,-55.053,-81.237,1
3.881814,0.693,0.146,-0.589,50.537,-56.884,-81.787,1
3.889432,0.705,0.112,-0.567,58.593,-58.166,-82.153,1
3.899406,0.716,0.091,-0.554,60.302,-59.02,-82.275,1
3.908798,0.711,0.076,-0.534,55.847,-58.959,-82.763,1
3.915579,0.738,0.092,-0.514,51.513,-60.363,-83.312,1
3.922927,0.791,0.088,-0.467,51.879,-61.401,-84.167,1
3.931619,0.829,0.076,-0.434,54.382,-62.622,-85.51,1
3.938978,0.827,0.071,-0.391,57.617,-63.11,-87.463,1
3.947348,0.813,0.053,-0.354,56.274,-63.964,-88.928,1
3.957733,0.813,0.048,-0.321,49.987,-63.598,-90.393,1
3.964836,0.789,0.048,-0.294,38.513,-62.988,-92.529,1
3.973563,0.791,0.053,-0.282,26.794,-62.194,-94.116,1
3.980438,0.77,0.067,-0.256,13.793,-61.706,-96.008,1
3.988288,0.763,0.083,-0.24,6.286,-60.241,-97.839,1
3.998701,0.748,0.108,-0.234,1.953,-60.241,-99.914,1
4.005923,0.745,0.125,-0.22,4.211,-60.485,-102.966,1
4.015298,0.73,0.136,-0.2,10.559,-61.401,-106.079,1
4.022904,0.716,0.131,-0.19,17.7,-61.645,-109.68,1
4.031768,0.681,0.098,-0.168,19.775,-61.584,-114.196,1
4.039325,0.669,0.089,-0.14,23.193,-62.133,-116.027,1
4.047822,0.67,0.086,-0.11,33.996,-61.828,-119.567,1
4.056709,0.663,0.044,-0.093,37.475,-61.34,-122.924,1
4.065097,0.623,0.008,-0.074,31.494,-58.593,-125.915,1
4.073586,0.64,-0.019,-0.062,15.136,-56.396,-129.15,1
4.082729,0.584,-0.037,-0.028,-2.624,-52.551,-132.812,1
4.092043,0.533,-0.071,-0.022,-20.935,-50.354,-135.375,1
4.100406,0.572,-0.086,0.042,-35.095,-47.18,-137.451,1
4.109405,0.541,-0.092,0.077,-34.24,-45.776,-140.075,1
4.11814,0.477,-0.116,0.158,-17.15,-44.616,-142.517,1
4.12703,0.528,-0.185,0.229,10.986,-43.64,-144.47,1
4.133815,0.558,-0.295,0.303,41.564,-40.649,-145.996,1
4.141811,0.572,-0.415,0.328,56.701,-37.048,-146.057,1
4.150076,0.58,-0.543,0.356,54.992,-30.273,-145.019,1
4.159392,0.591,-0.615,0.36,41.137,-23.254,-143.493,1
4.166996,0.53,-0.658,0.371,22.644,-16.357,-141.784,1
4.175442,0.483,-0.714,0.389,2.807,-9.033,-138.977,1
4.182448,0.406,-0.711,0.425,1.708,-2.746,-135.375,1
4.191597,0.471,-0.763,0.439,16.113,1.647,-132.08,1
4.201004,0.406,-0.851,0.456,25.634,7.08,-127.624,1
4.207716,0.339,-0.937,0.468,26.489,13.671,-122.07,1
4.21624,0.193,-0.979,0.518,27.038,19.897,-116.943,1
4.223179,0.108,-1.024,0.53,32.531,26.611,-111.022,1
4.23187,-0.001,-1.088,0.546,37.536,32.226,-105.163,1
4.239895,-0.069,-1.172,0.548,34.118,39.428,-99.426,1
4.248436,-0.137,-1.272,0.556,17.456,46.63,-93.017,1
4.257616,-0.15,-1.365,0.583,3.173,54.565,-86.914,1
4.266312,-0.172,-1.461,0.595,-10.864,62.194,-79.162,1
4.274107,-0.229,-1.556,0.639,-16.113,70.129,-71.166,1
4.281871,-0.298,-1.657,0.656,-15.686,77.392,-62.561,1
4.29017,-0.375,-1.722,0.66,-11.84,84.106,-54.87,1
4.299205,-0.458,-1.833,0.652,-10.681,91.796,-45.104,1
4.307614,-0.509,-1.95,0.632,-23.62,99.914,-36.499,1
4.317227,-0.676,-2.015,0.611,-48.461,110.534,-25.146,1
4.326287,-0.705,-2.057,0.579,-67.138,120.605,-12.39,1
4.333886,-0.769,-2.095,0.56,-65.307,127.319,-2.746,1
4.34334,-0.849,-2.142,0.551,-57.006,135.131,9.948,1
4.351238,-0.899,-2.222,0.506,-48.828,142.089,23.742,1
4.358484,-0.953,-2.299,0.49,-39.428,147.644,36.376,1
4.366347,-0.998,-2.383,0.466,-24.414,154.113,53.222,1
4.376087,-1.058,-2.455,0.413,-15.014,159.301,68.664,1
4.383571,-1.178,-2.526,0.366,-10.498,165.527,87.402,1
4.393264,-1.273,-2.548,0.324,-4.943,171.508,107.788,1
4.401061,-1.428,-2.554,0.266,2.075,177.856,128.479,1
4.409521,-1.624,-2.52,0.201,7.385,182.617,146.789,1
4.417731,-1.85,-2.449,0.124,17.517,186.584,165.71,1
4.42511,-2.083,-2.35,0.035,47.058,187.927,188.598,1
4.433287,-2.345,-2.267,-0.09,83.007,187.561,212.646,1
4.44236,-2.573,-2.219,-0.191,106.506,185.302,234.313,1
4.449328,-2.831,-2.137,-0.284,122.68,183.227,256.591,1
4.459229,-3.077,-2.036,-0.337,143.371,178.649,283.935,1
4.467258,-3.341,-1.941,-0.416,170.166,172.058,313.293,1
4.475645,-3.565,-1.857,-0.49,194.763,163.818,340.148,1
4.484453,-3.788,-1.773,-0.582,227.783,151.367,373.474,1
4.492377,-4.111,-1.665,-0.706,264.587,136.352,404.052,1
4.500108,-4.422,-1.584,-0.818,313.842,112.915,441.284,1
4.508994,-4.737,-1.509,-0.924,357.666,85.449,480.468,1
4.51589,-5.059,-1.498,-1.029,372.863,57.861,514.77,1
4.524556,-5.466,-1.405,-1.087,374.206,29.724,548.706,1
4.533466,-5.858,-1.398,-1.194,344.238,-3.967,588.134,1
4.540818,-6.443,-1.253,-1.273,295.471,-36.193,624.938,1
4.550455,-7.164,-1.085,-1.3,257.629,-64.025,653.869,1
4.558434,-8.166,-0.929,-1.328,212.036,-94.421,684.57,1
4.566376,-9.238,-0.768,-1.378,177.917,-117.553,709.96,1
4.574367,-10.424,-0.574,-1.438,151.062,-146.118,738.281,1
4.583537,-11.587,-0.426,-1.481,139.892,-177.917,764.709,1
4.590705,-12.871,-0.256,-1.513,140.747,-208.435,786.315,1
4.598803,-14.34,-0.043,-1.475,151.794,-248.229,809.387,1
4.608137,-15.472,0.137,-1.413,169.799,-286.01,826.721,1
4.615836,-15.996,0.416,-1.267,201.843,-334.96,841.796,1
4.625026,-15.999,0.689,-1.098,239.624,-388.183,851.501,1
4.633911,-15.999,0.965,-0.958,261.474,-439.208,854.614,1
4.641399,-15.999,1.184,-0.737,298.278,-502.929,852.6,1
4.649461,-15.999,1.391,-0.413,374.267,-575.561,842.773,1
4.658187,-15.999,1.466,-0.093,457.58,-646.179,826.66,1
4.665359,-15.999,1.539,0.41,544.738,-720.458,801.025,1
4.673108,-15.999,1.515,0.912,656.066,-813.171,759.216,1
4.681081,-15.999,1.723,1.466,776.428,-887.145,707.641,1
4.690154,-15.999,1.887,1.732,893.066,-964.477,636.047,1
4.698646,-15.999,1.873,2.101,1001.586,-1049.438,530.029,1
4.707082,-15.999,1.594,2.541,1074.89,-1110.656,424.194,1
4.714982,-15.999,1.646,2.66,1107.055,-1153.503,289.245,1
4.722314,-15.999,1.771,2.828,1120.91,-1169.128,164.245,1
4.72997,-15.999,1.76,2.782,1128.051,-1148.376,7.568,1
4.739059,-15.999,1.691,2.604,1053.466,-1105.285,-126.708,1
4.747603,-15.999,1.362,2.642,876.281,-1025.207,-258.056,1
4.755786,-15.999,1.148,2.543,700.195,-945.983,-340.698,1
4.762413,-15.999,1.229,2.683,546.02,-868.347,-401.855,1
4.770887,-15.999,1.25,2.761,433.715,-788.452,-446.105,1
4.779408,-15.996,1.193,2.749,374.023,-722.045,-483.459,1
4.78679,-14.873,1.095,2.852,370.056,-658.508,-505.859,1
4.794282,-13.594,0.826,2.715,354.614,-586.608,-525.146,1
4.803491,-12.644,0.615,2.637,329.528,-526.611,-533.935,1
4.811449,-11.734,0.521,2.518,314.27,-472.167,-537.963,1
4.818424,-10.816,0.466,2.447,331.97,-423.217,-539.184,1
4.827717,-10.139,0.37,2.299,387.207,-367.492,-541.076,1
4.837019,-9.46,0.19,2.184,440.429,-311.523,-542.541,1
4.844653,-8.736,-0.08,2.011,465.881,-258.911,-541.442,1
4.852014,-8.126,-0.325,1.867,455.749,-197.143,-537.109,1
4.860048,-7.47,-0.563,1.754,412.353,-144.958,-529.785,1
4.868254,-6.906,-0.795,1.659,320.861,-87.463,-514.953,1
4.876039,-6.257,-0.937,1.536,229.614,-42.907,-499.816,1
4.884311,-5.671,-1.028,1.392,140.014,-9.887,-482.666,1
4.892129,-5.241,-1.021,1.286,72.448,17.272,-461.486,1
4.899896,-4.934,-0.977,1.224,60.791,31.311,-443.237,1
4.908786,-4.752,-0.958,1.21,90.332,42.785,-424.011,1
4.916777,-4.572,-1.033,1.13,130.981,54.504,-404.663,1
4.923743,-4.326,-1.166,1.046,146.484,68.847,-385.681,1
4.931528,-3.953,-1.299,0.947,120.361,87.646,-363.586,1
4.940324,-3.582,-1.352,0.843,74.34,102.844,-345.275,1
4.947022,-3.285,-1.383,0.761,29.296,112.182,-326.721,1
4.955165,-2.994,-1.382,0.738,4.821,118.835,-308.837,1
4.964156,-2.758,-1.331,0.69,-5.432,123.107,-289.001,1
4.972812,-2.569,-1.337,0.668,3.051,122.375,-272.583,1
4.979974,-2.397,-1.343,0.652,21.667,124.45,-252.502,1
4.988309,-2.233,-1.363,0.608,26.672,124.938,-235.9,1
4.995992,-2.033,-1.351,0.582,20.568,127.929,-219.665,1
5.005414,-1.9,-1.313,0.541,11.047,129.211,-202.148,1
5.012974,-1.788,-1.234,0.5,8.239,130.798,-187.255,1
5.020711,-1.605,-1.256,0.379,2.624,127.929,-173.278,1
5.02813,-1.497,-1.256,0.402,-8.789,128.54,-161.437,1
5.03673,-1.212,-1.23,0.339,-24.353,128.601,-147.888,1
5.045011,-1.043,-1.195,0.362,-36.987,127.624,-137.084,1
5.053816,-0.884,-1.164,0.338,-42.175,128.662,-124.511,1
5.061743,-0.659,-1.083,0.333,-33.996,126.708,-113.586,1
5.071111,-0.635,-1.034,0.302,-23.559,127.258,-103.698,1
5.07909,-0.434,-0.966,0.21,-9.582,123.535,-94.36,1
5.087472,-0.316,-0.905,0.159,-2.502,122.253,-84.228,1
5.096367,-0.137,-0.825,0.089,7.385,116.943,-75.622,1
5.103033,-0.01,-0.762,0.061,18.737,113.769,-68.054,1
5.111252,0.071,-0.713,-0.007,26.367,108.337,-61.096,1
5.119069,0.183,-0.664,-0.045,29.846,103.759,-54.443,1
5.128348,0.23,-0.616,-0.095,22.399,98.693,-47.241,1
5.136434,0.279,-0.554,-0.102,16.479,93.444,-42.236,1
5.14486,0.329,-0.516,-0.12,12.451,88.378,-36.987,1
5.151737,0.354,-0.491,-0.119,8.911,83.801,-32.592,1
5.159166,0.435,-0.447,-0.121,8.666,79.65,-27.77,1
5.167471,0.516,-0.399,-0.125,13.0,75.622,-24.291,1
5.176639,0.57,-0.34,-0.132,23.132,71.472,-19.592,1
5.183835,0.597,-0.28,-0.145,30.334,67.138,-16.296,1
5.191758,0.604,-0.243,-0.146,32.287,63.415,-12.878,1
5.199722,0.628,-0.21,-0.16,29.174,61.096,-10.314,1
5.209424,0.66,-0.171,-0.167,25.512,58.593,-7.568,1
5.21726,0.692,-0.14,-0.174,22.583,56.152,-5.554,1
5.225289,0.728,-0.113,-0.188,20.08,53.405,-3.417,1
5.232906,0.759,-0.094,-0.192,18.615,50.781,-1.892,1
5.240836,0.777,-0.08,-0.185,17.639,48.156,-0.549,1
5.249224,0.791,-0.083,-0.183,15.808,45.837,1.098,1
5.256038,0.806,-0.083,-0.177,12.634,43.701,2.258,1
5.265473,0.8,-0.086,-0.167,10.62,42.114,3.54,1
5.27199,0.784,-0.091,-0.146,11.84,39.855,4.882,1
5.280239,0.782,-0.104,-0.129,17.822,37.17,6.652,1
5.286994,0.782,-0.116,-0.108,28.625,34.057,8.178,1
5.295787,0.789,-0.146,-0.075,37.231,31.555,10.07,1
5.302044,0.79,-0.172,-0.05,42.297,30.761,12.512,1
5.310333,0.786,-0.187,-0.039,41.137,30.334,14.77,1
5.317347,0.779,-0.185,-0.016,35.583,30.761,16.967,1
5.327668,0.773,-0.17,-0.013,29.479,31.372,18.737,1
5.334601,0.774,-0.141,0.002,25.085,30.944,21.057,1
5.342072,0.796,-0.106,0.009,28.686,30.212,22.888,1
5.351867,0.814,-0.079,0.022,38.33,28.259,25.268,1
5.359401,0.855,-0.049,0.048,48.034,27.221,27.526,1
5.367168,0.903,-0.034,0.058,53.161,26.184,30.395,1
5.374947,0.933,-0.011,0.065,51.025,26.062,32.714,1
5.383387,0.97,0.028,0.075,45.532,26.733,34.545,1
5.390796,1.006,0.074,0.07,40.222,27.832,36.682,1
5.399037,1.031,0.13,0.062,37.17,28.686,38.818,1
5.40718,1.073,0.194,0.051,36.437,28.686,40.588,1
5.41433,1.104,0.275,0.024,41.809,28.564,41.992,1
5.423331,1.104,0.348,0.017,51.33,26.123,42.785,1
5.430633,1.084,0.429,0.016,65.307,24.475,43.029,1
5.438794,1.064,0.485,0.017,82.763,21.85,42.297,1
5.445902,1.053,0.52,0.017,102.111,18.859,41.381,1
5.453952,1.052,0.544,0.017,113.281,17.028,40.466,1
5.461707,1.031,0.553,0.025,122.07,15.319,39.489,1
5.468362,1.006,0.569,0.039,126.892,15.38,38.269,1
5.475342,0.982,0.577,0.043,124.572,15.991,36.437,1
5.484341,0.969,0.589,0.055,120.3,17.395,34.729,1
5.491448,0.963,0.595,0.051,117.248,18.554,32.897,1
5.501219,0.956,0.592,0.06,116.577,19.653,31.005,1
5.508438,0.958,0.583,0.066,118.347,21.179,29.296,1
5.515515,0.936,0.569,0.067,120.3,21.85,28.381,1
5.524864,0.915,0.547,0.069,121.826,22.949,27.221,1
5.532617,0.888,0.523,0.072,122.863,23.864,26.672,1
5.540487,0.86,0.488,0.065,121.948,25.756,26.55,1
5.548517,0.807,0.458,0.055,120.422,26.733,26.123,1
5.556646,0.773,0.428,0.045,119.079,28.442,26.367,1
5.564359,0.738,0.383,0.026,119.323,29.418,26.55,1
5.571977,0.722,0.341,0.018,121.582,30.029,27.526,1
5.579678,0.702,0.308,0.004,122.375,30.7,28.991,1
5.587707,0.696,0.291,0.0,119.812,31.066,30.578,1
5.595303,0.705,0.292,0.02,117.309,31.555,31.982,1
5.604345,0.734,0.303,0.053,119.079,32.958,33.996,1
5.611166,0.774,0.328,0.061,123.718,34.301,35.034,1
5.619123,0.792,0.358,0.067,130.126,35.461,36.682,1
5.627044,0.791,0.382,0.069,133.544,37.353,37.536,1
5.635537,0.809,0.399,0.06,132.751,39.062,37.902,1
5.642335,0.831,0.408,0.065,126.525,41.137,38.513,1
5.649721,0.841,0.423,0.057,119.445,42.968,38.574,1
5.656983,0.853,0.445,0.065,111.267,44.921,38.696,1
5.664477,0.858,0.467,0.072,105.895,46.264,39.184,1
5.67318,0.869,0.503,0.087,104.919,47.18,39.306,1
5.680843,0.857,0.55,0.115,107.971,48.095,39.367,1
5.687993,0.836,0.59,0.137,112.609,48.583,39.123,1
5.697494,0.797,0.63,0.161,120.788,49.682,39.245,1
5.703738,0.785,0.661,0.16,129.516,50.048,38.94,1
5.710635,0.793,0.671,0.171,133.85,50.964,38.452,1
5.719528,0.809,0.663,0.18,132.629,52.917,38.513,1
5.726607,0.834,0.653,0.187,125.122,55.114,38.574,1
5.733747,0.842,0.66,0.195,115.966,58.898,38.391,1
5.742311,0.833,0.653,0.187,106.506,61.828,38.208,1
5.749435,0.813,0.645,0.205,98.999,65.246,38.146,1
5.757519,0.805,0.638,0.208,93.811,68.664,38.024,1
5.764931,0.786,0.624,0.22,90.576,71.716,38.146,1
5.772288,0.773,0.628,0.221,90.209,74.89,39.062,1
5.780645,0.75,0.636,0.219,92.163,77.636,39.184,1
5.787384,0.709,0.63,0.224,95.825,80.566,39.55,1
5.794396,0.673,0.617,0.217,99.426,83.374,40.1,1
5.802891,0.64,0.599,0.209,102.539,85.937,41.015,1
5.811008,0.602,0.568,0.197,105.468,88.867,41.992,1
5.817961,0.576,0.544,0.195,107.299,90.637,43.334,1
5.825999,0.564,0.512,0.198,108.52,93.322,45.959,1
5.834135,0.533,0.499,0.198,105.712,95.947,48.461,1
5.84216,0.48,0.499,0.205,99.06,97.961,50.72,1
5.848994,0.387,0.486,0.211,83.679,101.257,53.1,1
5.856681,0.384,0.485,0.239,69.702,104.858,54.809,1
5.865384,0.346,0.475,0.238,60.119,108.337,56.64,1
5.872979,0.329,0.466,0.242,56.335,111.45,58.288,1
5.880261,0.29,0.459,0.23,59.875,113.525,59.814,1
5.888153,0.265,0.444,0.214,69.702,114.807,62.194,1
5.896055,0.244,0.416,0.207,82.702,115.844,64.88,1
5.901809,0.24,0.382,0.202,94.604,117.004,67.932,1
5.909969,0.229,0.341,0.187,101.44,119.201,71.777,1
5.917039,0.246,0.304,0.183,99.914,122.131,76.416,1
5.924667,0.225,0.282,0.163,90.82,126.464,81.359,1
5.932127,0.176,0.282,0.144,77.148,130.187,85.937,1
5.941237,0.119,0.297,0.14,64.819,133.911,90.087,1
5.948986,0.078,0.316,0.132,55.358,136.962,94.055,1
5.956426,0.017,0.337,0.139,49.194,140.197,98.449,1
5.965393,-0.027,0.353,0.135,47.485,142.456,102.05,1
5.971973,-0.07,0.366,0.132,49.316,144.592,105.407,1
5.981099,-0.1,0.365,0.128,52.612,145.996,109.252,1
5.989836,-0.12,0.373,0.134,59.02,147.888,113.952,1
5.996989,-0.183,0.395,0.148,66.772,150.39,118.957,1
6.004719,-0.255,0.427,0.145,71.044,153.015,122.863,1
6.013421,-0.317,0.454,0.128,68.542,155.517,126.342,1
6.021116,-0.373,0.505,0.119,60.607,158.386,129.15,1
6.028716,-0.446,0.554,0.113,51.635,161.437,130.859,1
6.038836,-0.499,0.62,0.104,42.48,165.466,132.263,1
6.046331,-0.55,0.677,0.084,35.644,168.64,132.385,1
6.055148,-0.574,0.721,0.071,29.296,171.936,132.629,1
6.062613,-0.585,0.783,0.083,12.817,175.903,132.873,1
6.071213,-0.534,0.832,0.05,3.356,181.152,132.385,1
6.080274,-0.557,0.917,0.058,-8.117,184.265,131.469,1
6.087352,-0.585,0.962,0.032,-14.709,189.697,131.164,1
6.094949,-0.652,1.072,0.015,-16.662,192.016,130.554,1
6.103544,-0.705,1.154,-0.027,-4.943,195.495,129.577,1
6.11317,-0.768,1.284,-0.091,15.624,196.594,128.417,1
6.120519,-0.839,1.359,-0.153,43.884,196.35,127.014,1
6.128466,-0.917,1.429,-0.232,62.438,196.166,126.281,1
6.137504,-0.972,1.488,-0.299,68.176,195.617,125.488,1
6.144752,-1.001,1.542,-0.354,68.298,195.861,124.45,1
6.154407,-1.013,1.581,-0.401,64.514,196.35,123.046,1
6.162466,-1.036,1.627,-0.461,57.312,196.472,120.788,1
6.169836,-1.037,1.658,-0.489,53.283,196.411,118.713,1
6.179084,-1.044,1.693,-0.544,51.452,196.105,115.661,1
6.186751,-1.068,1.729,-0.588,49.621,195.19,112.792,1
6.193461,-1.082,1.751,-0.642,45.898,193.603,108.703,1
6.20209,-1.093,1.759,-0.696,40.466,191.589,104.98,1
6.209906,-1.096,1.761,-0.723,38.574,188.659,101.135,1
6.217369,-1.096,1.744,-0.734,44.616,184.631,97.351,1
6.224698,-1.03,1.695,-0.738,53.771,180.541,93.994,1
6.233882,-1.036,1.646,-0.716,63.72,176.269,91.491,1
6.243058,-0.97,1.614,-0.714,78.063,172.241,90.087,1
6.250867,-0.931,1.586,-0.764,79.772,167.907,88.5,1
6.259448,-0.963,1.619,-0.775,79.65,164.672,86.364,1
6.267029,-1.02,1.635,-0.789,77.575,159.973,83.801,1
6.275189,-0.933,1.592,-0.779,73.364,155.578,81.359,1
6.283029,-0.967,1.582,-0.757,73.73,153.015,79.528,1
6.292171,-0.865,1.512,-0.762,69.458,148.864,77.148,1
6.299205,-0.949,1.476,-0.728,67.932,146.362,75.439,1
6.306322,-0.893,1.429,-0.715,69.641,143.249,74.279,1
6.315145,-0.857,1.385,-0.734,63.476,141.601,73.547,1
6.323483,-0.84,1.376,-0.778,55.419,139.282,71.777,1
6.331145,-0.858,1.419,-0.784,48.706,136.535,70.007,1
6.338079,-0.848,1.437,-0.795,52.612,132.263,67.443,1
6.346874,-0.853,1.436,-0.782,62.683,127.807,65.246,1
6.354039,-0.767,1.369,-0.774,70.739,123.352,63.537,1
6.361321,-0.802,1.342,-0.754,73.974,120.422,62.499,1
6.370085,-0.741,1.306,-0.785,65.246,117.98,61.279,1
6.377755,-0.692,1.299,-0.807,43.09,115.966,59.387,1
6.385939,-0.693,1.355,-0.858,14.892,114.746,57.128,1
6.393338,-0.708,1.375,-0.901,-16.418,112.609,53.1,1
6.402403,-0.686,1.4,-0.93,-36.071,111.572,48.828,1
6.410125,-0.644,1.437,-0.961,-47.18,109.252,43.701,1
6.418535,-0.597,1.416,-0.976,-56.457,105.834,38.024,1
6.426956,-0.587,1.397,-0.975,-54.077,103.149,33.386,1
6.434427,-0.562,1.35,-0.969,-46.02,99.06,28.625,1
6.442618,-0.56,1.287,-0.955,-38.94,95.581,25.39,1
6.451711,-0.555,1.175,-0.951,-35.278,92.712,23.071,1
6.459074,-0.551,1.091,-0.949,-38.33,90.27,21.484,1
6.466576,-0.56,1.027,-0.982,-47.912,88.562,20.324,1
6.475781,-0.587,0.984,-0.999,-61.34,85.388,19.409,1
6.483549,-0.565,0.96,-0.997,-65.185,81.542,18.005,1
6.491767,-0.551,0.937,-0.997,-59.143,76.538,17.028,1
6.498523,-0.562,0.907,-0.977,-45.593,71.411,16.357,1
6.507224,-0.532,0.863,-0.958,-28.991,65.002,16.235,1
6.515402,-0.543,0.811,-0.923,-11.657,58.898,16.357,1
6.523441,-0.57,0.758,-0.898,1.892,53.344,17.456,1
6.530104,-0.526,0.72,-0.879,7.69,48.339,18.798,1
6.537441,-0.524,0.707,-0.856,8.117,43.09,19.958,1
6.546484,-0.534,0.696,-0.809,8.361,37.475,21.667,1
6.553029,-0.52,0.69,-0.773,10.314,32.409,23.376,1
6.562438,-0.511,0.679,-0.72,13.793,27.954,25.146,1
6.570636,-0.512,0.675,-0.668,16.662,23.681,27.221,1
6.577696,-0.522,0.679,-0.617,21.667,18.798,29.663,1
6.58525,-0.544,0.676,-0.569,28.198,14.709,31.127,1
6.593162,-0.553,0.673,-0.528,36.682,9.826,33.325,1
6.601339,-0.569,0.663,-0.486,45.715,5.615,34.79,1
6.610323,-0.574,0.654,-0.449,55.969,2.136,36.621,1
6.617503,-0.592,0.648,-0.416,59.631,-0.854,38.024,1
6.624633,-0.618,0.658,-0.393,57.128,-4.272,39.672,1
6.63409,-0.629,0.683,-0.373,51.513,-6.103,40.527,1
6.641844,-0.644,0.721,-0.351,45.104,-7.995,40.71,1
6.649301,-0.646,0.765,-0.32,40.832,-9.704,40.222,1
6.658809,-0.663,0.791,-0.303,37.048,-12.084,39.978,1
6.666768,-0.675,0.816,-0.275,31.066,-14.221,39.428,1
6.675606,-0.674,0.848,-0.237,26.367,-16.479,38.818,1
6.682573,-0.681,0.858,-0.21,25.695,-18.371,38.146,1
6.691627,-0.692,0.881,-0.174,25.39,-20.507,37.292,1
6.698856,-0.69,0.895,-0.151,25.939,-21.789,36.254,1
6.70646,-0.697,0.856,-0.134,18.005,-22.277,35.766,1
6.71546,-0.626,0.846,-0.075,-3.845,-20.812,36.071,1
6.722252,-0.652,0.904,-0.083,-16.723,-19.287,34.301,1
6.731546,-0.692,0.942,-0.022,-14.465,-20.08,32.775,1
6.738953,-0.662,0.961,-0.006,-7.629,-18.493,31.127,1
6.746901,-0.632,0.967,0.0,-2.502,-19.775,29.418,1
6.755089,-0.635,0.981,0.036,2.502,-18.493,27.832,1
6.764608,-0.64,1.014,0.037,10.009,-18.798,25.939,1
6.772104,-0.654,1.016,0.059,20.08,-18.249,23.925,1
6.778776,-0.622,1.009,0.072,26.855,-17.578,22.521,1
6.787222,-0.62,0.988,0.072,37.902,-16.479,20.751,1
6.794955,-0.629,0.972,0.071,40.832,-15.258,19.714,1
6.805301,-0.62,0.963,0.082,37.414,-13.427,18.554,1
6.813137,-0.6,0.959,0.082,29.418,-10.437,17.517,1
6.820682,-0.603,0.96,0.085,20.324,-8.361,16.418,1
6.829821,-0.59,0.968,0.083,7.385,-5.31,15.624,1
6.837366,-0.579,0.988,0.08,0.488,-3.906,14.587,1
6.845035,-0.572,1.0,0.078,-2.38,-2.502,13.61,1
6.853899,-0.572,1.0,0.07,-4.943,-1.586,12.451,1
6.861019,-0.557,0.995,0.063,-8.911,-0.305,11.352,1
6.869944,-0.551,0.996,0.057,-11.84,0.366,10.009,1
6.877162,-0.556,1.002,0.044,-12.634,0.671,8.666,1
6.885251,-0.551,1.008,0.038,-13.488,1.098,7.568,1
6.893058,-0.535,1.002,0.034,-12.207,1.281,5.92,1
6.90236,-0.524,0.995,0.028,-10.314,1.403,4.394,1
6.911382,-0.522,0.984,0.021,-8.544,1.708,3.295,1
6.917904,-0.519,0.972,0.007,-7.08,1.525,1.647,1
6.926452,-0.524,0.951,0.002,-0.732,1.281,0.305,1
6.934918,-0.548,0.94,-0.016,-3.479,0.732,-0.976,1
6.942977,-0.557,0.941,-0.013,-4.882,0.976,-1.77,1
6.951031,-0.555,0.941,-0.014,-3.723,0.244,-2.624,1
6.959051,-0.569,0.93,-0.014,-1.953,-0.061,-3.479,1
6.968998,-0.57,0.92,-0.016,-1.647,-0.427,-4.028,1
6.975851,-0.572,0.912,-0.017,-2.868,-0.488,-4.882,1
6.984818,-0.581,0.919,-0.019,-3.54,-0.732,-6.042,1
6.993743,-0.59,0.919,-0.013,-4.943,-1.098,-6.774,1
7.001399,-0.595,0.914,-0.008,-9.094,-0.488,-7.934,1
7.008804,-0.598,0.913,-0.012,-13.183,-0.305,-8.728,1
7.017171,-0.62,0.915,-0.008,-16.723,0.183,-9.582,1
7.026725,-0.623,0.91,-0.007,-18.615,0.122,-10.253,1
7.034408,-0.618,0.899,0.002,-19.836,0.122,-11.291,1
7.042361,-0.616,0.9,0.007,-19.592,0.122,-11.779,1
7.049726,-0.621,0.902,0.016,-18.249,0.244,-12.512,1
7.058029,-0.624,0.911,0.02,-16.662,0.305,-12.878,1
7.06725,-0.619,0.93,0.027,-15.075,0.61,-13.305,1
7.074688,-0.625,0.958,0.045,-12.817,0.915,-13.854,1
7.082291,-0.62,0.981,0.06,-13.305,1.281,-14.16,1
7.089984,-0.611,0.992,0.075,-18.066,2.563,-14.343,1
7.098242,-0.604,0.934,0.099,-36.376,4.211,-13.854,1
7.10729,-0.556,1.041,0.129,-50.476,9.399,-15.624,1
7.113032,-0.583,1.104,0.138,-55.847,8.85,-16.357,1
7.122428,-0.571,1.139,0.188,-54.565,12.145,-17.517,1
7.130335,-0.519,1.164,0.186,-56.213,13.0,-18.615,1
7.137181,-0.516,1.188,0.258,-60.485,15.747,-19.958,1
7.145989,-0.515,1.212,0.279,-65.917,18.676,-20.812,1
7.152683,-0.539,1.25,0.316,-72.814,21.85,-22.277,1
7.160402,-0.556,1.294,0.352,-78.857,25.512,-23.559,1
7.16924,-0.577,1.333,0.396,-82.702,28.625,-24.902,1
7.177155,-0.589,1.362,0.427,-83.19,32.287,-26.611,1
7.18596,-0.596,1.399,0.452,-84.106,35.217,-28.137,1
7.192093,-0.611,1.425,0.463,-85.632,38.452,-30.151,1
7.201227,-0.639,1.467,0.479,-85.205,41.076,-32.165,1
7.208867,-0.654,1.496,0.496,-82.58,43.884,-34.79,1
7.21637,-0.635,1.546,0.507,-81.726,47.058,-37.658,1
7.225719,-0.634,1.58,0.513,-82.763,50.476,-41.809,1
7.232966,-0.631,1.622,0.532,-82.336,53.955,-46.508,1
7.242429,-0.618,1.66,0.541,-78.613,57.067,-51.269,1
7.251227,-0.616,1.706,0.556,-73.486,60.363,-56.945,1
7.259182,-0.627,1.75,0.562,-67.077,63.049,-62.316,1
7.2669,-0.601,1.791,0.568,-59.448,66.162,-68.908,1
7.276236,-0.585,1.812,0.56,-56.091,70.007,-75.866,1
7.284067,-0.58,1.841,0.549,-57.067,73.242,-81.359,1
7.291086,-0.58,1.867,0.533,-56.64,76.538,-88.5,1
7.299283,-0.648,1.95,0.525,-46.874,79.711,-95.397,1
7.310086,-0.644,1.948,0.491,-44.128,81.237,-101.867,1
7.316823,-0.646,1.948,0.47,-40.405,85.632,-110.717,1
7.325434,-0.652,1.948,0.444,-42.785,88.928,-119.14,1
7.334743,-0.697,1.952,0.425,-45.41,93.566,-127.807,1
7.343787,-0.729,1.953,0.375,-50.231,96.923,-136.352,1
7.351515,-0.764,1.96,0.349,-54.443,99.975,-143.188,1
7.360255,-0.795,1.995,0.309,-57.312,102.6,-150.939,1
7.366691,-0.849,2.041,0.276,-57.067,104.248,-157.653,1
7.375351,-0.873,2.065,0.208,-56.152,105.346,-164.245,1
7.38213,-0.934,2.101,0.168,-58.837,106.14,-171.569,1
7.391054,-1.0,2.145,0.106,-55.847,106.811,-177.734,1
7.399942,-0.979,2.177,0.038,-59.753,105.59,-185.241,1
7.4107,-1.068,2.23,-0.007,-56.945,106.018,-192.199,1
7.417997,-1.037,2.202,-0.08,-64.575,103.759,-199.768,1
7.427042,-1.143,2.238,-0.119,-70.983,104.797,-206.603,1
7.434043,-1.13,2.245,-0.187,-87.097,102.6,-214.904,1
7.443135,-1.174,2.244,-0.222,-101.135,101.013,-223.51,1
7.450218,-1.256,2.25,-0.291,-113.525,98.388,-230.773,1
7.460425,-1.294,2.226,-0.366,-119.079,93.627,-239.746,1
7.467321,-1.32,2.189,-0.434,-124.999,87.341,-248.657,1
7.476904,-1.365,2.155,-0.491,-128.051,82.458,-255.187,1
7.483764,-1.374,2.101,-0.551,-127.929,75.5,-261.413,1
7.492,-1.394,2.039,-0.589,-128.479,68.237,-268.005,1
7.501574,-1.467,1.998,-0.651,-124.694,61.401,-272.644,1
7.508933,-1.435,1.932,-0.68,-124.633,52.368,-278.137,1
7.517412,-1.435,1.863,-0.711,-119.506,44.006,-282.47,1
7.524784,-1.437,1.778,-0.752,-112.365,34.179,-286.132,1
7.533243,-1.43,1.7,-0.775,-104.858,26.794,-289.001,1
7.542176,-1.502,1.685,-0.804,-90.698,19.042,-291.503,1
7.550855,-1.469,1.605,-0.858,-68.542,8.361,-294.494,1
7.558873,-1.483,1.512,-0.88,-51.33,1.525,-296.02,1
7.56756,-1.574,1.473,-0.9,-40.405,-6.286,-298.095,1
7.576533,-1.531,1.377,-0.895,-34.973,-12.634,-299.621,1
7.584852,-1.48,1.279,-0.864,-40.893,-17.883,-300.476,1
7.594253,-1.449,1.181,-0.825,-46.447,-21.24,-300.72,1
7.601169,-1.399,1.081,-0.775,-52.673,-26.428,-300.354,1
7.61045,-1.345,0.992,-0.729,-57.25,-30.944,-299.926,1
7.618849,-1.303,0.884,-0.683,-55.969,-36.132,-298.217,1
7.627786,-1.25,0.773,-0.635,-49.56,-40.527,-296.02,1
7.634829,-1.194,0.679,-0.61,-40.161,-45.227,-292.968,1
7.643749,-1.141,0.573,-0.579,-32.714,-49.316,-289.794,1
7.650729,-1.094,0.47,-0.544,-33.508,-51.269,-286.56,1
7.660298,-1.035,0.37,-0.507,-40.954,-52.429,-282.775,1
7.669138,-0.971,0.293,-0.475,-54.626,-52.734,-277.832,1
7.67864,-0.919,0.224,-0.438,-69.824,-54.321,-272.521,1
7.685225,-0.873,0.177,-0.406,-81.848,-55.053,-267.15,1
7.6946,-0.78,0.122,-0.375,-90.82,-57.006,-261.474,1
7.701777,-0.708,0.081,-0.348,-93.139,-58.41,-256.103,1
7.711079,-0.629,0.057,-0.34,-89.66,-61.096,-250.061,1
7.719421,-0.548,0.037,-0.334,-81.787,-64.147,-244.995,1
7.728123,-0.507,0.025,-0.329,-66.528,-67.016,-239.135,1
7.736827,-0.472,-0.002,-0.335,-48.278,-70.434,-233.398,1
7.745671,-0.442,-0.023,-0.313,-29.541,-72.814,-228.149,1
7.754487,-0.419,-0.039,-0.311,-14.831,-73.852,-223.937,1
7.761921,-0.381,-0.073,-0.295,2.258,-74.218,-218.749,1
7.770724,-0.347,-0.098,-0.292,10.009,-73.303,-214.965,1
7.779609,-0.327,-0.13,-0.299,12.084,-72.021,-211.303,1
7.788067,-0.295,-0.153,-0.294,9.216,-70.251,-207.153,1
7.796546,-0.24,-0.157,-0.303,3.906,-68.725,-203.186,1
7.804551,-0.19,-0.168,-0.297,-0.061,-67.749,-199.645,1
7.81327,-0.169,-0.172,-0.291,-2.258,-66.894,-196.838,1
7.822354,-0.144,-0.165,-0.271,-1.525,-66.162,-194.152,1
7.831442,-0.139,-0.167,-0.26,1.586,-65.612,-191.65,1
7.839432,-0.154,-0.173,-0.227,4.638,-64.636,-189.086,1
7.848365,-0.13,-0.191,-0.221,6.896,-63.293,-186.706,1
7.856933,-0.061,-0.214,-0.186,7.69,-60.302,-184.631,1
7.865736,-0.029,-0.227,-0.178,0.732,-57.617,-183.044,1
7.873286,-0.027,-0.256,-0.163,-9.216,-54.443,-181.152,1
7.88189,0.017,-0.291,-0.144,-22.033,-52.246,-179.26,1
7.891322,0.079,-0.316,-0.134,-39.611,-49.316,-176.696,1
7.898476,0.168,-0.335,-0.114,-54.199,-47.79,-173.645,1
7.906734,0.204,-0.333,-0.104,-67.26,-46.264,-170.104,1
7.915091,0.244,-0.338,-0.083,-74.646,-45.959,-166.503,1
7.92387,0.326,-0.348,-0.071,-80.749,-45.227,-164.184,1
7.932043,0.311,-0.353,-0.06,-91.979,-44.006,-161.804,1
7.941323,0.281,-0.356,-0.05,-103.332,-42.724,-159.667,1
7.949533,0.288,-0.376,-0.035,-112.243,-42.419,-158.569,1
7.958421,0.29,-0.407,-0.013,-121.398,-40.71,-157.104,1
7.967198,0.316,-0.43,-0.012,-127.502,-40.832,-155.029,1
7.976204,0.329,-0.437,0.013,-125.732,-41.442,-153.015,1
7.984818,0.31,-0.461,0.021,-120.971,-42.724,-150.756,1
7.993834,0.289,-0.506,0.006,-121.765,-43.212,-148.498,1
8.000777,0.2,-0.516,0.0,-126.647,-44.006,-146.118,1
8.009164,0.227,-0.545,0.01,-124.633,-44.006,-144.653,1
8.018232,0.25,-0.604,0.003,-124.389,-44.433,-142.15,1
8.026234,0.229,-0.639,-0.006,-124.633,-45.043,-139.709,1
8.034637,0.204,-0.65,0.01,-115.417,-46.813,-136.84,1
8.041691,0.17,-0.671,0.033,-97.29,-48.522,-134.277,1
8.050053,0.134,-0.705,0.051,-76.049,-51.147,-131.774,1
8.057821,0.05,-0.748,0.087,-47.241,-52.856,-128.601,1
8.066731,0.024,-0.787,0.109,-26.0,-54.199,-125.61,1
8.075503,-0.057,-0.86,0.134,-19.409,-52.917,-122.314,1
8.08401,-0.133,-0.926,0.154,-30.029,-50.659,-118.713,1
8.092834,-0.146,-0.971,0.196,-40.832,-48.95,-115.844,1
8.101046,-0.194,-1.023,0.264,-46.02,-47.119,-111.755,1
8.109802,-0.126,-1.104,0.322,-41.32,-45.959,-106.628,1
8.117915,-0.127,-1.192,0.409,-26.367,-44.067,-101.257,1
8.127206,-0.147,-1.265,0.474,-12.145,-41.381,-96.74,1
8.135357,-0.171,-1.361,0.561,1.22,-37.536,-91.003,1
8.143052,-0.178,-1.449,0.641,14.648,-32.348,-84.35,1
8.150625,-0.198,-1.552,0.723,24.719,-26.123,-76.599,1
8.158984,-0.209,-1.615,0.794,34.729,-19.47,-69.58,1
8.165485,-0.183,-1.706,0.847,41.687,-12.756,-62.194,1
8.17352,-0.176,-1.804,0.906,38.208,-4.455,-53.649,1
8.181485,-0.13,-1.896,0.972,25.634,5.493,-44.677,1
8.190225,-0.215,-1.944,1.051,10.375,16.357,-34.545,1
8.197569,-0.272,-1.976,1.084,4.028,28.686,-22.583,1
8.205721,-0.28,-1.992,1.139,8.544,37.231,-11.413,1
8.213394,-0.356,-2.041,1.177,16.845,47.912,0.427,1
8.221788,-0.458,-2.06,1.196,18.066,59.448,14.587,1
8.229143,-0.512,-2.081,1.211,15.991,71.411,27.099,1
8.237937,-0.632,-2.155,1.206,6.347,81.665,39.855,1
8.247054,-0.833,-2.158,1.247,-31.127,98.693,55.114,1
8.256108,-0.905,-2.066,1.247,-56.701,115.966,68.786,1
8.263504,-1.111,-2.028,1.27,-44.86,129.516,82.58,1
8.272756,-1.232,-2.048,1.259,-32.592,142.272,95.52,1
8.279702,-1.37,-2.044,1.228,-28.747,157.47,111.877,1
8.288807,-1.488,-2.014,1.2,-21.423,170.654,126.037,1
8.29836,-1.617,-1.96,1.144,-2.563,183.593,143.188,1
8.305399,-1.812,-1.919,1.082,20.08,194.58,159.118,1
8.312803,-1.957,-1.873,1.005,42.541,206.176,178.466,1
8.321875,-2.166,-1.837,0.937,55.541,216.247,195.8,1
8.329186,-2.386,-1.807,0.854,61.767,226.135,213.439,1
8.338221,-2.698,-1.769,0.78,54.809,238.403,234.619,1
8.34488,-3.039,-1.73,0.705,47.363,249.328,252.868,1
8.353849,-3.387,-1.711,0.638,38.452,259.521,271.606,1
8.361403,-3.746,-1.68,0.567,20.446,271.667,290.893,1
8.369678,-4.17,-1.605,0.475,-26.733,289.794,316.223,1
8.377749,-4.531,-1.536,0.399,-50.903,304.443,335.205,1
8.386015,-4.82,-1.49,0.371,-56.396,319.58,354.919,1
8.394893,-5.217,-1.436,0.259,-45.654,336.608,378.662,1
8.401762,-5.591,-1.383,0.208,-33.996,350.707,401.0,1
8.411183,-6.113,-1.334,0.122,-18.005,365.234,425.903,1
8.419695,-6.69,-1.228,0.078,14.709,380.187,457.031,1
8.428658,-7.421,-1.149,-0.016,51.33,391.662,486.511,1
8.437584,-8.465,-1.04,-0.148,86.486,402.954,523.925,1
8.444966,-9.472,-0.883,-0.328,128.051,410.278,562.927,1
8.453552,-10.365,-0.758,-0.457,176.879,408.203,605.102,1
8.462307,-11.481,-0.621,-0.604,224.609,400.207,644.836,1
8.471569,-12.5,-0.506,-0.734,279.907,381.408,695.251,1
8.478006,-13.807,-0.359,-0.937,327.087,353.271,749.084,1
8.487828,-15.134,-0.102,-1.048,367.858,313.842,803.344,1
8.495075,-15.999,0.216,-1.056,410.522,262.084,856.323,1
8.502357,-15.999,0.515,-1.038,453.124,210.388,901.0,1
8.511189,-15.999,0.803,-1.092,490.112,148.62,941.467,1
8.519949,-15.999,1.098,-1.208,494.079,67.749,983.642,1
8.528098,-15.999,1.375,-1.031,485.9,-6.225,1014.343,1
8.536473,-15.999,1.686,-0.757,499.267,-85.937,1045.959,1
8.544567,-15.999,2.028,-0.654,532.836,-181.762,1067.932,1
8.554738,-15.999,2.334,-0.419,592.651,-272.705,1077.087,1
8.562667,-15.999,2.651,0.002,725.219,-417.968,1073.364,1
8.569108,-15.999,2.873,0.487,882.69,-551.696,1051.452,1
8.577082,-15.999,2.831,1.196,1032.897,-677.123,1016.479,1
8.583888,-15.999,2.838,2.145,1226.013,-832.519,944.946,1
8.592695,-15.999,2.954,2.985,1402.587,-1002.685,806.64,1
8.60161,-15.999,2.658,3.566,1429.016,-1122.253,643.981,1
8.609116,-15.999,2.174,3.589,1293.151,-1190.429,444.03,1
8.618116,-15.999,2.106,3.791,1083.068,-1195.068,297.607,1
8.625121,-15.999,2.428,3.882,997.314,-1182.739,170.288,1
8.63415,-15.999,2.576,3.647,1039.733,-1152.771,20.141,1
8.641296,-15.999,2.264,3.226,1042.602,-1101.196,-135.375,1
8.651406,-15.999,1.754,3.104,970.886,-1030.09,-255.126,1
8.658668,-15.999,1.062,2.72,819.03,-924.011,-362.487,1
8.667882,-15.999,0.872,2.491,658.081,-840.27,-426.94,1
8.676869,-15.448,0.855,2.542,497.314,-744.445,-475.28,1
8.683455,-14.154,0.807,2.319,390.38,-665.161,-504.516,1
8.693881,-13.065,0.714,2.164,325.256,-605.468,-519.348,1
8.701421,-12.128,0.691,2.161,259.399,-542.724,-528.198,1
8.71048,-11.346,0.611,2.086,210.571,-483.215,-530.151,1
8.717863,-10.422,0.481,1.936,167.846,-434.326,-527.465,1
8.726023,-9.594,0.396,1.926,144.287,-400.329,-522.583,1
8.733179,-8.93,0.324,1.833,131.103,-361.022,-512.756,1
8.741175,-8.312,0.239,1.75,150.939,-325.5,-498.107,1
8.751028,-7.746,0.186,1.709,194.091,-298.645,-486.206,1
8.75884,-7.018,0.007,1.653,236.267,-259.338,-473.815,1
8.767402,-6.277,-0.212,1.5,223.083,-219.482,-462.158,1
8.775182,-5.596,-0.357,1.438,183.715,-185.18,-450.439,1
8.783345,-5.051,-0.414,1.348,138.916,-151.062,-435.119,1
8.792683,-4.535,-0.435,1.308,118.164,-126.525,-420.776,1
8.800866,-4.126,-0.482,1.235,117.248,-102.233,-404.541,1
8.808831,-3.822,-0.514,1.229,132.08,-82.458,-390.624,1
8.817762,-3.529,-0.583,1.143,142.517,-60.913,-374.145,1
8.825414,-3.327,-0.635,1.124,144.165,-39.428,-356.811,1
8.8332,-3.133,-0.7,1.014,132.141,-20.08,-339.782,1
8.842428,-2.956,-0.724,0.979,115.966,-4.15,-325.378,1
8.851286,-2.822,-0.73,0.914,93.383,8.728,-310.913,1
8.859127,-2.619,-0.759,0.872,76.416,21.972,-294.677,1
8.867987,-2.427,-0.784,0.826,59.997,32.958,-279.418,1
8.875352,-2.248,-0.817,0.798,48.095,41.687,-266.479,1
8.883532,-2.028,-0.872,0.755,32.165,50.415,-252.136,1
8.892022,-1.811,-0.916,0.718,19.104,57.312,-239.929,1
8.901108,-1.624,-0.929,0.675,7.141,63.354,-226.318,1
8.908858,-1.465,-0.916,0.627,1.77,68.054,-213.562,1
8.91697,-1.351,-0.899,0.579,-0.183,70.922,-202.819,1
8.926192,-1.26,-0.88,0.538,-3.234,73.73,-190.917,1
8.933269,-1.179,-0.852,0.493,-7.751,75.134,-180.969,1
8.941987,-1.109,-0.802,0.458,-13.427,75.866,-170.227,1
8.949647,-1.034,-0.775,0.43,-18.31,76.171,-162.17,1
8.95824,-0.927,-0.767,0.41,-20.69,75.866,-154.357,1
8.966513,-0.805,-0.79,0.398,-22.216,76.11,-145.324,1
8.973157,-0.645,-0.802,0.382,-26.306,76.965,-137.512,1
8.982799,-0.554,-0.8,0.361,-32.104,77.392,-130.249,1
8.990024,-0.486,-0.783,0.345,-38.452,77.331,-121.765,1
8.999257,-0.371,-0.755,0.323,-39.978,76.293,-114.135,1
9.008661,-0.25,-0.76,0.312,-37.109,75.439,-106.872,1
9.016681,-0.116,-0.755,0.295,-33.081,74.523,-100.891,1
9.024276,-0.028,-0.753,0.274,-26.55,73.12,-95.458,1
9.033231,0.073,-0.759,0.256,-17.944,71.289,-91.308,1
9.040719,0.14,-0.771,0.255,-5.554,69.58,-87.097,1
9.049719,0.229,-0.794,0.217,4.699,68.237,-82.031,1
9.057495,0.212,-0.798,0.197,9.338,66.223,-77.209,1
9.064768,0.201,-0.787,0.181,9.887,64.208,-71.655,1
9.072522,0.19,-0.774,0.17,10.742,60.913,-65.429,1
9.079664,0.246,-0.782,0.179,10.498,58.532,-60.241,1
9.086739,0.286,-0.788,0.183,8.117,56.762,-55.725,1
9.093946,0.302,-0.784,0.187,5.615,54.443,-50.72,1
9.101856,0.338,-0.774,0.205,7.873,51.818,-45.654,1
9.110987,0.374,-0.776,0.22,16.113,48.522,-40.954,1
9.119255,0.412,-0.774,0.229,28.991,44.799,-35.583,1
9.128139,0.428,-0.782,0.223,37.902,41.381,-30.944,1
9.13482,0.433,-0.783,0.222,40.466,39.001,-27.038,1
9.142211,0.477,-0.771,0.219,45.837,36.132,-22.888,1
9.151275,0.548,-0.787,0.195,50.231,34.057,-19.531,1
9.158397,0.591,-0.782,0.159,50.109,31.799,-15.319,1
9.167283,0.628,-0.751,0.139,51.391,28.198,-10.925,1
9.174691,0.666,-0.707,0.126,61.95,23.925,-6.835,1
9.182467,0.69,-0.654,0.113,82.458,18.188,-2.502,1
9.190913,0.7,-0.619,0.094,97.717,13.122,1.159,1
9.198219,0.699,-0.585,0.076,106.689,8.666,4.211,1
9.205187,0.694,-0.549,0.062,110.717,4.821,7.446,1
9.212872,0.689,-0.502,0.057,113.037,1.159,10.192,1
9.222274,0.706,-0.471,0.051,115.478,-2.075,12.817,1
9.230907,0.736,-0.454,0.043,115.783,-6.347,16.235,1
9.237727,0.79,-0.422,0.049,116.027,-9.216,18.676,1
9.245531,0.822,-0.382,0.052,118.713,-13.244,22.094,1
9.254798,0.836,-0.342,0.05,123.84,-16.662,24.047,1
9.262875,0.838,-0.295,0.049,129.211,-21.423,26.062,1
9.270426,0.893,-0.267,0.063,135.498,-24.475,28.259,1
9.278266,0.885,-0.234,0.073,139.648,-28.381,30.029,1
9.286845,0.873,-0.191,0.086,142.639,-30.395,31.005,1
9.297274,0.833,-0.155,0.081,142.944,-33.142,31.433,1
9.305769,0.839,-0.127,0.091,141.784,-35.217,31.372,1
9.314174,0.839,-0.122,0.078,139.343,-36.926,31.249,1
9.321344,0.866,-0.114,0.074,137.512,-38.818,31.249,1
9.33088,0.873,-0.113,0.057,133.728,-41.687,31.555,1
9.338049,0.888,-0.102,0.061,132.385,-43.579,32.104,1
9.34697,0.924,-0.083,0.065,134.46,-46.325,32.592,1
9.355244,0.948,-0.047,0.075,141.296,-49.499,32.836,1
9.365043,0.939,-0.02,0.084,151.489,-52.551,31.921,1
9.371937,0.941,-0.015,0.092,158.935,-55.664,31.372,1
9.381036,0.953,-0.012,0.122,168.762,-58.105,30.212,1
9.390155,0.981,-0.019,0.132,175.231,-60.852,30.334,1
9.397473,0.963,-0.027,0.141,174.011,-63.11,31.066,1
9.405957,0.921,-0.002,0.164,167.175,-65.185,31.616,1
9.41294,0.933,0.006,0.187,160.034,-66.345,31.677,1
9.421652,0.995,0.013,0.213,154.052,-67.077,31.555,1
9.430206,1.084,0.012,0.221,150.024,-67.932,30.761,1
9.437297,1.186,0.002,0.23,148.681,-68.115,29.846,1
9.447605,1.284,0.001,0.223,149.047,-68.42,28.564,1
9.456144,1.374,-0.006,0.213,151.855,-69.274,26.184,1
9.462784,1.408,-0.012,0.206,154.479,-69.946,23.986,1
9.471946,1.422,-0.047,0.198,154.052,-69.641,21.85,1
9.480656,1.431,-0.089,0.187,147.583,-69.335,20.446,1
9.487638,1.438,-0.117,0.182,131.713,-67.687,18.798,1
9.498205,1.402,-0.112,0.179,117.614,-67.138,18.066,1
9.504961,1.337,-0.103,0.181,109.069,-66.894,16.052,1
9.513705,1.329,-0.101,0.183,109.863,-67.932,14.709,1
9.520416,1.281,-0.115,0.183,112.67,-68.725,13.793,1
9.529254,1.219,-0.123,0.183,115.356,-69.641,13.061,1
9.538321,1.163,-0.132,0.18,118.469,-70.434,12.329,1
9.546897,1.127,-0.15,0.194,122.619,-71.228,11.962,1
9.553691,1.129,-0.169,0.198,127.929,-72.265,10.925,1
9.562539,1.081,-0.189,0.21,129.76,-72.631,10.192,1
9.569307,0.916,-0.204,0.191,121.215,-70.739,10.253,1
9.577578,1.111,-0.188,0.162,116.394,-73.059,8.422,1
9.586807,1.049,-0.224,0.212,114.196,-72.326,7.69,1
9.594792,1.042,-0.245,0.196,111.145,-72.875,7.568,1
9.60172,1.0,-0.25,0.213,108.581,-72.326,7.507,1
9.609915,0.963,-0.225,0.207,109.741,-71.899,7.568,1
9.618707,0.977,-0.241,0.187,109.619,-72.265,6.713,1
9.625412,0.82,-0.238,0.215,110.107,-71.533,7.019,1
9.632971,0.944,-0.245,0.171,113.342,-70.983,6.164,1
9.641014,0.87,-0.255,0.193,115.173,-72.692,5.615,1
9.65075,0.915,-0.266,0.169,119.14,-72.57,5.065,1
9.658226,0.892,-0.278,0.221,122.924,-74.157,4.943,1
9.667192,0.926,-0.288,0.22,135.62,-73.974,5.493,1
9.674575,0.999,-0.3,0.225,149.719,-78.308,4.577,1
9.683091,1.012,-0.344,0.282,162.17,-78.002,4.577,1
9.690896,0.94,-0.373,0.262,160.827,-79.162,4.211,1
9.70005,0.919,-0.374,0.286,151.916,-76.11,3.601,1
9.707544,0.93,-0.405,0.273,134.826,-76.477,3.112,1
9.716767,0.943,-0.426,0.297,120.239,-73.791,2.99,1
9.724415,0.933,-0.427,0.282,102.05,-72.753,3.234,1
9.733941,0.896,-0.412,0.311,92.59,-70.678,3.906,1
9.742275,0.94,-0.404,0.304,92.224,-70.617,4.638,1
9.749933,0.954,-0.395,0.324,99.06,-70.861,5.187,1
9.759028,0.962,-0.403,0.333,106.689,-72.692,5.554,1
9.766249,0.916,-0.414,0.374,110.412,-72.082,5.737,1
9.775054,0.865,-0.418,0.368,105.346,-71.105,5.249,1
9.781825,0.82,-0.429,0.388,91.857,-68.725,4.577,1
9.790189,0.805,-0.437,0.394,73.303,-65.917,3.784,1
9.797232,0.789,-0.447,0.408,53.649,-63.659,3.479,1
9.805551,0.769,-0.444,0.416,36.499,-60.729,3.601,1
9.814574,0.778,-0.458,0.412,22.46,-58.837,4.089,1
9.821731,0.762,-0.457,0.409,9.765,-57.373,5.126,1
9.8318,0.756,-0.448,0.414,4.699,-55.969,6.469,1
9.837065,0.754,-0.435,0.41,6.958,-56.091,7.385,1
9.845749,0.751,-0.425,0.42,14.282,-55.908,7.629,1
9.85493,0.746,-0.431,0.428,22.094,-56.091,7.751,1
9.862576,0.744,-0.423,0.448,32.165,-56.152,8.117,1
9.87164,0.744,-0.413,0.457,40.954,-55.603,7.934,1
9.880867,0.748,-0.415,0.466,47.302,-54.748,7.385,1
9.889129,0.705,-0.429,0.47,49.804,-52.673,6.835,1
9.89638,0.67,-0.437,0.468,44.921,-50.659,6.347,1
9.904519,0.664,-0.462,0.484,34.484,-47.912,6.958,1
9.91358,0.682,-0.473,0.491,22.583,-45.227,7.568,1
9.921293,0.683,-0.483,0.504,9.338,-43.09,8.239,1
9.930092,0.742,-0.499,0.52,-2.441,-40.405,8.911,1
9.940422,0.804,-0.541,0.535,-14.831,-38.208,9.216,1
9.948745,0.826,-0.558,0.548,-36.01,-34.362,9.948,1
9.957906,0.859,-0.577,0.576,-47.18,-32.714,10.925,1
9.96653,0.85,-0.579,0.619,-51.757,-28.259,12.451,1
9.974308,0.814,-0.595,0.622,-52.856,-26.489,13.732,1
9.983707,0.757,-0.617,0.654,-54.687,-22.338,15.075,1
9.991028,0.731,-0.641,0.665,-62.255,-18.554,16.662,1
