timestamp_s,ax,ay,az,gx,gy,gz,label
0.006579,0.485,0.572,-0.734,62.988,-21.728,-17.15,1
0.013238,0.478,0.585,-0.727,81.97,-26.428,-18.127,1
0.022087,0.514,0.595,-0.703,106.201,-30.822,-18.798,1
0.029156,0.557,0.578,-0.681,125.061,-34.423,-18.92,1
0.036051,0.59,0.565,-0.651,138.488,-36.499,-18.676,1
0.043477,0.602,0.551,-0.611,141.723,-37.78,-18.31,1
0.052207,0.605,0.557,-0.562,134.948,-37.78,-18.066,1
0.059034,0.612,0.571,-0.51,120.483,-37.109,-17.456,1
0.066577,0.619,0.573,-0.462,104.919,-35.949,-17.333,1
0.074755,0.622,0.571,-0.424,84.777,-34.118,-17.028,1
0.082994,0.632,0.582,-0.383,67.138,-31.921,-16.601,1
0.089144,0.645,0.543,-0.392,49.682,-29.479,-16.296,1
0.097184,0.639,0.565,-0.375,31.188,-28.015,-14.953,1
0.105583,0.636,0.518,-0.395,18.005,-26.245,-13.671,1
0.112592,0.627,0.502,-0.403,5.004,-26.062,-11.84,1
0.120944,0.63,0.486,-0.415,-5.554,-24.658,-10.07,1
0.127817,0.615,0.492,-0.416,-15.38,-24.169,-8.544,1
0.134747,0.626,0.5,-0.397,-23.315,-23.193,-7.141,1
0.144388,0.633,0.521,-0.386,-27.526,-22.521,-5.859,1
0.152201,0.638,0.534,-0.37,-27.832,-21.972,-5.065,1
0.160207,0.647,0.537,-0.352,-26.916,-21.179,-4.272,1
0.169002,0.654,0.542,-0.33,-26.489,-20.385,-3.417,1
0.176714,0.645,0.535,-0.321,-27.954,-19.287,-2.502,1
0.184847,0.653,0.532,-0.307,-31.555,-18.249,-1.708,1
0.191508,0.638,0.536,-0.294,-34.606,-16.723,-0.854,1
0.199567,0.629,0.539,-0.287,-34.118,-15.502,0.0,1
0.20615,0.634,0.534,-0.289,-30.7,-14.404,1.037,1
0.213092,0.639,0.533,-0.296,-26.733,-13.305,1.77,1
0.221552,0.649,0.539,-0.297,-23.925,-12.268,2.319,1
0.228219,0.652,0.551,-0.29,-22.888,-10.681,2.563,1
0.236293,0.651,0.554,-0.283,-24.536,-8.911,2.258,1
0.243204,0.652,0.551,-0.276,-26.977,-7.446,2.441,1
0.251555,0.656,0.544,-0.265,-30.639,-5.615,3.051,1
0.258219,0.677,0.552,-0.265,-32.47,-3.601,4.211,1
0.265377,0.698,0.566,-0.27,-32.165,-1.647,5.371,1
0.273926,0.711,0.578,-0.287,-28.747,0.0,7.019,1
0.280432,0.724,0.589,-0.303,-21.606,1.77,8.483,1
0.28889,0.755,0.645,-0.34,-10.986,2.685,8.605,1
0.296734,0.743,0.702,-0.402,-3.112,2.014,7.08,1
0.303925,0.743,0.701,-0.421,-2.136,0.793,5.981,1
0.312202,0.783,0.697,-0.441,-4.638,0.915,5.554,1
0.318804,0.788,0.709,-0.475,-9.216,0.549,5.065,1
0.325783,0.785,0.736,-0.471,-13.122,0.061,4.394,1
0.332955,0.789,0.775,-0.466,-16.235,0.427,3.295,1
0.341681,0.807,0.839,-0.478,-19.714,0.549,1.892,1
0.348808,0.816,0.915,-0.488,-23.193,0.122,-0.183,1
0.356723,0.842,0.98,-0.52,-23.01,-0.854,-2.99,1
0.36297,0.894,1.035,-0.558,-17.395,-2.929,-5.859,1
0.372673,0.932,1.065,-0.589,-9.094,-4.516,-8.422,1
0.379325,0.951,1.095,-0.656,-2.319,-6.347,-12.268,1
0.388086,0.975,1.097,-0.723,0.61,-8.178,-15.502,1
0.394635,1.013,1.109,-0.797,1.342,-9.765,-18.981,1
0.402836,1.04,1.134,-0.838,0.244,-11.718,-22.888,1
0.410856,1.075,1.142,-0.855,-0.488,-13.488,-26.855,1
0.418759,1.101,1.139,-0.869,0.305,-15.808,-31.677,1
0.427388,1.139,1.125,-0.882,2.38,-18.249,-36.01,1
0.433972,1.152,1.108,-0.851,7.812,-20.69,-39.855,1
0.442497,1.148,1.088,-0.796,17.883,-24.108,-44.067,1
0.449205,1.168,1.105,-0.686,31.616,-26.794,-48.034,1
0.456758,1.167,1.007,-0.578,39.001,-27.893,-51.818,1
0.464528,1.145,0.937,-0.472,41.687,-27.709,-54.87,1
0.472303,1.135,0.833,-0.363,41.015,-27.77,-58.044,1
0.480256,1.088,0.857,-0.249,41.137,-25.207,-60.729,1
0.488692,1.04,0.818,-0.164,43.823,-24.902,-63.781,1
0.496672,1.008,0.767,-0.103,45.959,-22.094,-66.162,1
0.503247,0.929,0.741,-0.042,47.241,-20.019,-68.969,1
0.511689,0.938,0.611,-0.027,44.372,-16.662,-70.556,1
0.518328,0.847,0.564,0.004,35.156,-14.038,-72.204,1
0.526208,0.78,0.538,0.067,26.123,-9.643,-73.608,1
0.534121,0.728,0.432,0.086,14.526,-5.31,-74.707,1
0.542194,0.604,0.207,0.117,-5.981,-2.624,-73.974,1
0.548746,0.408,0.188,0.312,-25.024,0.061,-72.509,1
0.557111,0.148,0.248,0.671,-21.972,1.708,-70.617,1
0.563986,-0.032,0.467,0.926,4.577,3.417,-69.03,1
0.572636,0.017,0.528,1.013,38.391,6.103,-68.786,1
0.579086,0.191,0.433,0.897,61.035,9.765,-68.481,1
0.586169,0.343,0.314,0.724,62.683,13.977,-67.871,1
0.594889,0.473,0.206,0.502,38.146,20.935,-66.223,1
0.601558,0.761,0.057,0.146,-27.77,26.977,-66.223,1
0.609691,0.798,-0.099,-0.077,-128.906,36.682,-65.429,1
0.616656,0.95,-0.315,-0.5,-240.478,46.691,-62.988,1
0.625637,1.18,-0.315,-0.962,-353.149,50.109,-61.218,1
0.63337,0.932,-0.141,-1.122,-421.691,51.696,-59.204,1
0.64021,0.845,0.122,-1.309,-427.001,47.18,-56.518,1
0.647847,0.708,0.302,-1.347,-379.089,34.301,-54.504,1
0.656116,0.698,0.36,-1.26,-287.902,19.592,-51.513,1
0.662471,0.702,0.405,-1.148,-195.617,4.821,-49.438,1
0.671137,0.471,0.506,-0.908,-71.899,-9.155,-47.058,1
0.678015,0.224,0.543,-0.631,67.932,-19.47,-45.043,1
0.686251,-0.031,0.505,-0.623,148.498,-26.428,-44.677,1
0.693019,0.587,0.297,-0.688,218.872,-31.433,-41.687,1
0.701185,1.015,0.209,-0.816,227.478,-33.691,-39.794,1
0.709549,1.329,0.269,-0.923,205.688,-33.996,-39.489,1
0.716353,1.483,0.385,-0.979,166.32,-35.522,-40.283,1
0.724325,1.638,0.474,-0.892,124.938,-36.743,-44.677,1
0.734117,1.545,0.531,-0.843,92.102,-37.231,-48.217,1
0.740516,1.192,0.587,-0.68,76.049,-38.33,-50.109,1
0.747945,1.092,0.628,-0.605,76.721,-39.978,-51.757,1
0.755805,1.044,0.646,-0.55,87.463,-43.151,-54.382,1
0.762214,1.043,0.59,-0.483,103.393,-46.142,-57.067,1
0.769399,1.06,0.519,-0.423,117.004,-47.607,-59.082,1
0.77703,1.084,0.434,-0.395,121.032,-48.278,-60.424,1
0.785244,1.104,0.319,-0.374,113.464,-47.546,-61.401,1
0.792107,1.092,0.233,-0.342,98.876,-46.02,-61.218,1
0.80041,1.046,0.185,-0.298,85.51,-43.701,-60.791,1
0.806775,1.001,0.15,-0.267,78.796,-42.175,-60.241,1
0.815189,0.974,0.152,-0.242,76.293,-40.161,-59.326,1
0.821981,0.955,0.16,-0.207,77.148,-38.879,-58.471,1
0.829874,0.935,0.179,-0.175,78.857,-36.254,-57.8,1
0.836354,0.92,0.2,-0.174,76.843,-34.118,-57.189,1
0.844925,0.923,0.214,-0.167,69.58,-30.517,-56.823,1
0.851379,0.933,0.23,-0.165,58.715,-27.709,-57.067,1
0.859304,0.932,0.25,-0.155,41.687,-23.437,-56.762,1
0.866683,0.923,0.279,-0.16,15.014,-17.883,-57.128,1
0.874882,0.918,0.321,-0.15,-8.056,-13.977,-57.495,1
0.882795,0.914,0.369,-0.15,-25.268,-10.742,-58.349,1
0.890783,0.906,0.427,-0.145,-30.273,-9.216,-59.204,1
0.898699,0.897,0.47,-0.145,-21.545,-8.85,-61.035,1
0.905876,0.89,0.499,-0.142,-5.004,-8.911,-62.622,1
0.914246,0.884,0.513,-0.149,7.446,-9.277,-64.575,1
0.922356,0.877,0.495,-0.163,14.221,-8.605,-66.223,1
0.929334,0.886,0.466,-0.166,13.549,-8.056,-67.932,1
0.937904,0.89,0.442,-0.153,10.07,-7.019,-69.091,1
0.946388,0.866,0.443,-0.151,9.033,-7.08,-69.702,1
0.954388,0.927,0.459,-0.125,24.414,-8.117,-71.105,1
0.962621,0.964,0.445,-0.112,44.738,-9.155,-71.35,1
0.969107,0.895,0.458,-0.117,61.828,-10.375,-72.692,1
0.976965,0.88,0.452,-0.101,69.03,-10.559,-74.279,1
0.985381,0.974,0.416,-0.091,74.89,-9.399,-75.561,1
0.992372,0.959,0.394,-0.093,71.411,-8.605,-76.904,1
1.000308,0.896,0.379,-0.086,60.18,-7.507,-78.063,1
1.007234,0.926,0.361,-0.071,51.635,-6.53,-79.04,1
1.014484,0.984,0.339,-0.063,47.058,-4.76,-79.711,1
1.023801,0.992,0.325,-0.062,43.823,-4.882,-79.711,1
1.030607,0.899,0.343,-0.048,39.611,-3.417,-79.284,1
1.038496,0.856,0.347,-0.101,37.78,-4.699,-79.772,1
1.046399,0.693,0.478,-0.073,39.916,-4.089,-78.613,1
1.054349,0.794,0.475,-0.064,47.485,-7.812,-78.796,1
1.060868,0.807,0.443,-0.095,54.138,-8.3,-79.101,1
1.069314,0.722,0.429,-0.084,52.856,-10.375,-78.735,1
1.077716,0.819,0.381,-0.111,45.715,-10.62,-78.918,1
1.085707,0.869,0.34,-0.128,30.029,-10.314,-78.918,1
1.094326,0.901,0.293,-0.158,7.873,-10.375,-78.674,1
1.100607,0.903,0.287,-0.152,-14.648,-7.629,-77.697,1
1.10747,0.953,0.312,-0.206,-36.926,-5.554,-78.002,1
1.115984,0.967,0.322,-0.208,-50.537,-3.662,-82.092,1
1.122352,0.883,0.297,-0.238,-56.945,-0.976,-84.472,1
1.130693,0.949,0.296,-0.319,-59.814,4.089,-88.134,1
1.137295,1.039,0.305,-0.437,-59.265,4.76,-94.787,1
1.144398,0.945,0.322,-0.397,-45.471,7.385,-100.341,1
1.152022,0.838,0.369,-0.454,-13.732,6.469,-104.797,1
1.160065,0.773,0.396,-0.474,23.071,4.76,-108.886,1
1.167842,0.671,0.358,-0.513,61.523,2.502,-113.037,1
1.174377,0.575,0.3,-0.529,83.557,1.464,-116.027,1
1.182245,0.595,0.238,-0.578,88.745,1.464,-118.225,1
1.189163,0.596,0.178,-0.599,76.782,1.403,-119.201,1
1.197167,0.583,0.147,-0.626,58.959,0.976,-119.75,1
1.205003,0.559,0.123,-0.592,43.395,-0.366,-119.201,1
1.212425,0.563,0.103,-0.578,37.475,-2.99,-118.164,1
1.220986,0.585,0.077,-0.533,41.32,-6.774,-117.004,1
1.227646,0.609,0.032,-0.518,48.217,-9.887,-115.295,1
1.235615,0.582,-0.02,-0.494,51.635,-12.512,-113.952,1
1.244004,0.615,-0.095,-0.498,49.804,-13.366,-112.548,1
1.252101,0.689,-0.168,-0.468,43.334,-14.77,-110.961,1
1.259231,0.772,-0.246,-0.466,31.799,-13.671,-108.093,1
1.267018,0.822,-0.312,-0.454,15.624,-12.817,-105.224,1
1.27357,0.834,-0.348,-0.463,-2.38,-10.559,-101.928,1
1.281159,0.825,-0.362,-0.474,-18.066,-9.765,-99.243,1
1.289551,0.81,-0.369,-0.491,-25.695,-9.094,-96.557,1
1.297027,0.802,-0.385,-0.512,-25.756,-10.07,-94.482,1
1.304955,0.79,-0.393,-0.512,-19.897,-11.535,-91.674,1
1.312865,0.78,-0.413,-0.515,-13.122,-12.695,-89.843,1
1.321127,0.765,-0.429,-0.5,-8.605,-13.61,-87.097,1
1.328025,0.741,-0.453,-0.496,-9.46,-13.732,-84.35,1
1.336125,0.69,-0.456,-0.492,-19.042,-13.732,-81.665,1
1.345448,0.665,-0.455,-0.487,-27.16,-14.099,-79.345,1
1.353424,0.646,-0.456,-0.463,-26.794,-15.747,-76.538,1
1.36012,0.648,-0.471,-0.44,-16.601,-18.249,-74.401,1
1.368607,0.641,-0.501,-0.396,-3.417,-20.263,-72.448,1
1.377474,0.641,-0.546,-0.381,7.202,-21.728,-69.885,1
1.383954,0.622,-0.58,-0.354,13.305,-23.315,-67.26,1
1.392371,0.595,-0.61,-0.331,15.014,-24.108,-64.758,1
1.399198,0.637,-0.621,-0.305,16.418,-24.963,-62.561,1
1.407019,0.663,-0.65,-0.284,20.324,-25.817,-60.119,1
1.416544,0.647,-0.672,-0.263,23.498,-26.245,-57.495,1
1.422795,0.628,-0.666,-0.229,28.198,-27.587,-54.748,1
1.430986,0.645,-0.704,-0.237,28.32,-27.832,-52.673,1
1.438071,0.665,-0.723,-0.203,26.55,-28.686,-50.048,1
1.44637,0.655,-0.725,-0.179,26.306,-29.174,-47.973,1
1.452868,0.646,-0.71,-0.131,32.287,-29.724,-45.715,1
1.461984,0.683,-0.731,-0.117,39.489,-30.639,-44.189,1
1.469916,0.687,-0.751,-0.077,46.691,-31.372,-41.198,1
1.477939,0.741,-0.761,-0.064,51.391,-31.494,-38.574,1
1.486036,0.771,-0.765,-0.028,56.091,-32.043,-35.522,1
1.49409,0.768,-0.751,-0.016,61.523,-31.86,-32.165,1
1.502496,0.774,-0.719,0.009,74.768,-32.409,-28.625,1
1.511066,0.772,-0.701,-0.022,79.467,-32.47,-26.733,1
1.519268,0.788,-0.654,-0.02,80.993,-31.799,-24.902,1
1.526466,0.785,-0.604,-0.028,83.19,-31.433,-24.169,1
1.534574,0.799,-0.594,-0.031,81.298,-30.7,-23.986,1
1.542135,0.816,-0.568,-0.034,73.303,-28.808,-23.803,1
1.55008,0.82,-0.541,-0.023,64.147,-27.221,-24.23,1
1.557164,0.835,-0.504,-0.004,56.579,-25.085,-24.963,1
1.56455,0.859,-0.477,0.014,51.574,-23.254,-25.756,1
1.572897,0.853,-0.425,0.032,49.316,-21.911,-26.733,1
1.580672,0.857,-0.399,0.042,49.621,-19.836,-27.954,1
1.589092,0.858,-0.379,0.05,50.048,-18.554,-29.479,1
1.596494,0.851,-0.353,0.068,49.499,-17.272,-30.7,1
1.603294,0.821,-0.332,0.061,46.447,-15.014,-32.47,1
1.612011,0.791,-0.29,0.071,42.907,-13.366,-34.362,1
1.619065,0.785,-0.29,0.06,36.315,-10.437,-36.926,1
1.627574,0.783,-0.289,0.046,27.404,-8.056,-38.635,1
1.635751,0.782,-0.284,0.034,16.723,-5.432,-40.71,1
1.642787,0.76,-0.272,0.038,5.981,-2.624,-42.968,1
1.650675,0.753,-0.249,0.039,4.882,-0.305,-44.616,1
1.659002,0.753,-0.254,0.02,7.019,2.929,-47.546,1
1.665466,0.74,-0.26,0.005,8.728,6.774,-50.109,1
1.674061,0.729,-0.282,-0.035,3.906,10.803,-53.283,1
1.681546,0.692,-0.291,-0.06,-6.103,14.77,-56.274,1
1.689673,0.673,-0.289,-0.083,-15.014,19.226,-58.776,1
1.697124,0.609,-0.301,-0.116,-22.583,22.033,-61.706,1
1.704123,0.593,-0.316,-0.146,-28.686,24.719,-65.002,1
1.712434,0.552,-0.319,-0.166,-35.705,25.634,-68.176,1
1.720742,0.615,-0.359,-0.184,-36.926,28.381,-71.594,1
1.729194,0.613,-0.418,-0.237,-44.677,29.968,-74.707,1
1.736264,0.598,-0.477,-0.269,-57.006,33.02,-77.331,1
1.744041,0.576,-0.515,-0.299,-69.946,34.729,-79.589,1
1.752455,0.549,-0.57,-0.312,-78.918,37.231,-81.359,1
1.760186,0.514,-0.621,-0.336,-89.538,38.146,-83.129,1
1.767809,0.459,-0.666,-0.342,-89.416,38.94,-83.251,1
1.774449,0.391,-0.696,-0.333,-78.552,37.109,-83.251,1
1.783515,0.34,-0.729,-0.315,-55.236,35.705,-82.153,1
1.791897,0.302,-0.814,-0.325,-34.79,33.874,-80.993,1
1.797964,0.227,-0.937,-0.334,-25.634,33.386,-78.369,1
1.805983,0.209,-1.047,-0.354,-28.686,34.179,-75.073,1
1.813475,0.163,-1.147,-0.374,-34.729,34.667,-71.228,1
1.821587,0.145,-1.225,-0.365,-31.86,34.667,-66.406,1
1.829416,0.074,-1.292,-0.359,-19.104,33.203,-60.852,1
1.837294,0.01,-1.37,-0.33,-4.272,31.799,-54.504,1
1.845616,-0.062,-1.446,-0.29,9.887,30.517,-46.936,1
1.852183,-0.098,-1.522,-0.234,25.878,29.479,-39.001,1
1.86084,-0.183,-1.61,-0.174,36.987,29.052,-29.907,1
1.868006,-0.296,-1.688,-0.107,39.978,30.212,-19.897,1
1.874848,-0.407,-1.753,-0.04,39.672,32.592,-9.277,1
1.882753,-0.523,-1.808,0.047,43.762,35.522,1.77,1
1.889457,-0.633,-1.89,0.116,48.278,39.855,13.916,1
1.897367,-0.751,-1.947,0.191,54.626,44.555,27.526,1
1.905795,-0.822,-2.017,0.249,64.941,50.964,41.564,1
1.913548,-0.912,-2.09,0.294,67.993,57.006,56.579,1
1.920188,-0.988,-2.132,0.334,71.96,64.819,73.364,1
1.928816,-1.087,-2.136,0.353,83.679,70.739,90.881,1
1.935832,-1.202,-2.132,0.365,102.233,76.721,109.741,1
1.942514,-1.333,-2.147,0.34,112.915,81.237,126.281,1
1.94994,-1.437,-2.181,0.313,107.849,89.05,147.216,1
1.957021,-1.559,-2.19,0.265,87.28,97.595,168.64,1
1.964747,-1.733,-2.141,0.227,68.054,106.933,191.04,1
1.971658,-1.978,-2.112,0.221,28.625,117.126,213.195,1
1.979674,-2.138,-2.006,0.18,19.287,129.333,235.778,1
1.986044,-2.31,-1.936,0.152,20.812,136.901,254.76,1
1.992949,-2.516,-1.878,0.104,19.714,147.155,278.991,1
2.001176,-2.794,-1.75,0.062,24.047,155.151,303.71,1
2.008041,-2.966,-1.811,-0.025,15.441,164.611,329.895,1
2.016418,-3.318,-1.7,-0.065,-4.15,174.194,353.027,1
2.023119,-3.583,-1.675,-0.16,-17.761,185.424,379.699,1
2.031069,-3.937,-1.622,-0.194,-41.564,199.035,408.63,1
2.037684,-4.416,-1.497,-0.255,-51.94,212.28,437.683,1
2.04593,-4.935,-1.424,-0.313,-55.541,225.219,468.2,1
2.054151,-5.552,-1.329,-0.402,-57.312,238.708,500.549,1
2.061163,-6.225,-1.219,-0.495,-50.903,249.145,533.935,1
2.069604,-7.08,-1.111,-0.601,-34.24,259.216,570.556,1
2.077457,-7.875,-1.041,-0.727,-9.887,266.906,616.394,1
2.085395,-8.903,-1.016,-0.848,7.934,271.667,660.827,1
2.093183,-9.912,-0.94,-1.046,32.592,273.01,709.228,1
2.100229,-10.997,-0.791,-1.225,78.002,265.258,758.911,1
2.108663,-12.312,-0.647,-1.468,142.944,247.741,813.171,1
2.115709,-14.009,-0.47,-1.792,229.003,208.312,879.15,1
2.12409,-15.585,-0.297,-2.073,296.081,158.874,936.767,1
2.132218,-15.992,-0.094,-2.272,345.886,94.36,992.858,1
2.138693,-15.999,0.097,-2.36,375.671,20.141,1046.447,1
2.147523,-15.999,0.413,-2.291,401.428,-63.354,1095.947,1
2.154151,-15.999,0.862,-2.122,441.894,-157.348,1137.695,1
2.161424,-15.999,1.421,-1.88,498.596,-262.084,1168.579,1
2.169886,-15.999,2.004,-1.616,551.879,-378.784,1186.279,1
2.176973,-15.999,2.584,-1.271,586.792,-500.793,1188.232,1
2.184062,-15.999,3.161,-0.838,611.45,-624.938,1172.485,1
2.191527,-15.999,3.555,-0.312,648.925,-753.784,1140.258,1
2.199655,-15.999,3.666,0.505,707.702,-881.835,1093.139,1
2.207437,-15.999,3.637,1.425,788.452,-986.816,1040.161,1
2.215825,-15.999,3.694,2.614,964.477,-1131.591,934.265,1
2.222325,-15.999,3.949,3.644,1202.331,-1246.521,799.194,1
2.23033,-15.999,3.957,3.82,1425.414,-1354.125,600.097,1
2.236846,-15.999,3.382,3.799,1495.666,-1418.823,368.347,1
2.245401,-15.999,2.857,3.421,1345.397,-1438.171,145.629,1
2.251854,-15.999,2.836,3.697,1104.858,-1406.982,-5.737,1
2.260326,-15.999,2.845,3.763,850.83,-1332.885,-143.859,1
2.266771,-15.999,2.885,3.968,737.487,-1256.042,-248.229,1
2.275424,-15.999,2.887,3.936,754.089,-1178.405,-345.825,1
2.281899,-15.999,2.606,3.877,850.707,-1103.759,-448.73,1
2.288911,-15.999,1.876,3.509,939.575,-1005.676,-552.246,1
2.296972,-15.999,1.198,2.93,945.8,-902.465,-643.737,1
2.304271,-15.999,0.89,2.708,884.704,-779.785,-716.064,1
2.311396,-15.999,0.57,2.381,764.16,-661.743,-767.883,1
2.319849,-15.999,0.243,2.253,646.057,-567.382,-791.442,1
2.327838,-15.189,-0.021,2.113,502.441,-465.332,-800.048,1
2.334564,-13.947,-0.201,2.089,353.942,-375.427,-791.015,1
2.343028,-12.828,-0.289,2.048,263.854,-313.964,-774.352,1
2.350667,-11.867,-0.358,2.137,232.543,-267.578,-752.197,1
2.358961,-11.122,-0.451,2.142,254.882,-223.571,-725.646,1
2.367677,-10.536,-0.523,2.177,312.194,-181.457,-697.998,1
2.375893,-9.93,-0.723,2.004,369.14,-126.22,-665.161,1
2.382391,-9.025,-1.02,1.777,378.356,-69.396,-631.835,1
2.390845,-8.166,-1.292,1.476,338.623,-22.949,-602.539,1
2.398868,-7.255,-1.525,1.251,268.981,17.089,-572.753,1
2.406882,-6.45,-1.686,1.026,198.12,50.231,-543.334,1
2.413276,-5.895,-1.757,0.869,140.747,74.035,-514.038,1
2.42169,-5.441,-1.762,0.711,104.37,92.468,-485.229,1
2.428098,-5.063,-1.763,0.582,88.562,102.478,-457.58,1
2.435933,-4.619,-1.722,0.524,104.492,111.022,-428.894,1
2.4438,-4.263,-1.695,0.424,139.77,114.868,-400.085,1
2.453484,-3.975,-1.748,0.345,168.823,119.567,-369.934,1
2.461741,-3.632,-1.806,0.235,175.231,126.464,-334.716,1
2.46791,-3.343,-1.848,0.163,159.606,132.446,-305.114,1
2.475778,-3.083,-1.876,0.113,129.516,137.695,-277.221,1
2.483911,-2.719,-1.862,0.086,96.13,141.418,-247.009,1
2.492498,-2.449,-1.845,0.088,75.622,142.7,-223.449,1
2.499237,-2.21,-1.828,0.099,65.979,143.31,-201.904,1
2.507246,-2.005,-1.817,0.106,64.025,143.005,-181.396,1
2.515188,-1.779,-1.799,0.104,59.326,143.127,-158.63,1
2.523121,-1.604,-1.757,0.099,51.33,143.005,-139.831,1
2.531178,-1.442,-1.681,0.086,44.616,142.456,-122.253,1
2.537679,-1.292,-1.609,0.062,41.442,140.197,-105.224,1
2.546074,-1.139,-1.552,0.049,38.33,137.268,-88.623,1
2.552661,-1.069,-1.518,-0.009,30.822,134.582,-75.622,1
2.560369,-1.011,-1.477,-0.003,16.784,132.446,-61.645,1
2.568714,-0.915,-1.428,-0.02,0.305,129.333,-47.058,1
2.576899,-0.832,-1.364,-0.016,-6.652,125.732,-35.827,1
2.585556,-0.729,-1.312,-0.007,-4.394,121.215,-25.512,1
2.59333,-0.632,-1.279,-0.003,2.807,116.149,-13.61,1
2.601602,-0.536,-1.238,-0.002,7.08,112.365,-4.455,1
2.610373,-0.408,-1.165,-0.006,11.352,107.299,6.042,1
2.617429,-0.309,-1.065,-0.002,17.15,101.867,15.869,1
2.625464,-0.232,-0.981,-0.002,22.888,96.496,23.437,1
2.63366,-0.153,-0.906,0.007,28.198,91.979,29.846,1
2.640235,-0.051,-0.837,0.027,35.4,87.097,36.071,1
2.647168,0.049,-0.777,0.057,42.114,82.641,40.588,1
2.65554,0.107,-0.73,0.081,52.368,78.43,45.471,1
2.662573,0.164,-0.666,0.103,62.744,73.852,49.255,1
2.670609,0.205,-0.62,0.138,73.364,70.678,52.795,1
2.67893,0.266,-0.584,0.151,81.787,66.772,55.664,1
2.68539,0.31,-0.542,0.174,85.144,64.636,57.861,1
2.692851,0.36,-0.505,0.185,81.298,62.377,59.814,1
2.701224,0.385,-0.471,0.197,74.584,61.34,60.913,1
2.707805,0.421,-0.422,0.201,67.26,60.18,61.767,1
2.714908,0.472,-0.375,0.208,61.828,59.448,61.828,1
2.722836,0.496,-0.325,0.199,57.128,57.983,61.279,1
2.731218,0.52,-0.282,0.194,53.833,56.823,60.241,1
2.738144,0.584,-0.242,0.182,50.048,54.87,59.509,1
2.746668,0.622,-0.208,0.188,46.813,53.833,58.105,1
2.752988,0.666,-0.178,0.177,42.724,52.673,56.64,1
2.76172,0.701,-0.149,0.175,38.085,51.574,54.748,1
2.769727,0.721,-0.128,0.174,34.118,50.598,52.551,1
2.777538,0.747,-0.109,0.166,32.409,49.499,50.354,1
2.784204,0.787,-0.104,0.159,34.118,47.241,48.156,1
2.792248,0.841,-0.099,0.152,37.963,45.41,46.264,1
2.800324,0.875,-0.094,0.143,41.931,43.64,44.311,1
2.807262,0.907,-0.086,0.133,46.386,41.809,42.724,1
2.814735,0.944,-0.083,0.125,51.818,39.672,41.564,1
2.823146,0.984,-0.073,0.119,57.373,37.902,40.588,1
2.830874,1.023,-0.07,0.123,60.546,36.437,40.161,1
2.837818,1.039,-0.05,0.115,60.913,35.339,39.428,1
2.84575,1.035,-0.029,0.106,57.373,34.912,38.757,1
2.852516,1.021,-0.016,0.103,51.879,34.24,37.597,1
2.860351,0.985,0.0,0.105,45.532,33.752,36.315,1
2.867874,0.978,0.005,0.115,41.992,33.264,34.973,1
2.87617,0.992,0.002,0.111,40.527,32.47,34.179,1
2.882861,1.017,0.013,0.112,42.297,31.982,32.653,1
2.890918,1.029,0.0,0.108,44.677,31.127,31.555,1
2.89882,1.068,-0.011,0.112,47.18,30.09,30.456,1
2.905481,1.093,-0.01,0.115,49.133,29.357,29.907,1
2.913676,1.11,-0.016,0.124,52.795,28.869,29.296,1
2.922017,1.136,-0.02,0.123,54.931,28.686,29.174,1
2.92987,1.223,-0.023,0.129,53.283,29.541,29.907,1
2.936482,1.306,-0.02,0.12,47.668,30.7,31.249,1
2.944927,1.354,-0.022,0.112,36.071,32.531,33.142,1
2.951905,1.407,-0.009,0.119,21.606,35.888,35.217,1
2.959799,1.416,0.028,0.098,4.394,38.696,36.315,1
2.96671,1.362,0.083,0.1,-9.765,42.053,36.437,1
2.975203,1.284,0.16,0.078,-15.563,43.701,34.423,1
2.981836,1.189,0.219,0.072,-8.605,43.64,30.822,1
2.99022,1.116,0.262,0.075,11.23,42.541,26.794,1
2.996704,1.069,0.277,0.071,35.461,40.527,23.132,1
3.00376,1.034,0.251,0.06,65.307,38.269,19.165,1
3.010798,1.018,0.193,0.041,84.35,36.499,15.808,1
3.01779,1.014,0.128,0.021,88.439,35.766,12.451,1
3.025732,1.013,0.077,0.013,83.923,36.01,9.887,1
3.032236,1.026,0.029,0.016,76.11,36.865,7.019,1
3.040664,1.049,-0.009,0.022,69.152,37.048,4.272,1
3.048304,1.079,-0.051,0.037,64.514,37.536,2.38,1
3.055132,1.132,-0.084,0.05,63.598,38.757,1.281,1
3.063238,1.162,-0.109,0.045,63.598,39.245,0.915,1
3.070434,1.145,-0.116,0.038,64.392,39.672,0.183,1
3.078597,1.135,-0.124,0.025,67.26,39.672,-0.488,1
3.087317,1.132,-0.125,0.025,75.195,39.55,-1.159,1
3.094037,1.164,-0.142,0.013,89.111,38.085,-1.403,1
3.101728,1.172,-0.149,0.0,102.111,38.208,-0.671,1
3.109685,1.15,-0.161,-0.026,112.854,37.17,-0.427,1
3.117929,1.089,-0.17,-0.04,119.873,37.048,-0.122,1
3.125939,1.037,-0.182,-0.066,121.582,36.682,0.427,1
3.133937,1.016,-0.195,-0.077,118.957,36.926,1.342,1
3.140667,1.004,-0.191,-0.074,117.248,36.682,1.831,1
3.148261,0.993,-0.172,-0.058,118.835,37.17,1.953,1
3.156813,0.979,-0.167,-0.06,123.168,37.78,2.075,1
3.163617,0.953,-0.166,-0.057,127.014,38.635,1.586,1
3.172461,0.944,-0.166,-0.062,127.319,39.733,2.014,1
3.179091,0.928,-0.16,-0.065,125.427,40.771,2.075,1
3.187531,0.91,-0.145,-0.071,122.314,42.053,2.502,1
3.194768,0.897,-0.13,-0.083,118.469,43.09,3.051,1
3.201699,0.9,-0.109,-0.098,115.112,43.151,3.54,1
3.209765,0.941,-0.079,-0.109,114.807,42.724,4.211,1
3.216323,0.962,-0.047,-0.112,118.774,41.748,5.065,1
3.224833,0.977,-0.02,-0.122,127.319,40.588,5.859,1
3.23292,0.967,0.01,-0.129,137.39,38.818,6.164,1
3.239666,0.942,0.024,-0.139,148.376,37.536,6.408,1
3.247525,0.946,0.023,-0.149,153.198,36.987,7.019,1
3.255538,0.967,0.031,-0.164,153.32,37.17,7.263,1
3.263263,0.99,0.055,-0.177,151.123,37.414,7.202,1
3.270017,0.992,0.077,-0.195,148.681,37.597,7.019,1
3.276942,1.009,0.103,-0.208,148.62,37.78,6.469,1
3.285292,1.029,0.138,-0.219,152.893,37.414,6.408,1
3.293182,1.046,0.181,-0.242,164.55,36.437,6.408,1
3.301201,1.048,0.231,-0.264,179.687,34.423,5.981,1
3.308055,1.025,0.25,-0.286,194.396,32.653,6.225,1
3.316567,1.0,0.273,-0.307,206.665,30.761,6.103,1
3.323319,0.991,0.282,-0.323,212.036,29.418,6.103,1
3.330945,0.968,0.285,-0.33,208.74,29.418,5.798,1
3.339093,0.942,0.284,-0.35,194.274,30.151,5.371,1
3.345553,0.928,0.278,-0.364,171.264,30.761,4.211,1
3.354058,0.906,0.292,-0.369,148.681,31.86,3.295,1
3.360603,0.893,0.325,-0.374,136.352,32.226,2.38,1
3.368433,0.887,0.351,-0.373,134.094,31.127,0.976,1
3.375381,0.876,0.373,-0.374,145.263,29.174,-0.549,1
3.38233,0.886,0.378,-0.368,165.893,26.184,-1.892,1
3.390463,0.924,0.367,-0.37,185.241,23.864,-2.258,1
3.397025,0.956,0.364,-0.386,204.589,22.155,-2.807,1
3.405211,0.973,0.357,-0.418,213.867,20.507,-3.784,1
3.413127,0.969,0.361,-0.438,214.721,19.409,-4.394,1
3.420649,0.936,0.354,-0.456,210.021,18.737,-5.31,1
3.427107,0.89,0.34,-0.475,200.073,19.104,-6.164,1
3.435407,0.958,0.317,-0.474,187.011,19.226,-6.958,1
3.441906,0.964,0.287,-0.497,169.86,18.981,-7.385,1
3.449093,0.979,0.279,-0.494,158.264,18.737,-7.568,1
3.456859,0.975,0.289,-0.479,153.32,16.845,-8.056,1
3.463717,0.959,0.287,-0.46,161.01,15.075,-8.3,1
3.470611,0.965,0.271,-0.446,175.964,12.512,-8.117,1
3.478518,0.976,0.256,-0.451,187.866,11.535,-7.934,1
3.486509,0.978,0.241,-0.469,191.894,9.765,-7.751,1
3.493083,0.967,0.232,-0.466,186.096,9.704,-7.507,1
3.500984,0.959,0.225,-0.466,175.598,9.216,-7.446,1
3.507948,0.956,0.229,-0.453,165.466,8.972,-7.141,1
3.516011,0.971,0.238,-0.435,158.02,8.972,-7.019,1
3.522574,0.974,0.246,-0.418,154.785,8.911,-7.202,1
3.53086,0.98,0.251,-0.408,154.357,9.094,-7.324,1
3.537345,0.984,0.26,-0.398,156.494,8.85,-7.385,1
3.545345,0.98,0.27,-0.392,160.034,8.605,-7.385,1
3.552168,0.97,0.274,-0.387,164.184,8.361,-7.629,1
3.559152,0.954,0.278,-0.378,165.527,8.605,-8.3,1
3.567554,0.942,0.277,-0.377,163.635,8.544,-8.3,1
3.575515,0.934,0.278,-0.375,156.433,9.155,-8.789,1
3.582583,0.931,0.281,-0.38,143.066,10.314,-9.46,1
3.589097,0.932,0.279,-0.37,131.713,10.864,-9.826,1
3.597376,0.951,0.281,-0.366,119.75,11.779,-10.681,1
3.604454,0.969,0.27,-0.362,109.863,12.145,-11.352,1
3.61275,0.989,0.257,-0.359,98.876,12.084,-11.962,1
3.620733,1.014,0.26,-0.355,92.163,11.596,-12.023,1
3.627443,1.03,0.259,-0.346,90.881,10.437,-12.023,1
3.635468,1.039,0.257,-0.338,93.688,8.789,-11.779,1
3.64243,1.046,0.263,-0.334,99.243,7.629,-11.352,1
3.649379,1.054,0.27,-0.325,107.604,5.615,-10.681,1
3.65748,1.042,0.274,-0.324,114.807,4.333,-10.375,1
3.664398,1.039,0.276,-0.322,123.107,2.441,-10.009,1
3.673674,1.025,0.276,-0.313,127.136,2.441,-9.643,1
3.680179,1.046,0.273,-0.323,127.075,0.61,-9.948,1
3.688648,1.0,0.289,-0.305,128.784,0.244,-9.765,1
3.695238,0.978,0.285,-0.318,129.333,-0.427,-9.338,1
3.70315,0.953,0.286,-0.32,126.464,-1.281,-9.338,1
3.711468,0.964,0.288,-0.313,124.633,-2.624,-9.826,1
3.718573,0.959,0.283,-0.298,122.985,-2.746,-9.704,1
3.725578,0.958,0.264,-0.306,119.323,-4.15,-9.521,1
3.732775,0.952,0.259,-0.282,116.699,-4.577,-9.216,1
3.741133,0.967,0.256,-0.281,114.501,-5.432,-8.544,1
3.748147,0.958,0.252,-0.267,111.328,-5.737,-8.3,1
3.756195,0.952,0.254,-0.267,106.75,-5.493,-7.873,1
3.764554,0.961,0.246,-0.243,105.529,-6.103,-7.385,1
3.771017,0.963,0.256,-0.238,105.712,-5.004,-7.019,1
3.779396,0.931,0.25,-0.241,101.135,-5.737,-6.164,1
3.78729,0.933,0.25,-0.228,96.069,-4.15,-4.882,1
3.79535,0.934,0.247,-0.232,89.66,-4.699,-4.394,1
3.801995,0.944,0.26,-0.221,86.242,-3.662,-3.356,1
3.811363,0.962,0.256,-0.209,86.242,-4.333,-2.807,1
3.819387,0.9,0.264,-0.192,85.266,-2.99,-1.77,1
3.826612,0.916,0.266,-0.198,79.833,-2.38,-0.976,1
3.833962,0.907,0.26,-0.185,73.669,-1.098,-0.122,1
3.840579,0.913,0.28,-0.187,63.232,0.183,0.244,1
3.848943,0.897,0.294,-0.181,58.715,0.671,1.037,1
3.855408,0.878,0.31,-0.17,58.349,1.525,0.915,1
3.862234,0.862,0.308,-0.169,59.997,1.342,1.037,1
3.869193,0.867,0.312,-0.164,62.438,1.586,1.892,1
3.878026,0.883,0.31,-0.164,63.781,1.647,2.319,1
3.884856,0.889,0.317,-0.166,65.856,1.281,2.929,1
3.891721,0.898,0.322,-0.149,70.007,1.159,3.54,1
3.898601,0.895,0.311,-0.146,74.096,1.037,3.845,1
3.90613,0.884,0.312,-0.133,77.636,1.831,4.455,1
3.914138,0.89,0.302,-0.134,76.66,2.502,5.187,1
3.920903,0.865,0.302,-0.125,73.059,3.967,5.737,1
3.927823,0.838,0.301,-0.129,68.786,5.126,6.042,1
3.935128,0.798,0.309,-0.11,64.941,5.859,6.225,1
3.942121,0.79,0.322,-0.09,63.354,7.385,7.324,1
3.951721,0.868,0.329,-0.099,69.091,7.446,7.873,1
3.958236,0.886,0.337,-0.064,84.106,6.286,8.178,1
3.965218,0.895,0.331,-0.081,100.646,4.882,9.033,1
3.972218,0.937,0.311,-0.045,115.417,1.831,9.521,1
3.980684,0.996,0.284,-0.033,126.22,1.586,10.742,1
3.987136,1.017,0.259,-0.033,131.469,-0.305,12.023,1
3.995065,0.986,0.237,-0.025,127.38,-0.305,13.183,1
4.001966,0.975,0.231,-0.02,117.065,-0.61,14.77,1
4.010426,0.989,0.226,-0.002,106.445,-0.488,16.601,1
4.018469,0.991,0.235,0.006,98.815,-0.183,18.188,1
4.02502,0.99,0.246,0.008,94.116,0.122,19.714,1
4.03307,0.971,0.25,0.013,90.27,0.549,21.179,1
4.039816,0.948,0.257,0.015,87.89,1.159,22.888,1
4.047755,0.925,0.264,0.02,86.242,2.197,24.047,1
4.055516,0.898,0.271,0.018,82.702,3.845,25.512,1
4.062024,0.879,0.28,0.014,77.758,6.042,26.428,1
4.069875,0.88,0.287,0.008,73.364,8.178,27.099,1
4.07665,0.864,0.299,0.0,66.711,10.498,28.076,1
4.084831,0.843,0.308,-0.005,59.936,13.183,28.381,1
4.091515,0.845,0.318,-0.005,52.673,16.174,28.93,1
4.099805,0.85,0.33,-0.019,44.128,18.981,29.296,1
4.106853,0.855,0.342,-0.023,35.949,22.033,29.785,1
4.114381,0.862,0.359,-0.024,30.273,24.23,30.578,1
4.122609,0.867,0.375,-0.034,27.16,25.817,30.883,1
4.12955,0.876,0.389,-0.033,28.747,27.16,31.616,1
4.136486,0.874,0.409,-0.038,32.287,27.404,32.043,1
4.145122,0.877,0.422,-0.04,37.597,28.076,32.775,1
4.151712,0.871,0.436,-0.048,41.809,28.015,33.142,1
4.15865,0.854,0.443,-0.054,43.273,28.198,33.63,1
4.165586,0.85,0.455,-0.06,41.442,28.381,33.874,1
4.173547,0.858,0.458,-0.062,35.4,29.296,34.057,1
4.180081,0.849,0.469,-0.066,27.099,29.785,34.301,1
4.188111,0.857,0.48,-0.062,19.592,30.395,34.057,1
4.195148,0.853,0.496,-0.061,15.38,30.7,33.996,1
4.202196,0.839,0.5,-0.062,11.352,31.005,33.691,1
4.209127,0.842,0.502,-0.062,7.019,31.555,33.264,1
4.216125,0.835,0.497,-0.062,2.197,32.226,32.775,1
4.224313,0.85,0.497,-0.072,-5.126,32.958,32.47,1
4.230888,0.855,0.511,-0.076,-11.901,33.325,31.799,1
4.239233,0.85,0.527,-0.091,-15.197,33.203,30.883,1
4.245879,0.84,0.55,-0.082,-12.695,32.958,30.517,1
4.252981,0.853,0.568,-0.086,-4.638,31.982,30.151,1
4.2614,0.856,0.583,-0.085,3.051,31.066,29.541,1
4.267995,0.862,0.585,-0.087,11.291,30.517,29.174,1
4.274554,0.875,0.595,-0.086,17.211,29.663,28.564,1
4.282472,0.87,0.59,-0.092,19.042,29.418,27.832,1
4.289505,0.866,0.587,-0.098,16.845,29.785,27.526,1
4.296487,0.861,0.585,-0.099,9.826,30.7,26.672,1
4.304578,0.851,0.576,-0.106,0.244,32.104,26.062,1
4.311157,0.859,0.565,-0.109,-8.178,33.02,25.024,1
4.319074,0.867,0.545,-0.111,-19.775,35.217,24.536,1
4.327948,0.886,0.527,-0.118,-31.921,36.743,23.742,1
4.334535,0.887,0.5,-0.124,-44.677,39.611,23.071,1
4.342721,0.912,0.478,-0.142,-59.204,41.809,22.338,1
4.350762,0.916,0.468,-0.141,-72.57,44.372,22.033,1
4.357405,0.91,0.463,-0.152,-77.087,45.959,22.277,1
4.36437,0.906,0.479,-0.151,-72.998,46.813,22.216,1
4.371531,0.91,0.494,-0.161,-62.072,46.997,22.521,1
4.379265,0.892,0.502,-0.173,-49.804,46.569,22.338,1
4.387514,0.869,0.512,-0.183,-36.682,46.264,22.644,1
4.395249,0.855,0.524,-0.202,-26.367,45.898,22.705,1
4.403284,0.832,0.543,-0.209,-17.883,45.776,22.399,1
4.409948,0.816,0.546,-0.224,-12.939,45.532,22.033,1
4.41835,0.83,0.553,-0.228,-12.756,45.898,21.667,1
4.424712,0.846,0.56,-0.24,-14.709,46.63,21.484,1
4.433106,0.856,0.57,-0.244,-18.493,47.241,21.118,1
4.44112,0.85,0.592,-0.257,-23.925,48.278,20.446,1
4.447686,0.838,0.611,-0.266,-30.029,49.011,19.531,1
4.45464,0.821,0.637,-0.274,-35.034,49.804,18.737,1
4.463008,0.82,0.669,-0.286,-35.156,49.804,17.272,1
4.471366,0.802,0.698,-0.292,-30.09,49.377,15.93,1
4.479433,0.805,0.732,-0.309,-22.094,48.706,14.038,1
4.48753,0.811,0.749,-0.321,-12.756,47.729,12.145,1
4.494343,0.808,0.771,-0.332,-2.258,46.508,10.192,1
4.500954,0.809,0.785,-0.347,3.967,45.288,8.178,1
4.508828,0.815,0.799,-0.363,6.958,44.555,5.859,1
4.516818,0.815,0.821,-0.383,8.361,43.884,3.662,1
4.524852,0.83,0.842,-0.404,8.361,42.663,1.403,1
4.533538,0.833,0.859,-0.427,6.103,41.748,-1.22,1
4.539805,0.827,0.872,-0.446,3.356,40.527,-3.723,1
4.547955,0.837,0.879,-0.461,0.122,39.733,-5.981,1
4.554953,0.853,0.891,-0.48,-4.089,38.635,-8.422,1
4.562104,0.865,0.906,-0.496,-9.155,37.353,-11.352,1
4.569809,0.886,0.918,-0.513,-12.573,35.888,-14.282,1
4.576812,0.912,0.937,-0.522,-11.962,33.935,-17.15,1
4.585393,0.923,0.95,-0.535,-4.943,31.311,-20.141,1
4.593565,0.929,0.967,-0.549,9.704,27.648,-22.949,1
4.600069,0.948,0.971,-0.547,30.944,23.559,-25.512,1
4.608687,0.955,0.949,-0.553,51.208,19.592,-27.587,1
4.615577,0.972,0.911,-0.544,64.575,16.601,-29.602,1
4.624031,0.974,0.884,-0.544,69.213,15.075,-31.494,1
4.630914,0.966,0.871,-0.538,65.063,14.038,-33.02,1
4.639379,0.939,0.868,-0.534,54.87,14.038,-35.095,1
4.646448,0.918,0.879,-0.523,42.297,13.793,-37.17,1
4.654848,0.907,0.89,-0.509,35.705,13.671,-39.123,1
4.661556,0.896,0.892,-0.498,32.348,12.878,-41.564,1
4.668677,0.88,0.89,-0.483,31.738,12.695,-43.395,1
4.677131,0.87,0.883,-0.467,31.677,11.718,-45.593,1
4.684511,0.856,0.869,-0.455,32.348,11.352,-48.034,1
4.693094,0.865,0.854,-0.44,33.508,10.559,-50.537,1
4.701074,0.853,0.842,-0.415,34.057,10.253,-53.039,1
4.707722,0.846,0.828,-0.394,32.714,9.887,-55.48,1
4.71473,0.844,0.823,-0.368,30.7,10.192,-57.617,1
4.723309,0.829,0.806,-0.344,29.602,10.314,-60.241,1
4.729834,0.82,0.791,-0.32,31.921,10.864,-62.866,1
4.736847,0.824,0.777,-0.302,35.156,10.62,-64.88,1
4.744906,0.827,0.762,-0.285,40.039,10.742,-67.687,1
4.751908,0.846,0.718,-0.272,45.654,10.803,-69.946,1
4.761255,0.869,0.693,-0.259,50.72,10.62,-71.96,1
4.769115,0.89,0.662,-0.248,54.199,10.925,-73.608,1
4.77622,0.903,0.637,-0.24,54.931,10.986,-75.195,1
4.78464,0.909,0.619,-0.228,54.87,11.23,-76.599,1
4.792654,0.909,0.604,-0.217,54.87,11.352,-77.514,1
4.799157,0.9,0.588,-0.208,55.725,11.718,-78.369,1
4.807581,0.892,0.573,-0.197,57.556,11.596,-78.918,1
4.814356,0.881,0.569,-0.191,61.096,11.535,-78.796,1
4.821397,0.861,0.56,-0.19,64.208,11.169,-79.284,1
4.828354,0.848,0.547,-0.183,68.054,11.23,-79.345,1
4.836403,0.834,0.525,-0.183,72.265,11.047,-79.223,1
4.844759,0.822,0.502,-0.183,74.951,10.681,-78.796,1
4.851441,0.8,0.485,-0.186,76.904,10.803,-78.125,1
4.859732,0.766,0.468,-0.189,76.965,10.62,-77.636,1
4.866707,0.73,0.466,-0.191,77.575,10.62,-77.026,1
4.875177,0.705,0.452,-0.193,80.566,10.375,-76.171,1
4.882203,0.684,0.432,-0.193,85.205,10.131,-75.622,1
4.889283,0.675,0.414,-0.2,89.416,9.582,-74.523,1
4.897191,0.665,0.393,-0.209,93.139,9.155,-73.486,1
4.905183,0.658,0.373,-0.212,93.933,9.46,-72.326,1
4.912061,0.654,0.348,-0.222,91.125,9.643,-71.289,1
4.91873,0.668,0.336,-0.229,86.303,9.948,-70.251,1
4.927103,0.687,0.349,-0.244,79.04,11.535,-68.908,1
4.933992,0.694,0.336,-0.254,70.373,10.62,-68.176,1
4.942005,0.688,0.33,-0.249,62.194,12.695,-67.016,1
4.948602,0.692,0.323,-0.278,52.551,12.878,-66.345,1
4.956769,0.692,0.32,-0.275,44.555,13.61,-65.429,1
4.964042,0.698,0.342,-0.291,42.785,13.916,-64.453,1
4.972119,0.725,0.352,-0.264,50.354,12.573,-63.781,1
4.980384,0.743,0.348,-0.296,60.546,13.732,-63.232,1
4.987448,0.754,0.345,-0.3,64.514,12.695,-62.988,1
4.995864,0.766,0.33,-0.309,65.49,14.404,-62.255,1
5.002362,0.795,0.326,-0.329,62.072,13.732,-61.889,1
5.011894,0.776,0.329,-0.321,55.908,16.418,-61.645,1
5.018442,0.728,0.337,-0.339,46.691,16.052,-61.645,1
5.026619,0.84,0.322,-0.325,40.283,17.639,-61.34,1
5.033594,0.808,0.326,-0.347,30.151,19.409,-61.157,1
5.042057,0.798,0.333,-0.34,17.333,18.859,-61.462,1
5.048654,0.767,0.29,-0.331,10.742,19.958,-60.058,1
5.056632,0.687,0.335,-0.327,6.225,21.057,-59.387,1
5.0651,0.649,0.321,-0.35,4.028,19.531,-58.166,1
5.071769,0.732,0.353,-0.333,10.864,19.531,-57.617,1
5.079747,0.797,0.32,-0.35,21.484,17.272,-57.434,1
5.088185,0.828,0.288,-0.355,31.555,17.7,-56.701,1
5.09618,0.86,0.263,-0.384,34.851,17.333,-55.847,1
5.103209,0.902,0.249,-0.394,32.348,17.944,-55.053,1
5.111647,0.883,0.247,-0.409,26.245,18.737,-54.626,1
5.118675,0.868,0.237,-0.411,16.357,19.226,-54.199,1
5.127023,0.835,0.25,-0.409,9.277,21.179,-54.504,1
5.13505,0.795,0.269,-0.414,4.089,21.362,-54.565,1
5.141505,0.789,0.281,-0.399,4.76,22.399,-55.114,1
5.149885,0.773,0.281,-0.398,8.728,22.155,-55.725,1
5.158454,0.767,0.272,-0.387,15.136,22.46,-56.274,1
5.166505,0.781,0.247,-0.384,25.085,22.277,-57.006,1
5.173107,0.812,0.221,-0.381,35.461,22.338,-57.678,1
5.181677,0.837,0.2,-0.369,47.058,22.338,-57.617,1
5.188425,0.842,0.183,-0.365,59.387,22.216,-57.922,1
5.196905,0.845,0.162,-0.346,71.594,22.277,-57.373,1
5.203671,0.852,0.129,-0.333,81.481,22.766,-56.884,1
5.212111,0.845,0.114,-0.318,92.163,23.681,-56.152,1
5.220048,0.858,0.091,-0.322,96.435,25.939,-55.114,1
5.226807,0.885,0.068,-0.345,90.637,27.893,-54.382,1
5.235175,0.863,0.059,-0.353,78.002,30.517,-53.344,1
5.243596,0.865,0.057,-0.376,60.913,32.592,-52.429,1
5.250091,0.864,0.065,-0.376,42.968,34.057,-51.391,1
5.258482,0.866,0.076,-0.393,27.404,35.4,-51.147,1
5.264609,0.859,0.073,-0.4,15.075,36.071,-50.659,1
5.271766,0.859,0.068,-0.404,6.103,36.193,-50.537,1
5.280397,0.867,0.067,-0.411,0.976,36.376,-50.537,1
5.287206,0.861,0.06,-0.417,-3.54,36.315,-50.476,1
5.294167,0.856,0.045,-0.414,-7.385,35.705,-50.476,1
5.301155,0.812,0.036,-0.415,-9.094,35.766,-50.292,1
5.309609,0.921,0.023,-0.431,-10.681,35.644,-49.865,1
5.316367,0.942,0.013,-0.445,-13.977,36.01,-48.95,1
5.323324,0.917,0.019,-0.485,-18.859,36.621,-47.79,1
5.330813,0.925,0.024,-0.526,-27.343,35.4,-47.18,1
5.339156,0.891,0.039,-0.563,-36.56,35.461,-46.447,1
5.345822,0.833,0.071,-0.623,-45.41,33.508,-45.898,1
5.353872,0.82,0.104,-0.662,-47.973,31.677,-45.776,1
5.360484,0.88,0.122,-0.717,-42.968,28.198,-46.691,1
5.369003,0.815,0.118,-0.73,-35.522,23.803,-48.522,1
5.375599,0.878,0.114,-0.746,-23.925,20.446,-48.645,1
5.382665,0.921,0.103,-0.77,-8.728,15.014,-49.072,1
5.390511,0.889,0.101,-0.754,7.141,8.3,-48.889,1
5.398932,0.928,0.118,-0.821,23.742,5.798,-48.522,1
5.4069,0.943,0.12,-0.879,34.851,-0.183,-48.889,1
5.413649,0.93,0.113,-0.9,35.583,-4.333,-49.194,1
5.422155,0.922,0.129,-0.937,33.569,-8.239,-49.743,1
5.430554,0.95,0.137,-0.968,28.808,-12.512,-50.72,1
5.438247,0.96,0.148,-0.999,24.78,-16.54,-51.757,1
5.444818,0.927,0.171,-1.007,22.949,-21.789,-52.612,1
5.453183,0.982,0.166,-1.016,23.071,-26.672,-53.833,1
5.461539,0.994,0.163,-1.014,25.329,-33.569,-55.053,1
5.468132,1.025,0.152,-0.995,30.944,-39.062,-55.908,1
5.476635,1.062,0.136,-0.972,37.231,-45.043,-56.457,1
5.485005,1.087,0.139,-0.935,43.64,-50.598,-56.823,1
5.492896,1.108,0.139,-0.885,49.072,-55.236,-57.434,1
5.501745,1.113,0.156,-0.836,54.504,-60.668,-57.922,1
5.508791,1.089,0.17,-0.791,60.119,-64.514,-58.593,1
5.517222,1.083,0.195,-0.751,64.086,-68.725,-59.936,1
5.525399,1.068,0.208,-0.73,65.429,-72.387,-61.706,1
5.532317,1.061,0.206,-0.705,61.523,-74.523,-63.232,1
5.540274,1.101,0.214,-0.672,54.016,-77.331,-64.514,1
5.548633,1.066,0.247,-0.632,51.086,-79.895,-67.565,1
5.558448,1.042,0.257,-0.562,56.091,-82.397,-69.641,1
5.566454,1.062,0.269,-0.515,64.514,-84.411,-72.753,1
5.573339,1.036,0.286,-0.445,75.561,-86.364,-76.904,1
5.581778,1.04,0.313,-0.366,85.144,-86.853,-80.871,1
5.590262,0.994,0.33,-0.297,94.909,-88.256,-84.899,1
5.596788,0.983,0.239,-0.204,96.435,-86.853,-87.646,1
5.605195,1.094,0.305,-0.105,92.041,-81.97,-91.735,1
5.613639,0.986,0.348,0.006,95.275,-80.627,-96.862,1
5.620131,0.913,0.333,0.101,98.815,-74.768,-100.708,1
5.628106,0.963,0.375,0.172,99.182,-69.641,-105.895,1
5.635093,0.923,0.385,0.28,102.844,-64.147,-110.961,1
5.64352,0.915,0.363,0.376,107.36,-58.41,-115.478,1
5.651845,0.931,0.329,0.466,109.13,-50.476,-119.995,1
5.658817,0.893,0.297,0.545,101.623,-40.649,-124.45,1
5.66731,0.883,0.248,0.604,93.933,-33.935,-127.746,1
5.675861,0.82,0.217,0.694,92.041,-23.925,-131.53,1
5.6839,0.82,0.168,0.751,99.243,-15.136,-133.911,1
5.690482,0.787,0.08,0.793,100.097,-5.432,-135.437,1
5.698454,0.765,0.023,0.799,88.134,6.225,-135.62,1
5.704989,0.649,0.009,0.775,70.434,16.662,-135.375,1
5.713394,0.639,-0.007,0.769,66.223,26.184,-134.765,1
5.720818,0.592,-0.027,0.732,78.918,33.569,-132.812,1
5.729292,0.463,-0.085,0.677,96.923,40.344,-130.432,1
5.735594,0.545,-0.229,0.574,110.656,48.95,-126.892,1
5.743486,0.59,-0.348,0.472,107.666,57.861,-122.68,1
5.750427,0.638,-0.395,0.384,113.342,65.795,-117.553,1
5.758544,0.648,-0.467,0.261,128.417,71.166,-111.633,1
5.765462,0.513,-0.511,0.22,146.911,76.416,-105.041,1
5.772461,0.27,-0.603,0.184,150.512,81.359,-99.182,1
5.780373,0.317,-0.8,0.215,109.374,93.811,-91.857,1
5.78708,0.239,-0.946,0.181,34.973,106.384,-82.519,1
5.794196,0.151,-0.86,0.281,-3.234,112.915,-75.012,1
5.802553,-0.088,-0.796,0.384,17.944,118.225,-68.725,1
5.809455,-0.291,-0.84,0.403,50.17,121.643,-62.683,1
5.816573,-0.465,-0.916,0.443,67.932,127.868,-56.884,1
5.825144,-0.67,-0.958,0.45,73.852,134.033,-51.696,1
5.831654,-0.833,-0.978,0.469,82.824,141.113,-45.41,1
5.839686,-1.015,-1.006,0.47,101.318,148.376,-38.146,1
5.846496,-1.215,-1.074,0.458,123.779,154.663,-29.479,1
5.854311,-1.391,-1.177,0.451,142.578,163.208,-18.737,1
5.861616,-1.522,-1.349,0.424,144.47,173.828,-5.554,1
5.869803,-1.6,-1.517,0.358,118.408,187.438,10.742,1
5.876393,-1.649,-1.599,0.286,87.646,201.11,28.747,1
5.884456,-1.797,-1.608,0.229,78.43,210.876,43.212,1
5.891128,-2.058,-1.636,0.169,80.932,221.984,64.025,1
5.898079,-2.178,-1.589,0.112,112.487,228.759,85.876,1
5.90609,-2.247,-1.708,-0.058,136.047,237.548,111.145,1
5.913101,-2.604,-1.755,-0.24,110.107,244.201,137.39,1
5.921067,-2.886,-1.689,-0.27,92.285,253.295,159.118,1
5.927382,-3.141,-1.65,-0.413,79.711,260.803,186.035,1
5.934624,-3.418,-1.686,-0.532,56.396,268.737,214.294,1
5.942573,-3.795,-1.734,-0.648,2.99,278.015,242.187,1
5.949562,-4.138,-1.741,-0.666,-56.945,294.494,270.874,1
5.958236,-4.591,-1.708,-0.787,-113.342,310.241,299.072,1
5.96676,-5.124,-1.646,-0.811,-149.475,329.345,328.063,1
5.973841,-5.705,-1.592,-0.894,-168.09,347.412,358.52,1
5.982008,-6.551,-1.585,-0.952,-178.894,367.492,390.197,1
5.990222,-7.285,-1.599,-1.08,-189.88,393.31,429.87,1
5.996934,-8.007,-1.621,-1.185,-184.387,415.1,466.186,1
6.005524,-8.891,-1.678,-1.334,-164.245,437.072,507.385,1
6.012555,-9.8,-1.7,-1.497,-119.995,455.749,552.795,1
6.020936,-10.808,-1.77,-1.729,-71.716,472.9,604.614,1
6.029009,-12.104,-1.826,-2.039,-36.926,487.304,661.254,1
6.036917,-13.869,-1.878,-2.442,2.99,495.666,722.656,1
6.043586,-15.519,-1.847,-2.746,76.477,492.492,800.231,1
6.05179,-15.992,-1.778,-3.059,161.01,477.966,872.07,1
6.059938,-15.999,-1.599,-3.387,258.605,444.091,949.34,1
6.066879,-15.999,-1.325,-3.68,373.352,389.221,1031.677,1
6.075203,-15.999,-0.915,-3.936,486.572,306.518,1115.966,1
6.081857,-15.999,-0.294,-4.0,608.886,193.42,1198.547,1
6.089795,-15.999,0.533,-3.839,735.412,47.424,1272.766,1
6.096794,-15.999,1.438,-3.419,819.335,-119.506,1328.735,1
6.104989,-15.999,2.33,-2.698,843.566,-294.433,1361.694,1
6.112967,-15.999,3.14,-1.803,825.805,-461.12,1366.638,1
6.119896,-15.999,3.868,-1.025,760.314,-613.952,1346.13,1
6.128509,-15.999,4.453,-0.154,693.054,-757.202,1305.786,1
6.136515,-15.999,5.003,0.916,686.584,-896.911,1248.779,1
6.14472,-15.999,5.251,1.841,778.137,-1073.242,1154.357,1
6.151531,-15.999,5.245,3.01,901.55,-1233.154,1042.968,1
6.159622,-15.999,4.367,4.199,955.2,-1377.319,911.376,1
6.167864,-15.999,4.469,5.355,1018.92,-1490.722,770.629,1
6.175269,-15.999,5.333,6.172,1231.506,-1594.482,546.325,1
6.183442,-15.999,4.817,6.407,1369.323,-1654.418,313.659,1
6.189966,-15.999,4.07,6.354,1297.546,-1648.498,78.063,1
6.198379,-15.999,4.16,6.264,1222.656,-1601.501,-132.08,1
6.205014,-15.999,4.136,5.913,1237.426,-1529.968,-305.419,1
6.213567,-15.999,3.254,5.602,1248.962,-1415.039,-508.483,1
6.220303,-15.999,2.22,5.083,1189.819,-1267.883,-685.79,1
6.227389,-15.999,0.721,4.395,1059.082,-1096.557,-818.969,1
6.23535,-15.999,0.033,3.841,902.526,-937.072,-903.686,1
6.243208,-15.999,-0.409,3.667,785.522,-787.841,-954.589,1
6.250431,-15.999,-0.938,3.181,632.751,-631.225,-982.177,1
6.258906,-15.999,-1.248,2.972,497.68,-536.56,-981.323,1
6.265663,-15.999,-1.487,2.972,318.542,-431.274,-956.665,1
6.274426,-15.999,-1.767,3.042,258.544,-375.427,-927.612,1
6.281057,-15.999,-2.08,3.082,280.7,-315.185,-891.235,1
6.289473,-14.745,-2.462,2.964,372.924,-252.929,-848.083,1
6.297863,-12.923,-2.864,2.792,467.285,-190.002,-811.34,1
6.304615,-11.536,-3.274,2.552,508.605,-125.061,-770.446,1
6.311715,-10.347,-3.577,2.287,504.455,-52.246,-723.266,1
6.319997,-9.388,-3.688,1.95,460.205,7.629,-672.546,1
6.328119,-8.477,-3.599,1.651,421.264,60.119,-619.262,1
6.335062,-7.466,-3.399,1.193,409.301,96.923,-566.345,1
6.343386,-6.893,-3.291,0.964,398.62,130.249,-512.207,1
6.350022,-6.395,-3.078,0.646,369.75,154.907,-458.618,1
6.357982,-5.93,-2.752,0.429,347.961,173.583,-406.005,1
6.366479,-5.477,-2.504,0.211,336.059,185.668,-356.14,1
6.373173,-5.035,-2.33,0.05,316.223,194.213,-301.513,1
6.381578,-4.695,-2.168,-0.094,288.879,196.533,-258.422,1
6.38858,-4.297,-2.087,-0.264,254.15,197.937,-219.848,1
6.396426,-3.896,-1.991,-0.339,210.632,195.251,-185.119,1
6.404979,-3.443,-1.894,-0.382,190.795,189.697,-154.113,1
6.413099,-3.067,-1.801,-0.42,188.964,180.419,-125.183,1
6.421107,-2.74,-1.676,-0.397,196.35,170.288,-93.933,1
6.429044,-2.455,-1.537,-0.379,207.458,160.095,-69.58,1
6.437622,-2.201,-1.446,-0.34,223.815,149.353,-43.212,1
6.44482,-1.953,-1.365,-0.311,234.191,140.136,-22.216,1
6.453317,-1.75,-1.283,-0.273,237.182,131.896,-2.502,1
6.461588,-1.555,-1.192,-0.24,229.248,124.389,15.502,1
6.469294,-1.405,-1.121,-0.214,213.073,117.431,31.738,1
6.475983,-1.256,-1.069,-0.188,191.406,109.802,48.828,1
6.483692,-1.089,-1.022,-0.172,172.729,103.515,62.194,1
6.492055,-1.008,-0.933,-0.146,152.587,96.618,73.791,1
6.499778,-0.865,-0.902,-0.142,128.54,91.979,83.312,1
6.507982,-0.782,-0.837,-0.118,99.731,85.021,91.735,1
6.515765,-0.665,-0.76,-0.064,82.214,78.186,100.036,1
6.523728,-0.61,-0.677,-0.012,84.411,69.274,105.712,1
6.53058,-0.579,-0.616,0.048,100.341,60.974,111.083,1
6.539025,-0.458,-0.58,0.086,121.032,50.842,115.295,1
6.54561,-0.421,-0.538,0.148,142.517,42.114,119.079,1
6.553575,-0.302,-0.525,0.171,158.569,33.447,121.582,1
6.560334,-0.346,-0.51,0.229,155.761,28.381,123.046,1
6.56773,-0.322,-0.498,0.237,138.0,24.108,123.535,1
6.57609,-0.306,-0.474,0.311,114.868,21.484,124.267,1
6.583075,-0.229,-0.448,0.352,93.078,20.202,124.023,1
6.591395,-0.171,-0.404,0.436,74.89,18.859,123.413,1
6.599433,-0.209,-0.383,0.474,62.011,19.165,122.009,1
6.605926,-0.244,-0.384,0.524,55.358,18.31,119.995,1
6.61411,-0.18,-0.405,0.557,57.739,18.005,118.041,1
6.62223,-0.12,-0.443,0.585,65.612,16.174,116.638,1
6.631753,-0.039,-0.459,0.623,76.599,16.54,115.844,1
6.638254,0.052,-0.576,0.609,73.486,15.93,114.99,1
6.647219,0.121,-0.604,0.632,62.866,18.554,114.868,1
6.655466,0.21,-0.605,0.655,52.551,19.531,114.013,1
6.662008,0.242,-0.586,0.676,50.964,21.911,113.403,1
6.669023,0.255,-0.567,0.671,50.048,22.033,113.098,1
6.677411,0.251,-0.542,0.683,49.133,23.559,111.999,1
6.684326,0.25,-0.506,0.678,53.161,23.193,111.511,1
6.692647,0.286,-0.488,0.694,58.044,23.437,111.083,1
6.699525,0.22,-0.5,0.662,59.204,23.62,109.924,1
6.708005,0.3,-0.496,0.659,58.288,23.132,109.68,1
6.71465,0.312,-0.483,0.645,63.171,22.888,109.497,1
6.72314,0.389,-0.487,0.661,67.199,20.629,109.497,1
6.729683,0.377,-0.492,0.677,66.589,20.812,109.13,1
6.737676,0.348,-0.489,0.689,61.157,20.08,108.642,1
6.744355,0.361,-0.48,0.707,52.612,21.545,108.032,1
6.752907,0.353,-0.464,0.727,51.391,21.179,107.36,1
6.759348,0.405,-0.479,0.745,56.701,20.751,107.116,1
6.766035,0.479,-0.49,0.748,62.255,21.118,106.933,1
6.77387,0.524,-0.496,0.746,65.429,20.446,106.933,1
6.780957,0.537,-0.485,0.752,70.983,20.996,106.994,1
6.787978,0.567,-0.48,0.756,77.026,20.751,107.055,1
6.795845,0.562,-0.463,0.759,82.336,22.033,106.933,1
6.804222,0.566,-0.451,0.74,83.679,22.399,106.201,1
6.810855,0.573,-0.421,0.742,84.655,23.315,106.14,1
6.817861,0.563,-0.393,0.729,85.083,23.559,105.529,1
6.82492,0.541,-0.383,0.73,85.205,23.925,104.309,1
6.833008,0.528,-0.373,0.722,83.984,25.573,103.515,1
6.839947,0.557,-0.365,0.703,83.984,25.329,102.111,1
6.847961,0.606,-0.374,0.696,85.571,26.062,101.379,1
6.854924,0.649,-0.383,0.668,88.134,25.878,100.769,1
6.862312,0.666,-0.389,0.647,88.806,25.939,99.914,1
6.870577,0.683,-0.391,0.628,91.735,25.878,99.609,1
6.877439,0.728,-0.393,0.599,98.693,24.658,99.121,1
6.884366,0.809,-0.396,0.586,108.398,22.827,99.487,1
6.892685,0.838,-0.39,0.581,116.821,21.24,99.914,1
6.901088,0.82,-0.377,0.575,120.544,20.568,100.646,1
6.907612,0.805,-0.347,0.567,119.628,19.287,101.196,1
6.915416,0.783,-0.301,0.571,120.666,18.554,101.318,1
6.922326,0.768,-0.256,0.563,123.474,17.089,100.708,1
6.930291,0.747,-0.232,0.56,125.061,16.54,99.853,1
6.936874,0.719,-0.224,0.543,122.985,15.869,98.754,1
6.94368,0.698,-0.214,0.536,119.445,15.624,97.656,1
6.952094,0.71,-0.212,0.514,115.6,16.296,96.496,1
6.958678,0.73,-0.207,0.491,114.685,16.479,95.581,1
6.965748,0.763,-0.204,0.462,120.117,16.235,94.36,1
6.973807,0.791,-0.212,0.433,124.877,15.38,93.933,1
6.980808,0.799,-0.206,0.411,131.164,14.465,93.078,1
6.988756,0.792,-0.202,0.372,136.108,13.366,92.041,1
6.99537,0.781,-0.2,0.349,139.404,12.207,91.613,1
7.003313,0.791,-0.204,0.32,138.732,11.23,91.43,1
7.01173,0.822,-0.207,0.307,132.141,10.498,91.308,1
7.018789,0.833,-0.185,0.316,122.985,9.521,91.369,1
7.025312,0.809,-0.157,0.321,116.516,9.216,91.247,1
7.032331,0.794,-0.124,0.33,114.013,7.995,90.759,1
7.041181,0.764,-0.093,0.34,114.074,7.385,90.148,1
7.04882,0.732,-0.076,0.337,116.76,6.225,89.111,1
7.055398,0.71,-0.06,0.342,121.643,5.432,87.768,1
7.064091,0.732,-0.069,0.334,128.723,4.211,86.791,1
7.070808,0.773,-0.084,0.321,133.483,3.173,85.876,1
7.079415,0.799,-0.101,0.314,134.277,2.258,85.327,1
7.086154,0.818,-0.111,0.303,131.286,2.075,85.021,1
7.094276,0.837,-0.115,0.296,126.159,2.014,85.205,1
7.102557,0.842,-0.104,0.286,120.849,1.77,85.266,1
7.110819,0.836,-0.079,0.29,116.149,1.892,85.327,1
7.117937,0.83,-0.056,0.299,111.694,1.342,84.899,1
7.126822,0.817,-0.041,0.32,108.154,1.22,84.533,1
7.134322,0.825,-0.024,0.331,107.482,0.366,84.228,1
7.141382,0.839,-0.009,0.346,112.426,-0.305,83.74,1
7.149818,0.85,-0.016,0.351,114.257,-1.647,83.435,1
7.159144,0.836,-0.026,0.352,111.267,-1.647,82.946,1
7.166875,0.838,-0.025,0.354,103.027,-1.464,82.275,1
7.173775,0.866,-0.026,0.345,96.435,-1.098,81.97,1
7.182632,0.893,-0.01,0.35,92.834,-0.122,81.237,1
7.189922,0.907,0.003,0.334,91.491,0.366,80.932,1
7.199264,0.895,0.015,0.324,89.111,1.342,80.2,1
7.206786,0.89,0.019,0.304,85.632,2.38,79.467,1
7.213723,0.885,0.023,0.293,81.481,3.723,79.223,1
7.221134,0.886,0.032,0.272,76.782,5.004,78.491,1
7.230039,0.908,0.04,0.263,71.838,5.493,77.758,1
7.237331,0.935,0.058,0.262,71.289,6.53,77.575,1
7.244538,0.945,0.053,0.274,72.265,5.92,77.331,1
7.25345,0.945,0.07,0.276,72.875,7.019,77.331,1
7.261704,0.938,0.064,0.267,69.335,5.493,77.148,1
7.269313,0.937,0.075,0.272,67.199,7.141,77.27,1
7.276619,0.958,0.083,0.262,64.025,6.286,77.392,1
7.285217,0.968,0.07,0.273,60.363,8.239,77.392,1
7.292806,0.986,0.111,0.26,59.02,9.033,77.392,1
7.302621,1.005,0.133,0.26,63.049,9.948,77.331,1
7.308817,0.995,0.16,0.23,70.556,10.314,76.538,1
7.318208,0.988,0.166,0.223,76.965,10.681,76.232,1
7.325699,1.006,0.172,0.194,81.726,10.681,75.622,1
7.334382,1.026,0.173,0.186,84.106,10.62,75.5,1
7.342168,1.033,0.181,0.18,83.801,11.474,75.378,1
7.349684,1.026,0.19,0.178,79.895,12.084,75.195,1
7.357353,1.003,0.196,0.175,73.73,13.549,75.073,1
7.36432,0.97,0.214,0.177,67.504,14.709,74.34,1
7.372056,0.951,0.229,0.169,62.561,16.296,73.608,1
7.3802,0.943,0.24,0.169,59.753,17.639,72.753,1
7.38732,0.951,0.252,0.165,60.485,19.104,72.143,1
7.394974,0.975,0.261,0.158,63.842,20.08,71.716,1
7.402487,0.984,0.278,0.151,69.152,20.812,71.411,1
7.411386,0.981,0.296,0.134,74.584,21.545,70.8,1
7.419995,0.975,0.301,0.122,78.552,21.728,70.434,1
7.427362,0.973,0.306,0.111,81.604,22.399,70.251,1
7.434818,0.969,0.305,0.102,79.956,23.01,69.58,1
7.443925,0.941,0.311,0.1,73.852,24.841,69.58,1
7.452265,0.911,0.322,0.093,63.72,26.916,68.969,1
7.459452,0.891,0.343,0.095,55.48,29.052,68.359,1
7.466726,0.897,0.371,0.091,51.635,31.005,68.054,1
7.474229,0.892,0.395,0.085,52.734,32.348,67.443,1
7.482977,0.878,0.415,0.077,57.861,33.569,66.589,1
7.490512,0.87,0.425,0.061,63.11,34.851,65.612,1
7.496601,0.861,0.419,0.043,65.856,36.315,64.392,1
7.503831,0.858,0.425,0.031,66.162,37.719,64.27,1
7.511337,0.855,0.431,0.015,64.575,39.123,63.72,1
7.51902,0.859,0.446,0.004,62.683,39.916,62.988,1
7.526424,0.845,0.45,-0.006,60.729,40.771,62.316,1
7.534069,0.84,0.462,-0.008,59.692,41.32,61.828,1
7.543207,0.846,0.47,-0.014,61.096,41.87,61.645,1
7.550674,0.846,0.508,-0.022,64.086,42.541,61.096,1
7.559994,0.834,0.525,-0.03,66.589,43.151,60.18,1
7.567335,0.822,0.535,-0.042,67.443,44.311,59.326,1
7.57509,0.807,0.539,-0.059,65.551,45.898,58.166,1
7.583715,0.785,0.537,-0.074,60.974,47.546,57.25,1
7.590912,0.802,0.53,-0.09,55.419,49.255,56.335,1
7.598898,0.792,0.526,-0.105,49.682,51.025,55.236,1
7.6075,0.791,0.509,-0.118,48.583,51.94,54.687,1
7.614679,0.8,0.492,-0.127,49.926,52.368,54.504,1
7.621814,0.796,0.466,-0.144,51.025,53.588,54.748,1
7.630875,0.783,0.462,-0.166,49.377,53.771,55.053,1
7.637034,0.756,0.463,-0.185,45.654,54.687,54.87,1
7.645672,0.722,0.46,-0.203,41.564,55.236,54.87,1
7.653812,0.702,0.447,-0.214,37.902,55.908,54.687,1
7.661976,0.68,0.436,-0.218,35.888,56.64,54.809,1
7.66831,0.66,0.421,-0.225,33.63,57.128,54.687,1
7.677677,0.661,0.392,-0.227,31.066,57.861,54.443,1
7.684359,0.672,0.364,-0.222,28.808,58.166,54.443,1
7.692027,0.693,0.334,-0.208,27.893,58.349,54.992,1
7.700011,0.725,0.313,-0.2,27.648,58.105,56.152,1
7.707654,0.752,0.295,-0.186,27.343,58.105,57.861,1
7.715881,0.768,0.278,-0.18,25.817,57.983,59.753,1
7.723438,0.746,0.261,-0.18,22.094,58.044,62.194,1
7.732871,0.744,0.244,-0.17,17.944,58.593,64.575,1
7.739908,0.73,0.234,-0.17,13.0,59.448,68.298,1
7.74882,0.704,0.239,-0.175,9.338,60.791,71.777,1
7.756147,0.69,0.248,-0.185,8.728,61.157,74.768,1
7.764717,0.673,0.253,-0.191,10.62,61.706,78.063,1
7.773329,0.659,0.25,-0.198,13.183,62.438,80.688,1
7.780432,0.631,0.247,-0.198,14.221,63.354,83.862,1
7.789425,0.585,0.252,-0.198,13.244,64.453,85.51,1
7.796075,0.555,0.256,-0.195,11.108,65.551,87.829,1
7.805298,0.513,0.266,-0.189,8.422,67.993,90.209,1
7.812531,0.459,0.287,-0.183,5.249,69.58,92.468,1
7.819824,0.389,0.373,-0.174,14.831,72.326,94.36,1
7.82854,0.386,0.411,-0.191,35.949,70.983,95.642,1
7.836125,0.379,0.425,-0.194,52.917,71.594,97.717,1
7.844953,0.375,0.448,-0.229,50.537,71.655,99.182,1
7.852322,0.367,0.509,-0.218,40.527,73.791,100.585,1
7.860648,0.333,0.596,-0.25,29.479,74.401,101.013,1
7.870037,0.282,0.677,-0.25,29.724,75.195,101.074,1
7.877374,0.278,0.777,-0.271,38.024,74.096,100.952,1
7.886412,0.253,0.854,-0.291,52.368,72.875,100.402,1
7.893773,0.243,0.876,-0.329,57.8,71.35,98.815,1
7.900397,0.233,0.938,-0.356,52.062,71.777,97.778,1
7.908236,0.239,1.003,-0.381,37.475,70.922,95.886,1
7.916372,0.249,1.098,-0.388,24.108,71.838,93.566,1
7.92378,0.23,1.17,-0.414,15.441,70.861,89.965,1
7.932418,0.226,1.225,-0.423,15.441,70.8,86.181,1
7.941141,0.213,1.294,-0.464,13.854,69.702,81.298,1
7.949949,0.279,1.347,-0.485,14.648,68.603,75.866,1
7.957924,0.277,1.357,-0.522,15.258,67.016,71.899,1
7.96499,0.333,1.387,-0.55,14.099,65.246,67.626,1
7.973437,0.39,1.405,-0.563,19.714,62.561,63.171,1
7.982045,0.44,1.415,-0.584,24.291,60.18,59.326,1
7.992591,0.465,1.422,-0.592,29.174,57.006,54.992,1
7.999719,0.505,1.419,-0.597,33.264,54.382,51.086,1
8.007077,0.522,1.411,-0.603,34.606,52.124,47.485,1
8.015711,0.545,1.396,-0.605,32.958,49.804,43.64,1
8.024438,0.574,1.384,-0.607,29.235,48.217,39.489,1
8.033686,0.61,1.371,-0.607,28.625,45.776,36.315,1
8.041851,0.624,1.351,-0.611,28.93,43.884,33.325,1
8.048909,0.632,1.329,-0.614,28.259,41.503,30.273,1
8.058693,0.642,1.307,-0.611,23.742,39.672,28.076,1
8.066209,0.655,1.291,-0.601,17.211,37.902,25.39,1
8.074513,0.666,1.287,-0.588,15.38,36.315,22.827,1
8.082376,0.679,1.279,-0.573,20.507,33.752,20.202,1
8.089985,0.681,1.263,-0.568,29.541,31.555,17.822,1
8.098301,0.687,1.239,-0.551,38.635,29.174,15.808,1
8.105306,0.692,1.214,-0.546,45.166,26.977,13.732,1
8.114712,0.681,1.189,-0.546,46.142,25.39,11.596,1
8.121839,0.673,1.172,-0.548,38.94,24.78,9.582,1
8.129033,0.67,1.16,-0.542,29.602,24.108,7.69,1
8.138004,0.677,1.161,-0.53,20.446,23.742,5.676,1
8.145117,0.683,1.157,-0.499,15.014,23.498,3.662,1
8.153018,0.669,1.156,-0.479,14.77,23.01,0.732,1
8.163204,0.659,1.145,-0.456,18.798,22.399,-1.281,1
8.170886,0.658,1.122,-0.446,22.949,22.216,-4.272,1
8.179971,0.75,1.088,-0.429,36.315,21.423,-7.019,1
8.18733,0.556,1.072,-0.429,36.865,22.888,-8.178,1
8.19557,0.644,1.078,-0.45,29.907,21.972,-10.437,1
8.203134,0.604,1.078,-0.412,28.503,24.23,-12.512,1
8.21223,0.591,1.071,-0.458,15.93,24.291,-14.221,1
8.219484,0.628,1.062,-0.406,2.685,26.062,-16.235,1
8.229155,0.621,1.068,-0.43,-7.934,27.526,-18.371,1
8.238368,0.604,1.08,-0.395,-13.244,28.259,-20.019,1
8.245676,0.608,1.09,-0.409,-11.657,28.808,-22.644,1
8.25387,0.583,1.091,-0.396,-7.873,28.747,-24.719,1
8.262864,0.594,1.089,-0.408,-5.31,28.198,-26.245,1
8.270272,0.586,1.077,-0.394,-1.525,28.015,-28.442,1
8.279418,0.585,1.077,-0.4,0.671,27.954,-30.09,1
8.28648,0.588,1.059,-0.386,1.342,27.77,-31.738,1
8.295901,0.593,1.052,-0.381,-0.122,28.137,-33.264,1
8.304443,0.586,1.052,-0.37,-2.868,28.991,-35.339,1
8.312412,0.587,1.056,-0.365,-5.126,29.846,-37.17,1
8.320433,0.572,1.057,-0.36,-7.202,30.578,-38.94,1
8.328601,0.575,1.057,-0.354,-8.056,31.005,-41.442,1
8.337802,0.583,1.054,-0.35,-6.958,31.311,-43.395,1
8.344659,0.591,1.041,-0.356,-5.737,31.188,-45.349,1
8.353208,0.606,1.036,-0.35,-3.967,31.188,-47.607,1
8.361343,0.619,1.021,-0.348,-0.915,30.761,-49.438,1
8.368524,0.63,0.997,-0.347,2.929,30.029,-51.147,1
8.375452,0.647,0.973,-0.343,5.737,29.968,-52.49,1
8.383908,0.66,0.948,-0.334,6.286,29.541,-53.955,1
8.392242,0.682,0.92,-0.328,5.249,29.724,-54.992,1
8.398605,0.698,0.903,-0.32,4.333,29.785,-55.908,1
8.40639,0.706,0.887,-0.317,3.173,29.785,-56.64,1
8.413962,0.703,0.884,-0.316,1.525,29.663,-57.556,1
8.423099,0.702,0.879,-0.321,0.488,29.846,-58.166,1
8.430525,0.703,0.874,-0.321,0.976,29.846,-59.265,1
8.437509,0.703,0.882,-0.326,3.173,29.174,-60.18,1
8.444688,0.692,0.894,-0.329,8.605,28.137,-61.157,1
8.452739,0.69,0.9,-0.332,17.395,26.977,-61.95,1
8.460033,0.686,0.904,-0.335,28.381,25.756,-63.232,1
8.470323,0.676,0.899,-0.336,39.978,24.658,-64.392,1
8.478807,0.665,0.877,-0.337,50.842,23.803,-65.185,1
8.486938,0.671,0.86,-0.338,57.25,23.559,-65.979,1
8.494137,0.664,0.839,-0.351,55.603,24.414,-66.467,1
8.502426,0.661,0.824,-0.366,47.79,25.329,-67.077,1
8.511364,0.668,0.817,-0.378,33.813,26.672,-67.81,1
8.517894,0.681,0.807,-0.399,21.423,27.587,-68.542,1
8.525414,0.689,0.796,-0.419,10.192,28.076,-69.335,1
8.534606,0.701,0.785,-0.424,2.929,27.648,-69.824,1
8.543894,0.749,0.804,-0.422,4.333,26.245,-70.495,1
8.551554,0.652,0.804,-0.409,24.108,23.62,-70.19,1
8.559745,0.634,0.81,-0.443,39.428,20.751,-70.312,1
8.568992,0.667,0.814,-0.419,55.969,18.737,-70.739,1
8.57689,0.638,0.804,-0.439,70.739,16.845,-70.861,1
8.584124,0.63,0.791,-0.436,74.951,16.296,-70.922,1
8.592878,0.641,0.787,-0.452,71.289,16.418,-71.35,1
8.599358,0.619,0.783,-0.45,62.194,16.845,-71.594,1
8.606767,0.609,0.785,-0.451,50.231,17.944,-72.326,1
8.614626,0.605,0.788,-0.444,35.217,18.432,-73.547,1
8.621528,0.613,0.777,-0.437,23.437,19.47,-74.462,1
8.629112,0.634,0.764,-0.437,12.023,20.141,-75.378,1
8.637023,0.635,0.739,-0.431,0.061,21.362,-76.232,1
8.64529,0.639,0.735,-0.437,-10.07,21.85,-76.599,1
8.653443,0.637,0.748,-0.423,-12.939,21.911,-76.904,1
8.659961,0.638,0.778,-0.418,-5.065,21.118,-77.209,1
8.668379,0.638,0.803,-0.404,10.131,19.897,-77.758,1
8.675457,0.641,0.814,-0.399,25.39,19.165,-78.491,1
8.681999,0.634,0.819,-0.393,36.376,18.859,-79.467,1
8.690259,0.646,0.82,-0.384,38.94,19.958,-80.444,1
8.696978,0.654,0.818,-0.375,31.555,21.911,-82.031,1
8.705302,0.657,0.816,-0.363,17.517,24.414,-83.862,1
8.711725,0.652,0.828,-0.347,0.488,27.404,-85.693,1
8.720367,0.749,0.814,-0.333,-5.676,29.113,-88.256,1
8.727066,0.603,0.813,-0.335,-19.104,32.653,-90.148,1
8.734932,0.667,0.833,-0.335,-42.724,33.813,-92.956,1
8.74208,0.688,0.849,-0.323,-52.917,36.743,-95.642,1
8.750483,0.661,0.847,-0.334,-60.241,37.536,-97.412,1
8.758861,0.656,0.868,-0.32,-62.438,36.804,-99.914,1
8.765609,0.679,0.892,-0.317,-50.109,35.949,-102.416,1
8.773509,0.657,0.874,-0.317,-36.804,34.118,-104.37,1
8.781758,0.71,0.913,-0.302,-24.169,32.836,-107.788,1
8.788525,0.688,0.934,-0.293,-10.803,31.982,-110.717,1
8.796883,0.652,0.931,-0.307,-3.906,31.311,-114.074,1
8.803509,0.655,0.93,-0.305,-6.652,31.066,-117.492,1
8.81178,0.671,0.934,-0.307,-13.977,31.372,-121.215,1
8.81836,0.655,0.899,-0.325,-25.817,30.944,-124.633,1
8.826726,0.755,0.906,-0.299,-39.794,30.09,-129.272,1
8.833619,0.68,0.937,-0.291,-44.006,29.907,-132.934,1
8.841465,0.683,0.953,-0.307,-41.992,27.282,-136.596,1
8.848403,0.707,0.958,-0.301,-33.02,24.475,-140.991,1
8.856735,0.728,0.966,-0.325,-23.071,20.08,-144.592,1
8.864025,0.72,0.97,-0.326,-9.704,16.418,-148.742,1
8.871765,0.727,0.977,-0.348,6.835,11.108,-152.038,1
8.87973,0.74,0.98,-0.348,28.564,5.798,-155.761,1
8.888059,0.77,0.99,-0.357,52.734,0.793,-159.057,1
8.896403,0.799,0.974,-0.374,74.584,-4.516,-162.841,1
8.903182,0.754,0.988,-0.376,86.547,-7.751,-165.588,1
8.910294,0.805,0.97,-0.386,90.148,-10.803,-168.518,1
8.918397,0.848,1.042,-0.383,85.754,-13.61,-169.677,1
8.925533,0.976,1.12,-0.381,86.364,-18.92,-173.156,1
8.933849,0.833,1.153,-0.381,102.6,-21.179,-176.208,1
8.940533,0.706,1.128,-0.405,112.915,-25.024,-178.161,1
8.948832,0.625,1.11,-0.411,124.084,-29.479,-181.274,1
8.955434,0.568,1.083,-0.426,137.695,-31.799,-184.326,1
8.962362,0.474,1.04,-0.384,152.16,-35.461,-187.622,1
8.9709,0.426,0.976,-0.367,167.968,-36.743,-189.941,1
8.979619,0.451,0.924,-0.34,189.331,-38.024,-191.711,1
8.986249,0.392,0.836,-0.298,209.411,-38.879,-192.932,1
8.994961,0.546,0.697,-0.276,227.294,-35.4,-193.176,1
9.001666,0.511,0.675,-0.244,233.703,-33.386,-192.382,1
9.010058,0.545,0.659,-0.239,238.525,-27.282,-191.04,1
9.016729,0.559,0.679,-0.25,236.45,-23.132,-190.246,1
9.024617,0.503,0.698,-0.26,237.853,-16.601,-190.124,1
9.031508,0.362,0.691,-0.307,227.722,-5.859,-190.978,1
9.040246,0.235,0.611,-0.358,185.058,8.483,-192.871,1
9.047316,0.105,0.556,-0.352,122.131,24.353,-197.448,1
9.056138,0.204,0.55,-0.301,72.204,41.503,-200.927,1
9.063137,0.315,0.599,-0.306,57.25,51.879,-204.101,1
9.070324,0.139,0.581,-0.258,78.613,56.213,-207.397,1
9.079025,0.001,0.452,-0.275,107.543,59.692,-207.946,1
9.08582,-0.139,0.323,-0.274,129.455,59.753,-207.702,1
9.092706,-0.208,0.163,-0.222,137.268,65.185,-205.932,1
9.101329,-0.225,0.019,-0.204,119.934,72.509,-203.491,1
9.109792,-0.286,-0.091,-0.196,83.068,81.787,-200.012,1
9.116879,-0.356,-0.183,-0.184,36.682,90.637,-197.326,1
9.125552,-0.423,-0.218,-0.177,-14.221,99.731,-193.481,1
9.132543,-0.504,-0.223,-0.123,-42.907,104.675,-190.612,1
9.140566,-0.592,-0.215,-0.103,-53.833,109.619,-188.171,1
9.148153,-0.675,-0.217,-0.057,-46.874,113.037,-185.546,1
9.155313,-0.78,-0.225,-0.047,-28.625,116.516,-183.654,1
9.163511,-0.921,-0.248,-0.045,-14.831,119.323,-181.823,1
9.173101,-1.01,-0.312,-0.075,1.22,125.244,-178.833,1
9.180005,-1.091,-0.417,-0.098,4.028,131.896,-174.072,1
9.188463,-1.159,-0.508,-0.13,-0.244,137.878,-169.128,1
9.195453,-1.232,-0.564,-0.089,3.051,142.944,-163.208,1
9.204148,-1.252,-0.644,-0.104,17.761,148.864,-156.311,1
9.212944,-1.349,-0.76,-0.103,39.367,155.09,-145.812,1
9.220074,-1.422,-0.867,-0.131,56.64,160.766,-135.131,1
9.227243,-1.476,-0.993,-0.158,73.12,166.625,-122.497,1
9.234987,-1.626,-1.096,-0.19,89.233,172.546,-107.36,1
9.242914,-1.805,-1.182,-0.197,103.393,179.626,-90.454,1
9.251663,-2.001,-1.35,-0.206,102.661,189.208,-71.716,1
9.258177,-2.05,-1.578,-0.25,70.495,202.27,-51.147,1
9.265575,-2.141,-1.745,-0.26,26.428,214.599,-28.93,1
9.274428,-2.281,-1.81,-0.25,-3.662,227.844,-2.319,1
9.282402,-2.43,-1.875,-0.261,-6.774,235.717,20.751,1
9.291103,-2.7,-1.92,-0.272,17.272,243.652,50.72,1
9.297788,-2.95,-1.973,-0.327,49.621,247.192,78.186,1
9.304697,-3.205,-2.053,-0.385,83.679,250.549,109.252,1
9.312642,-3.5,-2.131,-0.475,113.22,252.807,143.066,1
9.321378,-3.922,-2.203,-0.545,135.009,254.577,179.443,1
9.329673,-4.389,-2.346,-0.641,138.427,256.53,218.933,1
9.3368,-4.872,-2.544,-0.726,112.67,260.681,261.413,1
9.343776,-5.347,-2.682,-0.776,72.143,265.808,306.701,1
9.352799,-5.949,-2.801,-0.77,38.146,272.705,355.59,1
9.35976,-6.389,-3.053,-0.856,-2.868,282.409,418.09,1
9.368583,-7.111,-3.235,-0.921,-40.1,295.349,476.379,1
9.376933,-8.445,-3.312,-0.946,-15.991,306.579,549.804,1
9.38503,-9.616,-3.513,-1.117,71.533,306.945,621.643,1
9.393453,-10.97,-3.815,-1.455,171.813,297.058,717.529,1
9.401205,-12.906,-4.017,-1.747,208.007,278.625,807.25,1
9.408297,-15.012,-3.988,-2.016,248.718,254.882,901.367,1
9.415481,-15.989,-3.702,-2.36,310.546,212.585,997.314,1
9.423673,-15.999,-3.346,-2.592,404.724,149.841,1093.811,1
9.432098,-15.999,-2.8,-2.784,497.68,58.654,1186.035,1
9.438411,-15.999,-2.103,-2.78,583.251,-54.992,1270.69,1
9.446804,-15.999,-1.306,-2.642,658.508,-192.382,1341.613,1
9.453404,-15.999,-0.429,-2.281,731.201,-350.097,1393.066,1
9.461323,-15.999,0.481,-1.751,797.363,-523.986,1417.724,1
9.468127,-15.999,1.375,-1.085,840.148,-702.758,1413.146,1
9.476068,-15.999,2.219,-0.21,869.14,-881.103,1380.798,1
9.482594,-15.999,3.054,0.88,890.136,-1047.79,1312.805,1
9.491355,-15.999,3.551,1.757,878.967,-1174.987,1237.182,1
9.498161,-15.999,3.647,2.721,828.491,-1316.223,1127.746,1
9.506967,-15.999,3.647,3.864,760.559,-1433.166,1018.981,1
9.513604,-15.999,4.126,5.139,797.18,-1521.911,880.493,1
9.523136,-15.999,4.517,5.677,899.658,-1592.346,725.341,1
9.530663,-15.999,4.479,5.726,1035.095,-1649.047,504.638,1
9.539455,-15.999,4.277,5.611,1016.113,-1677.429,309.326,1
9.545608,-15.999,4.792,5.512,989.501,-1661.559,124.328,1
9.554314,-15.999,5.093,5.608,1063.903,-1631.469,-72.937,1
9.561136,-15.999,4.205,5.494,1175.231,-1564.147,-288.208,1
9.568159,-15.999,2.918,5.181,1218.933,-1449.218,-488.891,1
9.576431,-15.999,1.821,4.629,1232.238,-1304.016,-666.198,1
9.583056,-15.999,0.915,3.937,1174.499,-1133.3,-813.964,1
9.591852,-15.999,0.322,3.621,1059.753,-959.594,-924.743,1
9.600228,-15.999,-0.298,3.329,973.754,-809.509,-986.267,1
9.607084,-15.999,-0.906,2.78,845.519,-628.601,-1033.813,1
9.614093,-15.999,-1.594,2.325,731.689,-474.914,-1042.785,1
9.623037,-15.999,-2.243,2.026,554.077,-367.431,-1028.869,1
9.629925,-15.999,-2.736,1.949,452.636,-264.099,-1004.638,1
9.638487,-15.92,-3.287,1.78,366.21,-189.697,-960.815,1
9.646536,-13.811,-3.742,1.775,314.514,-126.403,-908.569,1
9.654906,-12.484,-3.709,2.002,352.478,-91.918,-848.754,1
9.661938,-11.172,-3.942,2.075,505.31,-31.982,-769.958,1
9.668682,-9.751,-4.445,1.719,543.457,19.226,-695.617,1
9.676831,-8.382,-4.771,1.52,469.238,80.749,-616.943,1
9.685105,-6.937,-4.747,1.181,358.276,121.887,-540.832,1
9.693607,-5.813,-4.422,1.056,312.866,152.709,-468.933,1
9.69988,-5.008,-4.045,0.737,306.457,169.189,-402.282,1
9.708102,-4.484,-3.627,0.537,301.879,181.945,-340.515,1
9.716354,-4.066,-3.145,0.298,298.767,188.903,-283.386,1
9.722986,-3.81,-2.665,0.174,305.297,191.589,-232.727,1
9.731775,-3.669,-2.22,0.056,313.476,192.993,-187.072,1
9.738828,-3.508,-1.837,-0.002,321.716,191.955,-146.545,1
9.747776,-3.285,-1.524,-0.073,332.458,189.88,-108.886,1
9.754769,-3.076,-1.267,-0.142,337.463,186.523,-68.603,1
9.761794,-2.904,-1.14,-0.211,311.157,185.668,-38.085,1
9.770026,-2.734,-1.063,-0.272,246.154,186.157,-12.329,1
9.777207,-2.532,-0.981,-0.285,162.353,186.584,7.995,1
9.785352,-2.37,-0.871,-0.248,93.933,185.852,23.254,1
9.792495,-2.166,-0.767,-0.183,54.992,182.739,36.804,1
9.800436,-1.975,-0.714,-0.147,50.659,179.138,45.166,1
9.808414,-1.779,-0.681,-0.137,57.739,172.18,55.969,1
9.816625,-1.594,-0.642,-0.114,69.152,165.283,65.124,1
9.823231,-1.434,-0.6,-0.1,82.336,158.203,74.218,1
9.831518,-1.313,-0.538,-0.088,94.909,150.512,83.068,1
9.838198,-1.216,-0.469,-0.084,107.055,142.272,91.247,1
9.845989,-1.125,-0.412,-0.083,117.248,133.422,99.304,1
9.852922,-1.034,-0.353,-0.075,123.413,125.549,105.59,1
9.860282,-0.935,-0.314,-0.068,128.173,115.844,112.243,1
9.868743,-0.825,-0.28,-0.043,128.54,105.773,118.164,1
9.875416,-0.735,-0.233,-0.008,125.427,96.679,123.657,1
9.882304,-0.707,-0.179,0.041,122.802,87.341,127.441,1
9.890783,-0.686,-0.119,0.087,122.802,80.2,130.004,1
9.899074,-0.689,-0.067,0.119,127.014,71.044,132.08,1
9.907005,-0.754,-0.022,0.19,138.549,60.424,133.85,1
9.913641,-0.725,-0.014,0.232,149.23,52.734,134.399,1
9.921807,-0.645,-0.032,0.268,153.747,45.593,134.521,1
9.928447,-0.549,-0.062,0.299,147.521,39.794,134.155,1
9.935525,-0.422,-0.089,0.331,135.375,34.912,134.033,1
9.943666,-0.292,-0.116,0.345,121.154,31.372,133.483,1
9.950577,-0.194,-0.131,0.374,107.971,28.32,132.751,1
9.958757,-0.097,-0.138,0.388,100.341,26.672,132.324,1
9.965194,-0.036,-0.151,0.385,94.421,24.169,131.103,1
9.973775,0.052,-0.164,0.396,91.857,21.728,130.432,1
9.980565,0.112,-0.186,0.405,91.43,18.981,129.76,1
9.989017,0.227,-0.178,0.425,93.566,15.686,129.455,1
9.995717,0.306,-0.174,0.433,98.022,12.39,129.089,1
