timestamp_s,ax,ay,az,gx,gy,gz,label
0.004828,0.819,0.071,-0.232,44.006,5.798,-56.274,1
0.011859,0.815,0.079,-0.239,33.203,7.507,-54.931,1
0.020326,0.815,0.104,-0.245,26.977,8.117,-53.71,1
0.02728,0.819,0.142,-0.245,27.893,7.934,-52.185,1
0.036061,0.815,0.172,-0.248,34.057,7.69,-51.452,1
0.042777,0.789,0.192,-0.257,45.104,6.225,-50.109,1
0.051742,0.748,0.203,-0.267,55.053,5.249,-49.194,1
0.058175,0.754,0.191,-0.286,62.561,4.089,-48.522,1
0.066716,0.732,0.181,-0.3,63.232,3.845,-47.973,1
0.074572,0.722,0.16,-0.304,56.701,3.662,-47.546,1
0.081607,0.765,0.143,-0.311,44.921,5.676,-47.18,1
0.089614,0.798,0.14,-0.34,34.118,6.408,-46.874,1
0.098156,0.832,0.149,-0.352,25.024,7.995,-46.508,1
0.106847,0.857,0.153,-0.376,15.624,8.911,-46.386,1
0.114191,0.856,0.16,-0.373,5.493,9.887,-46.203,1
0.121407,0.84,0.169,-0.371,0.427,10.437,-46.142,1
0.130383,0.829,0.184,-0.363,-0.183,10.375,-46.203,1
0.138259,0.834,0.196,-0.369,5.615,10.009,-46.447,1
0.146929,0.844,0.197,-0.379,11.962,9.46,-46.997,1
0.154103,0.864,0.177,-0.401,14.831,9.826,-47.424,1
0.161987,0.864,0.145,-0.43,8.3,10.375,-47.424,1
0.169904,0.862,0.122,-0.454,-8.911,11.901,-47.485,1
0.178649,0.866,0.091,-0.49,-38.085,12.756,-46.569,1
0.186003,0.902,0.081,-0.509,-61.584,13.061,-45.837,1
0.193367,0.929,0.088,-0.52,-78.918,11.23,-44.128,1
0.202276,0.957,0.102,-0.52,-79.223,7.751,-42.724,1
0.211002,0.95,0.127,-0.516,-64.392,2.99,-41.748,1
0.22056,0.917,0.129,-0.495,-34.118,-3.417,-40.954,1
0.225786,0.878,0.113,-0.476,-0.122,-9.338,-40.344,1
0.233455,0.868,0.085,-0.448,24.841,-12.573,-39.978,1
0.242944,0.885,0.054,-0.43,42.663,-15.441,-39.55,1
0.250268,0.911,0.032,-0.405,55.297,-17.333,-38.696,1
0.25933,0.933,0.015,-0.384,66.101,-19.042,-38.146,1
0.268207,0.904,0.026,-0.343,77.026,-20.385,-37.841,1
0.276473,0.893,0.029,-0.319,85.998,-21.179,-37.963,1
0.283402,0.794,0.036,-0.291,91.979,-21.118,-38.085,1
0.292514,0.734,0.032,-0.277,97.045,-20.812,-37.841,1
0.299832,0.745,0.044,-0.246,104.064,-19.47,-37.536,1
0.307289,0.725,0.021,-0.251,110.351,-18.798,-37.536,1
0.315136,0.721,0.023,-0.229,114.013,-17.028,-37.292,1
0.324232,0.831,0.027,-0.203,122.253,-13.61,-37.78,1
0.332569,0.943,0.025,-0.212,128.417,-13.305,-40.039,1
0.339546,1.005,0.019,-0.21,130.676,-11.291,-41.076,1
0.348319,1.03,0.022,-0.2,127.258,-9.277,-41.748,1
0.356769,1.082,0.029,-0.196,120.605,-5.615,-41.687,1
0.364485,1.186,0.03,-0.215,106.567,-2.868,-42.175,1
0.373409,1.171,0.079,-0.198,94.36,0.0,-43.151,1
0.381653,1.264,0.099,-0.224,89.477,2.441,-44.311,1
0.388959,1.325,0.158,-0.254,84.228,3.356,-46.447,1
0.396685,1.307,0.181,-0.264,75.195,5.615,-49.072,1
0.404887,1.264,0.221,-0.297,57.006,8.361,-51.94,1
0.412833,1.255,0.25,-0.313,38.33,10.803,-54.748,1
0.420284,1.243,0.299,-0.347,19.958,12.756,-57.739,1
0.429046,1.194,0.319,-0.388,2.807,14.221,-61.34,1
0.437647,1.068,0.341,-0.419,-18.615,14.953,-64.88,1
0.445097,1.072,0.318,-0.406,-49.072,15.747,-68.42,1
0.453107,1.087,0.33,-0.456,-72.021,17.333,-72.265,1
0.462218,1.078,0.338,-0.456,-88.623,16.113,-76.049,1
0.468527,1.073,0.332,-0.465,-95.092,15.808,-79.711,1
0.478285,1.018,0.326,-0.456,-91.979,13.0,-83.251,1
0.48549,0.936,0.303,-0.445,-78.247,10.803,-86.425,1
0.493919,0.864,0.268,-0.421,-55.786,7.324,-89.965,1
0.502658,0.808,0.208,-0.404,-34.24,4.821,-93.566,1
0.511159,0.733,0.136,-0.385,-21.423,3.601,-96.557,1
0.52016,0.653,0.053,-0.366,-17.578,4.15,-98.937,1
0.527606,0.648,-0.001,-0.371,-18.249,5.065,-100.769,1
0.536608,0.655,-0.081,-0.406,-23.986,5.676,-101.806,1
0.544042,0.654,-0.15,-0.432,-36.865,6.408,-101.501,1
0.553421,0.66,-0.217,-0.456,-50.231,5.615,-100.891,1
0.560307,0.662,-0.27,-0.464,-63.049,4.638,-99.487,1
0.569358,0.627,-0.313,-0.479,-70.556,2.563,-97.717,1
0.576334,0.607,-0.358,-0.451,-75.195,0.122,-95.397,1
0.585758,0.621,-0.391,-0.488,-69.58,-3.784,-93.505,1
0.5946,0.605,-0.441,-0.458,-53.283,-7.324,-90.393,1
0.602072,0.668,-0.485,-0.474,-32.714,-11.352,-86.975,1
0.610552,0.698,-0.519,-0.462,-14.587,-14.526,-83.496,1
0.618986,0.725,-0.553,-0.467,2.685,-16.357,-79.467,1
0.627675,0.684,-0.593,-0.484,5.065,-17.761,-75.561,1
0.635949,0.612,-0.609,-0.482,-2.502,-17.822,-72.387,1
0.644721,0.635,-0.613,-0.465,-12.39,-18.066,-69.335,1
0.652094,0.669,-0.646,-0.473,-24.414,-17.517,-65.856,1
0.658814,0.641,-0.637,-0.435,-30.395,-18.981,-63.537,1
0.668173,0.593,-0.629,-0.412,-25.817,-20.141,-61.096,1
0.676682,0.612,-0.62,-0.298,-0.854,-22.094,-58.837,1
0.6845,0.603,-0.632,-0.32,24.23,-24.475,-56.701,1
0.691275,0.53,-0.719,-0.199,44.128,-27.221,-54.687,1
0.700174,0.519,-0.803,-0.211,50.231,-24.108,-52.246,1
0.708133,0.337,-0.833,-0.106,47.363,-24.414,-50.415,1
0.716646,0.282,-0.851,0.054,63.354,-22.094,-48.4,1
0.723163,0.359,-0.896,0.077,101.623,-22.033,-46.081,1
0.732382,0.321,-1.013,0.136,126.525,-19.348,-44.189,1
0.74047,0.243,-1.154,0.152,123.84,-16.052,-41.32,1
0.74663,0.18,-1.28,0.193,99.853,-7.202,-35.705,1
0.75439,0.138,-1.354,0.226,72.998,-1.342,-30.395,1
0.761765,0.144,-1.431,0.245,51.635,7.202,-23.803,1
0.77038,0.107,-1.532,0.226,24.658,13.732,-16.662,1
0.779084,0.074,-1.616,0.263,0.915,20.385,-8.056,1
0.78573,0.079,-1.662,0.273,-5.737,26.062,1.831,1
0.794432,0.007,-1.711,0.289,2.868,30.822,14.221,1
0.802625,-0.056,-1.779,0.262,5.737,37.231,25.207,1
0.809412,-0.058,-1.83,0.247,-0.244,42.114,37.292,1
0.818599,-0.166,-1.887,0.22,-9.521,50.72,50.292,1
0.825495,-0.249,-1.899,0.184,-30.578,58.227,65.49,1
0.834484,-0.357,-1.876,0.158,-43.395,65.673,78.979,1
0.842601,-0.458,-1.858,0.13,-41.137,71.716,94.848,1
0.851436,-0.585,-1.862,0.099,-36.499,78.186,111.328,1
0.860217,-0.699,-1.863,0.041,-35.156,82.458,125.549,1
0.86979,-0.844,-1.852,0.004,-28.564,88.012,142.333,1
0.878753,-1.008,-1.84,-0.054,-19.409,92.285,159.79,1
0.885364,-1.185,-1.807,-0.106,-3.173,96.191,177.551,1
0.894112,-1.38,-1.775,-0.171,14.709,98.571,195.373,1
0.902802,-1.541,-1.752,-0.224,31.372,100.219,211.059,1
0.911696,-1.71,-1.734,-0.289,40.344,100.646,227.294,1
0.920238,-1.935,-1.702,-0.346,43.884,102.478,247.131,1
0.929282,-2.137,-1.671,-0.421,40.283,103.515,267.578,1
0.936498,-2.361,-1.631,-0.479,23.01,105.407,288.635,1
0.94369,-2.592,-1.574,-0.536,7.019,106.933,307.312,1
0.952914,-2.873,-1.434,-0.527,9.582,107.238,329.589,1
0.961838,-3.169,-1.493,-0.65,10.437,106.384,353.393,1
0.970982,-3.415,-1.444,-0.676,0.061,107.727,378.417,1
0.98132,-3.783,-1.341,-0.793,-6.286,107.238,400.146,1
0.988454,-4.208,-1.254,-0.839,-1.525,104.736,430.541,1
0.995859,-4.603,-1.188,-0.905,15.686,100.219,454.223,1
1.005363,-4.954,-1.158,-0.981,29.357,92.102,482.971,1
1.012477,-5.414,-1.078,-1.062,41.809,85.205,509.033,1
1.021793,-5.855,-0.985,-1.161,61.889,70.556,540.039,1
1.028611,-6.317,-0.899,-1.192,92.163,56.091,567.504,1
1.037025,-6.882,-0.788,-1.337,125.549,30.883,599.243,1
1.043559,-7.394,-0.69,-1.375,156.982,7.08,627.136,1
1.052828,-7.983,-0.573,-1.444,188.293,-23.986,653.808,1
1.059735,-8.642,-0.428,-1.446,224.121,-58.105,679.931,1
1.068335,-9.435,-0.234,-1.439,270.813,-106.018,707.519,1
1.076255,-10.218,-0.049,-1.387,317.749,-152.343,728.942,1
1.08468,-11.206,0.153,-1.306,345.458,-203.308,746.582,1
1.093001,-12.051,0.375,-1.188,370.3,-262.573,762.817,1
1.101106,-12.857,0.61,-1.043,383.3,-317.26,771.606,1
1.109586,-13.835,0.904,-0.819,391.235,-370.483,775.878,1
1.116735,-14.591,1.105,-0.652,394.836,-434.265,775.451,1
1.123788,-15.512,1.354,-0.446,396.118,-488.342,770.202,1
1.133471,-15.999,1.602,-0.211,419.311,-544.189,759.948,1
1.139436,-15.999,1.871,0.098,477.905,-612.67,738.098,1
1.147287,-15.999,1.879,0.355,531.555,-677.612,711.364,1
1.155729,-15.999,1.867,0.733,591.857,-741.21,678.405,1
1.162423,-15.999,1.955,1.205,652.16,-801.391,642.944,1
1.170396,-15.999,2.185,1.469,764.77,-864.685,588.378,1
1.178345,-15.999,2.507,1.958,915.466,-924.987,510.436,1
1.185856,-15.999,2.47,2.205,1030.151,-975.28,409.545,1
1.19374,-15.999,2.247,2.532,1056.762,-1006.896,294.616,1
1.200419,-15.999,2.186,2.66,1018.432,-1016.113,174.682,1
1.208015,-15.999,2.132,2.941,918.579,-1000.366,60.791,1
1.216913,-15.999,1.902,3.153,783.935,-959.228,-37.353,1
1.223149,-15.993,1.699,3.537,635.253,-911.926,-116.088,1
1.231388,-14.719,1.52,3.672,512.451,-850.891,-173.706,1
1.238791,-13.599,1.343,3.617,419.433,-796.691,-215.515,1
1.246674,-12.414,1.154,3.459,355.102,-743.102,-245.849,1
1.254795,-11.299,1.05,3.318,325.073,-697.692,-270.996,1
1.262984,-10.298,0.959,3.17,338.5,-652.526,-294.921,1
1.269708,-9.414,0.833,2.98,371.582,-612.793,-319.824,1
1.278663,-8.708,0.73,2.878,406.555,-567.871,-343.872,1
1.285746,-8.031,0.597,2.645,425.476,-524.536,-367.37,1
1.293339,-7.461,0.445,2.468,441.345,-471.008,-390.38,1
1.301691,-6.717,0.206,2.196,442.321,-426.818,-405.944,1
1.31165,-6.158,0.057,2.048,434.997,-380.249,-416.748,1
1.318354,-5.673,-0.079,1.857,401.916,-327.636,-425.476,1
1.32615,-5.399,-0.151,1.751,340.454,-278.747,-427.368,1
1.334965,-5.204,-0.199,1.619,276.672,-239.929,-423.767,1
1.343572,-5.001,-0.194,1.515,205.322,-203.247,-415.039,1
1.351899,-4.757,-0.149,1.479,166.564,-176.147,-405.883,1
1.359528,-4.448,-0.148,1.421,153.686,-150.024,-395.08,1
1.368168,-4.126,-0.205,1.41,157.287,-129.76,-386.23,1
1.376246,-3.844,-0.302,1.351,155.944,-109.13,-377.136,1
1.383152,-3.538,-0.405,1.288,145.141,-89.599,-366.76,1
1.39119,-3.252,-0.489,1.225,127.807,-68.298,-354.125,1
1.398944,-3.009,-0.566,1.166,109.069,-51.513,-342.59,1
1.407598,-2.672,-0.613,1.102,93.383,-36.621,-329.528,1
1.416176,-2.487,-0.668,1.089,87.951,-23.254,-317.626,1
1.424719,-2.269,-0.686,1.008,77.575,-9.887,-304.077,1
1.432415,-2.115,-0.703,0.991,76.904,-0.732,-291.992,1
1.440855,-1.957,-0.723,0.948,78.369,10.803,-277.893,1
1.449861,-1.85,-0.721,0.938,80.688,20.385,-263.732,1
1.458346,-1.765,-0.715,0.903,83.74,28.381,-251.831,1
1.464965,-1.651,-0.723,0.874,85.937,35.583,-239.501,1
1.472957,-1.537,-0.73,0.822,81.726,44.006,-225.28,1
1.481417,-1.409,-0.736,0.777,74.34,49.804,-212.341,1
1.488712,-1.26,-0.737,0.729,67.199,54.992,-199.523,1
1.497247,-1.069,-0.729,0.694,60.791,58.776,-186.767,1
1.505652,-0.94,-0.697,0.631,51.696,63.293,-174.743,1
1.513868,-0.77,-0.674,0.615,51.879,64.636,-161.682,1
1.521708,-0.634,-0.649,0.598,63.598,68.664,-148.498,1
1.530157,-0.538,-0.619,0.565,72.937,69.213,-137.939,1
1.537464,-0.481,-0.604,0.542,79.467,73.12,-126.281,1
1.546423,-0.424,-0.584,0.508,78.796,74.89,-116.638,1
1.556415,-0.373,-0.551,0.482,76.538,78.613,-106.079,1
1.563266,-0.317,-0.519,0.45,73.181,80.505,-97.839,1
1.570713,-0.254,-0.481,0.429,72.692,83.129,-88.867,1
1.580234,-0.176,-0.464,0.385,71.105,84.228,-81.237,1
1.587501,-0.123,-0.432,0.37,68.115,86.059,-73.059,1
1.595879,-0.056,-0.402,0.347,64.025,86.914,-65.612,1
1.604461,0.001,-0.373,0.321,58.959,88.134,-58.776,1
1.61176,0.08,-0.346,0.303,54.077,88.378,-52.917,1
1.619903,0.155,-0.312,0.302,51.818,88.867,-47.485,1
1.628633,0.203,-0.274,0.293,52.673,88.562,-42.968,1
1.636369,0.248,-0.242,0.284,54.321,88.439,-38.818,1
1.64297,0.288,-0.232,0.27,53.161,88.317,-33.691,1
1.65063,0.327,-0.209,0.262,49.926,88.745,-29.663,1
1.659509,0.351,-0.187,0.237,47.119,88.5,-25.634,1
1.666298,0.382,-0.162,0.221,45.166,87.646,-21.118,1
1.674683,0.437,-0.146,0.209,44.433,86.791,-17.456,1
1.682315,0.519,-0.115,0.188,45.471,85.327,-13.061,1
1.69105,0.592,-0.084,0.183,49.194,83.496,-9.521,1
1.698161,0.652,-0.044,0.173,57.067,81.176,-6.347,1
1.706922,0.678,-0.015,0.177,69.274,77.819,-2.685,1
1.714018,0.694,0.009,0.184,78.063,75.744,0.0,1
1.720929,0.698,0.025,0.189,88.928,73.12,3.784,1
1.728833,0.72,0.047,0.191,95.153,71.96,5.798,1
1.736892,0.755,0.05,0.186,100.097,70.922,8.361,1
1.743634,0.824,0.057,0.171,100.341,70.861,11.047,1
1.750585,0.88,0.065,0.154,96.313,71.228,13.488,1
1.758923,0.939,0.087,0.135,89.477,71.411,16.235,1
1.766028,1.012,0.105,0.121,81.665,72.204,18.371,1
1.773169,1.051,0.121,0.093,73.364,72.143,20.996,1
1.78086,1.077,0.153,0.079,67.81,72.204,22.399,1
1.787464,1.102,0.175,0.066,65.246,71.105,23.864,1
1.795304,1.105,0.189,0.055,63.964,70.434,25.024,1
1.802532,1.11,0.197,0.042,62.927,69.519,26.794,1
1.809964,1.112,0.207,0.033,61.096,68.115,28.442,1
1.817399,1.113,0.219,0.013,59.02,67.016,30.212,1
1.826707,1.109,0.222,0.011,56.396,65.856,31.616,1
1.833471,1.114,0.229,0.0,54.199,65.246,32.714,1
1.841321,1.104,0.232,-0.01,53.1,64.392,33.569,1
1.848408,1.095,0.232,-0.018,52.795,64.208,34.912,1
1.855367,1.092,0.224,-0.038,51.574,63.171,36.437,1
1.8645,1.085,0.226,-0.041,50.659,62.622,38.757,1
1.872404,1.092,0.235,-0.046,49.56,61.096,41.137,1
1.878754,1.104,0.252,-0.037,49.438,60.058,43.945,1
1.887542,1.114,0.279,-0.035,48.95,58.654,46.386,1
1.896008,1.086,0.326,-0.02,48.156,58.227,47.79,1
1.903971,1.063,0.367,-0.011,46.691,58.41,48.034,1
1.912257,1.032,0.423,0.0,45.532,59.326,48.095,1
1.920889,1.025,0.494,0.003,43.762,59.936,47.79,1
1.928602,1.001,0.554,-0.007,46.997,60.729,46.569,1
1.936513,0.959,0.608,-0.034,52.307,60.302,44.982,1
1.943404,0.925,0.667,-0.05,62.499,59.448,43.212,1
1.951616,0.908,0.718,-0.075,73.974,58.41,41.137,1
1.960819,0.874,0.782,-0.091,86.608,56.762,38.452,1
1.968104,0.848,0.835,-0.117,95.886,54.748,35.156,1
1.976201,0.816,0.886,-0.122,100.036,54.199,32.043,1
1.98496,0.78,0.914,-0.139,97.473,53.649,28.686,1
1.991897,0.757,0.975,-0.157,91.613,54.565,24.902,1
2.000925,0.718,1.008,-0.166,83.618,53.344,19.592,1
2.00705,0.707,1.032,-0.179,79.345,54.565,14.587,1
2.016291,0.698,1.028,-0.215,76.538,52.612,9.46,1
2.024402,0.692,1.0,-0.215,74.157,52.429,4.821,1
2.031028,0.725,0.966,-0.239,70.8,51.818,0.488,1
2.038742,0.748,0.951,-0.241,69.213,50.292,-3.54,1
2.047839,0.785,0.943,-0.241,70.373,48.828,-6.347,1
2.056526,0.789,0.944,-0.234,73.425,47.546,-8.666,1
2.063429,0.805,0.904,-0.228,67.443,46.63,-10.742,1
2.071878,0.848,0.895,-0.209,55.725,48.156,-12.207,1
2.081115,0.893,0.93,-0.229,43.701,46.752,-15.624,1
2.089692,0.89,0.96,-0.187,43.884,46.813,-18.859,1
2.097124,0.902,0.991,-0.192,50.415,44.86,-23.376,1
2.105866,0.911,0.967,-0.169,57.983,43.762,-26.672,1
2.114468,0.929,0.922,-0.176,69.03,41.503,-31.188,1
2.121792,0.92,0.859,-0.139,75.805,41.137,-33.325,1
2.128942,0.954,0.816,-0.151,75.744,40.832,-34.606,1
2.137563,0.995,0.779,-0.127,69.824,40.405,-35.095,1
2.145181,1.055,0.75,-0.105,62.316,41.992,-34.606,1
2.153681,1.092,0.792,-0.1,62.438,42.968,-36.132,1
2.161332,1.071,0.836,-0.075,68.359,42.785,-38.146,1
2.170268,1.044,0.863,-0.06,75.012,41.687,-39.123,1
2.17788,1.02,0.789,-0.093,82.275,41.198,-40.893,1
2.186029,1.046,0.857,-0.065,90.454,42.785,-43.884,1
2.193474,1.006,0.823,-0.108,98.449,40.161,-47.119,1
2.202429,0.985,0.789,-0.083,102.416,41.992,-49.194,1
2.210001,1.018,0.756,-0.133,95.581,42.602,-51.818,1
2.21711,1.01,0.737,-0.133,90.637,43.457,-53.71,1
2.225962,1.007,0.738,-0.148,89.111,43.212,-55.541,1
2.234827,0.979,0.745,-0.145,96.252,43.151,-57.983,1
2.243799,0.976,0.733,-0.153,110.595,42.114,-60.546,1
2.251278,1.0,0.716,-0.156,128.417,41.687,-62.011,1
2.258827,1.04,0.683,-0.192,154.174,40.71,-63.476,1
2.268855,0.968,0.648,-0.228,165.649,39.489,-64.147,1
2.276053,0.972,0.618,-0.222,174.804,40.039,-64.27,1
2.283515,0.916,0.576,-0.248,176.757,38.635,-64.331,1
2.290981,0.899,0.547,-0.243,175.903,40.466,-64.147,1
2.299422,0.897,0.529,-0.299,171.264,40.466,-63.964,1
2.308126,0.87,0.504,-0.278,164.611,40.71,-63.781,1
2.316695,0.879,0.49,-0.312,159.545,40.771,-64.147,1
2.326382,0.81,0.468,-0.312,154.235,41.137,-64.453,1
2.332551,0.801,0.453,-0.318,149.047,41.015,-64.575,1
2.340416,0.784,0.437,-0.309,145.935,40.649,-65.124,1
2.348848,0.751,0.425,-0.289,145.935,40.1,-65.612,1
2.356046,0.735,0.417,-0.271,147.521,39.733,-65.124,1
2.364802,0.747,0.39,-0.24,152.954,38.391,-64.147,1
2.372254,0.751,0.364,-0.229,158.996,37.536,-62.805,1
2.379167,0.751,0.337,-0.216,162.414,37.109,-61.157,1
2.38724,0.746,0.315,-0.224,160.461,37.292,-59.509,1
2.395923,0.732,0.289,-0.232,152.526,37.109,-58.044,1
2.403382,0.75,0.262,-0.235,138.854,37.475,-56.64,1
2.41219,0.711,0.243,-0.246,125.183,37.963,-55.541,1
2.42138,0.694,0.23,-0.243,110.656,37.963,-54.382,1
2.428303,0.675,0.219,-0.241,101.135,37.841,-53.527,1
2.437231,0.687,0.21,-0.227,99.304,37.414,-53.161,1
2.444834,0.726,0.188,-0.213,106.994,37.048,-52.429,1
2.452749,0.76,0.166,-0.206,117.736,36.315,-51.391,1
2.461926,0.784,0.145,-0.207,128.112,36.56,-50.354,1
2.468451,0.8,0.12,-0.212,136.535,36.437,-48.706,1
2.477814,0.823,0.096,-0.226,140.808,36.926,-47.058,1
2.485659,0.866,0.074,-0.226,142.517,37.17,-44.555,1
2.492742,0.898,0.069,-0.238,138.183,38.818,-42.358,1
2.5018,0.899,0.077,-0.259,129.882,38.94,-40.405,1
2.508995,0.883,0.088,-0.254,121.826,40.039,-38.513,1
2.517084,0.876,0.111,-0.256,113.952,40.771,-36.743,1
2.525583,0.872,0.134,-0.242,111.938,41.015,-35.644,1
2.532641,0.865,0.161,-0.233,113.891,41.625,-35.156,1
2.541924,0.842,0.176,-0.227,118.225,42.053,-34.973,1
2.549752,0.839,0.177,-0.227,119.262,43.151,-35.339,1
2.556639,0.853,0.164,-0.233,116.455,44.006,-35.4,1
2.564334,0.853,0.155,-0.236,108.581,45.776,-35.461,1
2.573742,0.848,0.148,-0.242,92.407,47.485,-35.827,1
2.580351,0.859,0.15,-0.255,72.631,49.316,-35.644,1
2.589562,0.885,0.164,-0.26,50.964,50.903,-35.766,1
2.596568,0.922,0.205,-0.266,32.226,52.062,-35.827,1
2.604259,0.957,0.25,-0.276,16.906,51.33,-36.132,1
2.613795,0.98,0.291,-0.271,12.512,49.987,-36.865,1
2.622052,1.005,0.335,-0.258,20.568,47.363,-37.719,1
2.630714,1.003,0.353,-0.272,27.954,44.86,-38.818,1
2.638757,1.052,0.354,-0.264,37.78,42.724,-39.794,1
2.646455,1.03,0.344,-0.281,49.316,40.466,-40.832,1
2.653999,0.979,0.314,-0.27,56.213,39.184,-42.114,1
2.662722,0.916,0.314,-0.26,64.453,38.635,-42.663,1
2.670456,0.796,0.313,-0.213,78.308,37.963,-43.457,1
2.679288,0.707,0.294,-0.218,86.975,38.33,-43.701,1
2.686746,0.655,0.297,-0.218,92.651,38.635,-43.823,1
2.695882,0.675,0.294,-0.225,97.717,38.269,-44.311,1
2.704608,0.694,0.28,-0.232,99.182,39.367,-44.86,1
2.711947,0.684,0.261,-0.238,93.505,40.527,-45.776,1
2.719674,0.734,0.236,-0.259,83.129,42.114,-46.386,1
2.72727,0.925,0.167,-0.226,66.772,43.395,-46.325,1
2.736197,0.809,0.202,-0.25,49.316,49.194,-46.569,1
2.744293,0.707,0.245,-0.292,34.973,46.813,-48.461,1
2.751722,0.655,0.286,-0.285,34.362,49.011,-50.964,1
2.759224,0.609,0.29,-0.321,40.649,47.119,-53.1,1
2.768555,0.484,0.267,-0.373,53.894,46.936,-54.382,1
2.776709,0.384,0.213,-0.443,60.974,44.067,-53.955,1
2.783947,0.67,0.111,-0.453,60.241,42.968,-51.574,1
2.791114,0.926,0.099,-0.446,57.678,47.363,-51.086,1
2.799498,1.055,0.088,-0.512,51.269,42.419,-51.818,1
2.808144,1.126,0.082,-0.452,57.617,42.785,-52.185,1
2.815895,1.188,0.057,-0.497,65.673,37.536,-52.551,1
2.823942,1.201,0.024,-0.462,78.552,36.926,-51.94,1
2.832645,1.214,-0.013,-0.51,86.303,33.691,-51.33,1
2.839616,1.188,-0.023,-0.508,93.383,32.714,-49.865,1
2.847494,1.104,-0.016,-0.557,97.29,29.907,-49.194,1
2.855467,1.146,0.003,-0.545,108.703,26.916,-47.424,1
2.863154,1.089,0.004,-0.589,118.225,23.864,-46.63,1
2.873012,1.088,-0.005,-0.561,126.098,20.08,-46.02,1
2.88007,1.019,-0.035,-0.562,131.347,18.92,-45.104,1
2.88758,1.052,-0.038,-0.542,130.92,16.54,-43.823,1
2.89698,1.032,-0.066,-0.547,127.807,17.089,-42.846,1
2.905651,1.014,-0.09,-0.528,118.713,16.235,-42.053,1
2.913779,0.979,-0.113,-0.54,106.567,18.066,-40.649,1
2.920941,0.968,-0.104,-0.547,93.872,18.249,-39.55,1
2.930205,0.98,-0.088,-0.56,83.129,18.859,-38.513,1
2.937996,0.977,-0.07,-0.57,76.599,17.761,-37.963,1
2.948616,0.982,-0.061,-0.6,69.824,17.333,-37.17,1
2.954725,1.011,-0.056,-0.612,64.147,15.686,-36.682,1
2.963533,0.96,-0.042,-0.63,63.171,14.465,-36.071,1
2.971573,0.927,-0.037,-0.659,62.011,11.84,-35.827,1
2.980784,0.915,-0.036,-0.661,62.561,9.948,-34.912,1
2.987813,0.926,-0.022,-0.684,64.147,7.873,-34.179,1
2.996883,0.938,-0.013,-0.697,66.833,5.798,-33.996,1
3.006141,0.958,0.0,-0.727,70.251,2.807,-33.63,1
3.012521,1.02,0.007,-0.753,71.899,0.305,-34.24,1
3.021711,1.03,0.012,-0.791,73.852,-2.136,-34.545,1
3.029494,1.096,0.022,-0.824,77.27,-6.591,-34.912,1
3.037046,1.168,0.028,-0.851,81.726,-9.216,-35.4,1
3.046487,1.214,0.02,-0.854,83.007,-13.793,-35.766,1
3.054271,1.279,0.029,-0.871,89.843,-15.441,-35.339,1
3.062115,1.365,0.038,-0.886,101.135,-19.409,-35.278,1
3.071182,1.424,0.032,-0.913,108.947,-22.277,-35.644,1
3.078019,1.427,0.027,-0.916,110.717,-24.719,-36.071,1
3.086515,1.408,0.03,-0.933,106.201,-26.0,-36.621,1
3.095045,1.368,0.045,-0.937,96.801,-27.526,-37.353,1
3.103304,1.274,0.072,-0.929,82.275,-28.991,-38.818,1
3.111859,1.185,0.097,-0.91,70.739,-30.944,-40.405,1
3.120765,1.101,0.116,-0.875,67.443,-34.057,-42.297,1
3.128447,1.037,0.123,-0.848,70.617,-37.475,-43.701,1
3.137247,0.978,0.099,-0.807,76.66,-41.32,-45.227,1
3.145884,0.913,0.072,-0.755,80.444,-44.616,-46.386,1
3.15348,0.854,0.047,-0.7,81.97,-47.668,-47.241,1
3.161232,0.803,0.023,-0.643,79.895,-49.621,-47.79,1
3.170154,0.783,0.005,-0.601,73.608,-51.269,-47.912,1
3.177582,0.736,-0.019,-0.541,66.833,-52.368,-47.851,1
3.18657,0.708,-0.03,-0.499,61.34,-53.466,-47.729,1
3.19385,0.691,-0.041,-0.445,59.814,-54.443,-47.424,1
3.204148,0.669,-0.061,-0.399,62.561,-55.175,-47.424,1
3.212112,0.666,-0.078,-0.351,66.223,-55.969,-47.18,1
3.222728,0.677,-0.096,-0.299,69.824,-56.213,-46.569,1
3.229946,0.68,-0.116,-0.254,72.509,-55.419,-45.227,1
3.238784,0.68,-0.123,-0.24,70.8,-55.358,-44.006,1
3.2464,0.666,-0.122,-0.211,66.101,-54.809,-42.663,1
3.255062,0.638,-0.119,-0.195,61.401,-54.26,-41.442,1
3.263959,0.622,-0.104,-0.167,57.434,-53.588,-39.794,1
3.271137,0.61,-0.089,-0.149,56.213,-52.673,-38.696,1
3.278523,0.604,-0.08,-0.127,57.312,-52.307,-37.963,1
3.287571,0.622,-0.076,-0.11,60.18,-51.208,-36.743,1
3.296175,0.634,-0.074,-0.1,61.889,-50.17,-35.949,1
3.305369,0.63,-0.081,-0.093,61.462,-48.645,-35.339,1
3.312799,0.645,-0.093,-0.081,57.189,-46.752,-34.729,1
3.321873,0.68,-0.104,-0.069,50.415,-44.494,-33.874,1
3.330371,0.705,-0.112,-0.061,42.358,-42.175,-33.203,1
3.339003,0.739,-0.125,-0.054,36.01,-40.466,-32.287,1
3.348114,0.782,-0.127,-0.047,30.395,-38.269,-31.188,1
3.35634,0.81,-0.123,-0.052,27.404,-36.621,-30.09,1
3.363031,0.832,-0.119,-0.039,25.634,-35.095,-28.991,1
3.373017,0.834,-0.113,-0.038,24.963,-34.24,-28.32,1
3.380739,0.83,-0.111,-0.027,25.573,-33.203,-27.404,1
3.388641,0.853,-0.107,-0.015,28.93,-32.287,-26.489,1
3.397698,0.893,-0.109,-0.004,34.057,-31.188,-25.573,1
3.405557,0.926,-0.107,0.0,38.635,-29.968,-25.146,1
3.413942,0.933,-0.113,-0.001,39.978,-28.442,-24.902,1
3.42164,0.961,-0.118,-0.014,38.696,-27.77,-24.353,1
3.43091,0.956,-0.117,-0.001,36.56,-26.367,-24.291,1
3.439588,0.973,-0.122,0.003,35.4,-25.146,-23.742,1
3.44776,0.976,-0.12,-0.004,33.142,-23.925,-23.498,1
3.456526,0.969,-0.117,0.022,31.127,-22.155,-23.498,1
3.464378,0.972,-0.107,0.026,29.663,-20.935,-23.193,1
3.471729,0.996,-0.109,0.045,27.526,-19.226,-23.193,1
3.480899,1.012,-0.123,0.049,24.169,-18.188,-23.254,1
3.489415,1.026,-0.133,0.067,19.47,-16.235,-23.498,1
3.497032,1.033,-0.138,0.071,15.747,-14.526,-23.498,1
3.505852,1.03,-0.135,0.067,11.84,-12.573,-23.986,1
3.515321,1.032,-0.129,0.061,11.413,-11.169,-24.414,1
3.523111,1.044,-0.124,0.065,15.319,-10.498,-24.658,1
3.53063,1.048,-0.129,0.063,21.301,-9.521,-25.207,1
3.539298,1.049,-0.14,0.051,28.625,-8.666,-25.573,1
3.546925,1.047,-0.146,0.054,34.362,-7.751,-26.123,1
3.554979,1.048,-0.153,0.053,39.184,-6.713,-26.611,1
3.563578,1.038,-0.17,0.036,41.198,-5.615,-27.587,1
3.570806,1.026,-0.186,0.024,39.916,-4.028,-28.076,1
3.578315,1.034,-0.208,0.01,36.499,-2.807,-28.137,1
3.586163,1.026,-0.227,-0.009,28.808,-0.61,-28.198,1
3.59442,0.993,-0.243,-0.027,20.629,0.976,-27.893,1
3.602494,0.963,-0.254,-0.052,13.793,2.441,-27.404,1
3.610137,0.934,-0.268,-0.07,10.192,3.845,-26.672,1
3.618071,0.916,-0.278,-0.088,13.854,4.943,-26.062,1
3.62729,0.911,-0.283,-0.108,24.291,5.371,-25.329,1
3.634477,0.927,-0.307,-0.134,38.635,5.126,-25.146,1
3.64302,0.915,-0.326,-0.156,53.161,4.455,-25.085,1
3.650565,0.973,-0.341,-0.166,70.007,3.173,-24.963,1
3.660241,0.96,-0.367,-0.165,88.5,1.586,-24.597,1
3.667994,0.99,-0.397,-0.182,101.196,0.915,-23.986,1
3.677027,0.972,-0.415,-0.22,100.28,0.427,-23.071,1
3.684556,0.944,-0.429,-0.243,89.294,0.671,-22.399,1
3.694788,0.96,-0.433,-0.262,69.641,0.915,-20.751,1
3.702523,0.979,-0.424,-0.264,49.072,1.159,-19.47,1
3.710691,1.002,-0.403,-0.26,33.691,1.037,-17.761,1
3.719006,0.994,-0.365,-0.251,26.184,0.305,-16.418,1
3.726548,0.991,-0.343,-0.241,25.329,-1.037,-15.075,1
3.73494,0.987,-0.329,-0.225,26.489,-2.197,-14.221,1
3.743674,0.997,-0.311,-0.219,27.526,-3.356,-13.0,1
3.752614,0.993,-0.284,-0.199,26.672,-4.577,-11.962,1
3.759427,0.994,-0.271,-0.194,23.559,-5.371,-11.291,1
3.769109,0.997,-0.259,-0.182,19.348,-5.859,-11.108,1
3.77769,1.017,-0.24,-0.164,14.038,-6.286,-10.803,1
3.786454,1.029,-0.215,-0.141,9.765,-6.591,-10.803,1
3.793595,1.027,-0.195,-0.125,7.019,-7.263,-11.291,1
3.80138,1.024,-0.171,-0.106,7.141,-7.934,-12.268,1
3.811503,1.009,-0.159,-0.087,8.605,-8.178,-13.0,1
3.818691,0.989,-0.148,-0.065,9.399,-8.422,-14.587,1
3.829371,0.982,-0.145,-0.06,8.361,-8.422,-16.296,1
3.83654,0.975,-0.143,-0.029,5.676,-7.934,-17.822,1
3.844766,0.978,-0.144,-0.009,2.014,-6.896,-19.958,1
3.85251,0.978,-0.142,0.012,-0.427,-5.676,-21.545,1
3.862024,0.978,-0.146,0.026,-2.014,-4.821,-23.864,1
3.869506,0.987,-0.148,0.055,-1.953,-3.662,-25.634,1
3.878565,1.0,-0.162,0.067,-1.281,-1.953,-28.076,1
3.887326,1.01,-0.18,0.081,-1.037,0.061,-30.517,1
3.894453,1.009,-0.203,0.085,-0.854,1.953,-32.653,1
3.903701,1.002,-0.221,0.096,1.708,3.967,-35.156,1
3.911028,1.0,-0.242,0.096,8.728,5.432,-36.743,1
3.919313,1.01,-0.27,0.096,23.559,5.859,-37.963,1
3.927367,1.02,-0.296,0.093,39.245,6.164,-38.33,1
3.935646,1.044,-0.331,0.086,57.434,5.981,-38.024,1
3.944554,1.065,-0.36,0.081,70.312,6.286,-37.17,1
3.95323,1.13,-0.387,0.074,78.308,7.69,-35.705,1
3.960078,1.169,-0.399,0.068,77.758,9.521,-34.362,1
3.969043,1.152,-0.399,0.049,67.199,12.756,-33.813,1
3.976536,1.13,-0.393,0.029,51.33,15.624,-33.569,1
3.983965,1.102,-0.381,0.018,32.714,18.676,-33.264,1
3.991463,1.084,-0.355,0.011,13.0,21.667,-33.508,1
3.999906,1.056,-0.331,0.011,3.295,22.888,-34.606,1
4.008754,1.046,-0.314,0.006,1.586,23.742,-35.339,1
4.017585,1.016,-0.307,0.006,7.08,24.169,-36.193,1
4.024305,1.001,-0.308,-0.005,15.258,23.803,-36.621,1
4.031598,0.979,-0.316,-0.017,22.277,24.414,-37.292,1
4.040461,0.947,-0.332,-0.037,26.428,24.597,-37.902,1
4.047982,0.916,-0.349,-0.051,26.489,26.123,-38.635,1
4.055342,0.863,-0.36,-0.07,22.277,27.526,-39.428,1
4.063478,0.831,-0.365,-0.091,16.357,29.296,-40.222,1
4.072554,0.781,-0.366,-0.115,8.483,30.883,-41.137,1
4.079378,0.711,-0.377,-0.137,-1.953,32.958,-42.724,1
4.088201,0.682,-0.39,-0.152,-10.498,34.606,-44.25,1
4.0971,0.642,-0.406,-0.17,-17.333,35.644,-45.227,1
4.104366,0.605,-0.43,-0.173,-21.606,37.048,-46.508,1
4.113557,0.575,-0.465,-0.167,-21.85,37.963,-47.302,1
4.121265,0.545,-0.533,-0.164,-23.376,38.879,-47.18,1
4.12906,0.52,-0.595,-0.158,-27.709,39.855,-45.898,1
4.139845,0.508,-0.635,-0.149,-30.029,41.32,-45.166,1
4.147496,0.49,-0.702,-0.144,-36.743,43.701,-44.067,1
4.155229,0.448,-0.791,-0.156,-50.109,44.921,-41.748,1
4.16386,0.376,-0.846,-0.157,-57.434,46.142,-38.94,1
4.172714,0.308,-0.918,-0.158,-62.438,47.241,-35.034,1
4.18156,0.249,-0.958,-0.133,-60.546,47.912,-30.639,1
4.188577,0.199,-1.041,-0.14,-52.246,47.607,-25.329,1
4.19713,0.142,-1.138,-0.128,-46.813,48.461,-19.897,1
4.206394,0.079,-1.205,-0.11,-53.283,50.415,-13.244,1
4.213596,0.008,-1.264,-0.09,-61.34,53.527,-6.347,1
4.223131,-0.063,-1.337,-0.08,-71.899,56.762,0.0,1
4.230093,-0.178,-1.42,-0.065,-95.764,60.791,7.751,1
4.239923,-0.283,-1.417,-0.02,-102.233,64.941,15.136,1
4.246158,-0.353,-1.479,-0.025,-103.393,67.565,24.719,1
4.254875,-0.415,-1.52,0.029,-105.834,70.983,33.081,1
4.262504,-0.468,-1.553,0.032,-95.214,74.462,43.395,1
4.270469,-0.559,-1.644,0.072,-95.642,76.538,52.734,1
4.279478,-0.655,-1.661,0.112,-82.824,82.702,62.927,1
4.288388,-0.768,-1.745,0.1,-81.115,84.716,77.148,1
4.296436,-0.875,-1.77,0.152,-81.97,92.102,89.294,1
4.303943,-0.966,-1.8,0.133,-85.449,95.153,102.661,1
4.313357,-1.095,-1.824,0.188,-86.914,102.172,115.661,1
4.321256,-1.196,-1.856,0.171,-87.463,105.957,128.601,1
4.330595,-1.316,-1.868,0.243,-79.589,112.915,144.775,1
4.337861,-1.518,-1.853,0.242,-62.927,118.041,161.865,1
4.346463,-1.7,-1.825,0.263,-36.315,124.633,179.992,1
4.353398,-1.86,-1.791,0.238,-11.108,128.295,196.228,1
4.361428,-2.053,-1.737,0.223,15.441,132.934,213.5,1
4.369598,-2.253,-1.67,0.177,38.879,136.413,231.262,1
4.375951,-2.466,-1.601,0.125,55.48,140.258,249.694,1
4.383694,-2.662,-1.522,0.069,63.293,144.653,268.92,1
4.391788,-2.889,-1.426,-0.001,59.509,149.108,287.963,1
4.400575,-3.154,-1.317,-0.051,49.865,153.625,307.861,1
4.409025,-3.436,-1.238,-0.109,37.292,160.339,331.481,1
4.415802,-3.736,-1.172,-0.143,21.423,166.259,352.233,1
4.424403,-4.02,-1.064,-0.181,7.019,174.56,373.413,1
4.432117,-4.269,-1.029,-0.247,8.178,182.739,397.705,1
4.441366,-4.672,-1.048,-0.296,3.417,188.598,420.959,1
4.451346,-5.057,-1.034,-0.358,2.502,198.791,451.965,1
4.459398,-5.772,-0.971,-0.465,19.531,204.589,484.741,1
4.46588,-6.383,-0.973,-0.575,59.814,207.275,521.118,1
4.475989,-7.006,-0.953,-0.689,105.224,203.979,555.297,1
4.48481,-7.824,-0.92,-0.872,161.315,192.871,598.144,1
4.492736,-8.74,-0.884,-1.059,222.412,171.997,643.859,1
4.501491,-9.612,-0.824,-1.218,268.432,145.69,687.744,1
4.510701,-10.653,-0.764,-1.408,287.17,109.497,737.243,1
4.518055,-11.92,-0.5,-1.505,340.27,61.767,786.56,1
4.525888,-13.095,-0.168,-1.643,394.042,1.342,833.373,1
4.534995,-14.404,0.221,-1.668,431.335,-60.18,870.605,1
4.542447,-15.627,0.593,-1.637,468.688,-140.38,906.372,1
4.550006,-15.994,1.025,-1.497,502.563,-214.355,929.687,1
4.558407,-15.999,1.513,-1.367,536.01,-295.227,942.81,1
4.567039,-15.999,1.862,-1.132,557.8,-396.85,945.312,1
4.575951,-15.999,2.409,-0.715,617.248,-486.755,934.509,1
4.584512,-15.999,2.661,-0.321,714.599,-606.14,902.282,1
4.591478,-15.999,2.579,0.383,815.917,-731.079,852.722,1
4.600222,-15.999,2.453,1.208,898.254,-831.97,792.114,1
4.60852,-15.999,2.557,2.001,979.431,-936.706,701.599,1
4.617283,-15.999,2.964,2.565,1073.852,-1021.179,572.753,1
4.627602,-15.999,3.125,2.527,1160.522,-1085.571,402.77,1
4.634962,-15.999,2.702,2.704,1093.322,-1111.389,224.487,1
4.645076,-15.999,2.512,2.722,891.845,-1091.796,68.847,1
4.654084,-15.999,2.464,2.895,692.016,-1047.729,-50.964,1
4.661463,-15.999,2.355,3.027,596.374,-994.628,-143.432,1
4.670085,-15.999,2.188,3.025,640.991,-945.739,-226.989,1
4.679312,-15.999,1.968,2.921,715.148,-898.071,-299.316,1
4.687119,-15.192,1.501,2.791,751.525,-840.332,-370.727,1
4.693498,-13.984,1.078,2.528,731.018,-758.483,-443.054,1
4.702716,-12.888,0.719,2.26,666.686,-683.532,-490.966,1
4.709503,-11.917,0.573,2.139,579.284,-608.52,-525.756,1
4.718934,-10.977,0.473,2.028,480.834,-527.404,-551.94,1
4.726606,-10.368,0.397,1.937,418.151,-466.186,-564.819,1
4.736999,-9.812,0.323,1.841,371.765,-404.357,-572.448,1
4.745546,-9.364,0.206,1.847,339.904,-349.365,-574.035,1
4.752356,-8.829,0.0,1.753,300.781,-298.645,-570.495,1
4.761499,-8.25,-0.175,1.692,255.493,-260.375,-564.025,1
4.770278,-7.512,-0.422,1.64,199.707,-219.299,-552.001,1
4.778335,-6.975,-0.548,1.658,149.047,-184.02,-535.705,1
4.786955,-6.459,-0.659,1.612,129.394,-155.761,-520.935,1
4.793963,-5.848,-0.787,1.586,116.882,-129.821,-502.99,1
4.803545,-5.376,-0.898,1.543,127.929,-104.187,-487.06,1
4.809469,-5.008,-1.001,1.498,148.681,-82.458,-467.773,1
4.818637,-4.668,-1.096,1.399,168.64,-60.18,-449.951,1
4.827961,-4.263,-1.189,1.31,192.199,-38.757,-428.955,1
4.836001,-3.761,-1.329,1.147,207.275,-17.15,-409.851,1
4.842491,-3.353,-1.441,0.998,199.157,4.394,-386.962,1
4.851362,-2.988,-1.534,0.867,165.649,20.935,-365.905,1
4.858755,-2.682,-1.53,0.796,125.793,35.583,-340.881,1
4.866758,-2.522,-1.48,0.801,113.098,45.227,-319.885,1
4.877441,-2.439,-1.422,0.805,120.788,52.673,-299.011,1
4.884521,-2.374,-1.338,0.824,131.713,61.462,-271.301,1
4.89182,-2.166,-1.324,0.811,129.516,69.152,-251.708,1
4.900604,-1.947,-1.29,0.812,118.896,77.453,-232.849,1
4.906928,-1.705,-1.264,0.778,103.576,85.449,-214.782,1
4.914176,-1.496,-1.198,0.77,89.111,92.773,-197.143,1
4.921991,-1.305,-1.105,0.741,85.388,97.473,-183.776,1
4.930397,-1.144,-1.0,0.707,92.529,101.196,-166.076,1
4.938194,-1.033,-0.903,0.666,104.797,103.698,-151.855,1
4.946635,-0.942,-0.792,0.618,118.408,106.079,-136.474,1
4.953928,-0.875,-0.721,0.579,125.122,108.459,-124.694,1
4.96258,-0.828,-0.663,0.533,124.999,110.473,-113.464,1
4.971264,-0.753,-0.616,0.494,118.957,113.464,-102.905,1
4.978255,-0.677,-0.569,0.446,106.445,115.173,-91.918,1
4.986557,-0.597,-0.515,0.396,95.458,116.76,-83.374,1
4.99406,-0.512,-0.499,0.363,84.533,116.943,-73.974,1
5.003315,-0.411,-0.492,0.322,78.002,116.516,-66.589,1
5.011282,-0.299,-0.476,0.291,74.951,115.539,-59.326,1
5.020159,-0.148,-0.45,0.237,75.5,114.501,-51.879,1
5.028679,-0.02,-0.419,0.184,78.43,112.731,-46.142,1
5.037248,0.1,-0.389,0.144,87.463,110.351,-39.611,1
5.0463,0.211,-0.359,0.102,102.233,106.933,-32.47,1
5.053144,0.285,-0.336,0.073,112.915,104.492,-27.648,1
5.060816,0.355,-0.319,0.033,119.75,102.111,-23.315,1
5.069936,0.404,-0.285,-0.026,124.206,99.731,-18.859,1
5.078252,0.432,-0.264,-0.073,125.915,96.618,-16.113,1
5.085672,0.452,-0.25,-0.115,124.999,92.59,-12.695,1
5.094023,0.496,-0.241,-0.149,121.337,89.538,-10.192,1
5.10323,0.542,-0.228,-0.178,113.342,86.547,-7.629,1
5.110208,0.564,-0.21,-0.211,105.895,83.496,-6.164,1
5.119244,0.598,-0.201,-0.242,98.999,79.589,-4.455,1
5.128499,0.673,-0.205,-0.265,96.801,75.317,-2.929,1
5.13598,0.769,-0.194,-0.279,101.379,70.861,-0.854,1
5.145162,0.833,-0.159,-0.294,113.464,66.528,1.098,1
5.154043,0.902,-0.114,-0.291,135.62,60.363,3.784,1
5.162145,0.931,-0.086,-0.29,156.25,55.053,6.408,1
5.169574,0.937,-0.06,-0.284,172.546,50.598,9.46,1
5.177126,0.927,-0.032,-0.297,184.57,46.02,12.756,1
5.185768,0.895,-0.005,-0.296,188.11,43.09,15.258,1
5.193334,0.853,0.006,-0.297,185.729,40.1,17.822,1
5.200658,0.807,0.025,-0.291,180.175,37.658,19.897,1
5.208162,0.789,0.05,-0.278,175.415,35.766,21.179,1
5.217472,0.798,0.06,-0.263,171.325,33.63,22.094,1
5.225892,0.824,0.069,-0.241,167.968,32.47,22.46,1
5.233402,0.84,0.068,-0.211,167.053,30.822,23.681,1
5.239998,0.858,0.093,-0.172,162.902,31.249,25.146,1
5.246839,0.884,0.098,-0.179,164.001,31.372,24.902,1
5.254552,0.875,0.153,-0.109,163.696,31.921,25.085,1
5.263879,0.913,0.117,-0.145,159.79,32.653,26.55,1
5.271644,0.931,0.149,-0.113,157.531,33.996,27.099,1
5.279514,0.97,0.137,-0.108,151.672,34.24,28.93,1
5.287469,0.914,0.208,-0.073,152.709,34.24,29.052,1
5.296793,0.998,0.259,-0.077,166.503,34.362,28.625,1
5.304254,1.052,0.289,-0.087,184.02,33.325,26.184,1
5.311881,1.061,0.263,-0.102,192.749,33.386,24.963,1
5.320826,1.166,0.238,-0.129,187.927,34.912,24.841,1
5.329148,1.254,0.253,-0.144,177.612,36.499,23.803,1
5.336791,1.211,0.27,-0.152,170.166,38.818,22.766,1
5.343417,1.174,0.304,-0.159,166.32,40.588,22.094,1
5.352449,1.134,0.34,-0.177,163.208,42.114,21.423,1
5.359807,1.116,0.396,-0.225,163.085,43.579,20.69,1
5.369033,1.118,0.405,-0.238,163.146,43.09,20.263,1
5.3775,1.12,0.506,-0.258,162.109,46.081,19.592,1
5.385817,1.148,0.504,-0.328,165.405,41.809,17.883,1
5.393202,1.063,0.404,-0.251,162.841,42.785,19.775,1
5.400345,1.105,0.478,-0.389,167.419,45.654,17.089,1
5.408802,1.048,0.65,-0.277,170.471,42.846,14.343,1
5.415669,0.976,0.496,-0.372,175.476,41.992,13.305,1
5.424901,0.989,0.638,-0.311,187.255,44.799,10.314,1
5.432412,0.987,0.624,-0.4,196.777,40.222,7.507,1
5.440749,0.951,0.619,-0.36,207.275,42.541,6.042,1
5.448103,1.002,0.602,-0.441,204.833,41.381,5.065,1
5.45559,0.992,0.592,-0.447,194.641,42.48,3.54,1
5.464426,0.958,0.604,-0.48,181.213,43.457,2.197,1
5.473917,0.948,0.645,-0.494,171.203,44.311,-0.305,1
5.480729,0.925,0.664,-0.496,171.997,43.945,-2.624,1
5.489591,0.922,0.67,-0.5,179.992,43.395,-5.371,1
5.49876,0.907,0.665,-0.499,189.392,42.968,-7.751,1
5.505368,0.894,0.638,-0.514,197.998,42.114,-9.643,1
5.514658,0.885,0.596,-0.513,200.012,42.053,-12.023,1
5.521708,0.834,0.588,-0.501,196.594,42.907,-13.671,1
5.5307,0.877,0.564,-0.517,191.833,43.151,-15.563,1
5.537749,0.85,0.566,-0.487,199.829,44.006,-16.906,1
5.546478,0.816,0.547,-0.534,195.129,42.297,-17.7,1
5.555371,0.87,0.48,-0.518,168.212,43.273,-17.7,1
5.563453,0.871,0.467,-0.485,132.69,44.067,-17.822,1
5.573173,0.875,0.464,-0.485,104.064,46.569,-19.226,1
5.580938,0.887,0.452,-0.434,88.073,46.936,-20.935,1
5.589329,0.898,0.443,-0.418,86.853,46.874,-22.705,1
5.596597,0.902,0.426,-0.401,101.928,45.898,-24.169,1
5.606104,0.932,0.367,-0.401,117.736,43.518,-25.146,1
5.612521,0.951,0.332,-0.392,132.812,42.419,-25.573,1
5.621886,0.952,0.303,-0.408,142.15,40.649,-25.207,1
5.629605,0.965,0.276,-0.414,143.493,40.405,-24.658,1
5.637061,0.959,0.257,-0.426,134.155,40.71,-23.681,1
5.644475,0.953,0.251,-0.431,119.506,41.564,-23.315,1
5.652371,0.948,0.26,-0.434,105.163,42.724,-22.705,1
5.659444,0.938,0.276,-0.442,94.726,43.395,-22.583,1
5.668061,0.912,0.291,-0.438,91.125,43.64,-22.705,1
5.6775,0.909,0.314,-0.451,95.825,42.663,-22.949,1
5.684818,0.873,0.32,-0.446,104.614,42.053,-22.949,1
5.693916,0.871,0.312,-0.471,115.661,40.283,-22.705,1
5.700869,0.887,0.312,-0.478,125.122,39.184,-22.338,1
5.709392,0.86,0.308,-0.49,134.887,37.658,-21.545,1
5.717285,0.843,0.307,-0.499,140.563,36.804,-20.69,1
5.725988,0.827,0.3,-0.517,140.869,36.193,-20.08,1
5.734508,0.798,0.286,-0.526,131.408,36.437,-19.348,1
5.743856,0.807,0.282,-0.539,115.417,37.17,-18.615,1
5.751439,0.813,0.294,-0.541,96.679,38.024,-18.066,1
5.758549,0.833,0.306,-0.539,86.12,37.963,-18.005,1
5.765734,0.847,0.307,-0.544,81.665,37.475,-17.7,1
5.773452,0.861,0.304,-0.562,79.711,36.987,-17.272,1
5.781002,0.879,0.292,-0.578,77.819,35.4,-17.089,1
5.789784,0.892,0.272,-0.597,74.646,34.667,-17.089,1
5.797339,0.898,0.256,-0.611,69.519,33.935,-16.967,1
5.80397,0.879,0.238,-0.621,62.805,33.63,-17.15,1
5.811549,0.873,0.23,-0.633,55.297,33.63,-17.456,1
5.820401,0.86,0.226,-0.648,48.339,32.775,-17.517,1
5.829432,0.862,0.227,-0.668,44.067,32.104,-17.517,1
5.836712,0.863,0.221,-0.687,42.846,30.517,-17.883,1
5.843796,0.872,0.213,-0.703,42.663,29.235,-17.883,1
5.854111,0.871,0.207,-0.719,41.809,27.526,-17.578,1
5.861517,0.875,0.208,-0.733,41.809,25.39,-17.333,1
5.87039,0.888,0.206,-0.746,41.687,23.559,-17.456,1
5.877346,0.894,0.2,-0.74,41.687,21.118,-17.517,1
5.885158,0.89,0.187,-0.733,40.344,19.409,-17.639,1
5.894008,0.894,0.175,-0.722,38.085,17.517,-17.639,1
5.902507,0.895,0.156,-0.705,33.691,15.747,-17.517,1
5.909944,0.908,0.145,-0.696,30.029,14.282,-17.333,1
5.918646,0.918,0.141,-0.676,27.343,12.695,-16.906,1
5.926375,0.931,0.133,-0.661,26.367,11.291,-16.54,1
5.934792,0.93,0.135,-0.649,25.268,9.399,-16.113,1
5.94185,0.926,0.135,-0.63,24.658,8.117,-15.136,1
5.949475,0.924,0.139,-0.616,24.963,6.53,-14.526,1
5.957195,0.93,0.15,-0.605,26.0,5.493,-13.916,1
5.966815,0.925,0.156,-0.593,27.221,3.784,-13.305,1
5.973568,0.916,0.162,-0.581,25.634,2.685,-13.061,1
5.981427,0.912,0.166,-0.566,23.01,2.075,-13.0,1
5.989044,0.906,0.172,-0.553,19.042,1.464,-12.451,1
5.996784,0.898,0.174,-0.536,16.174,0.549,-12.817,1
6.005001,0.9,0.177,-0.515,15.014,-0.244,-12.512,1
6.014455,0.894,0.17,-0.495,14.526,-1.037,-12.573,1
6.022113,0.895,0.175,-0.484,14.526,-1.77,-12.084,1
6.029445,0.899,0.165,-0.468,14.892,-2.197,-11.84,1
6.038759,0.899,0.167,-0.458,14.953,-2.685,-11.718,1
6.047312,0.895,0.167,-0.451,13.732,-3.051,-11.352,1
6.054476,0.894,0.165,-0.445,10.925,-3.112,-10.864,1
6.062454,0.887,0.169,-0.437,7.629,-3.051,-10.742,1
6.071023,0.886,0.169,-0.434,5.859,-3.051,-10.498,1
6.078712,0.888,0.161,-0.428,5.126,-3.54,-10.192,1
6.087734,0.898,0.153,-0.423,4.882,-3.479,-9.887,1
6.095783,0.903,0.146,-0.41,6.103,-4.089,-9.399,1
6.105536,0.911,0.137,-0.402,7.446,-4.211,-9.033,1
6.112729,0.922,0.13,-0.39,8.972,-4.516,-8.422,1
6.120413,0.934,0.128,-0.382,10.131,-4.821,-7.934,1
6.127816,0.936,0.126,-0.373,10.803,-5.065,-7.507,1
6.135679,0.942,0.125,-0.366,10.314,-4.943,-6.958,1
6.145018,0.945,0.123,-0.358,9.277,-4.821,-6.835,1
6.151967,0.943,0.122,-0.345,8.666,-4.455,-6.347,1
6.159739,0.943,0.119,-0.329,9.155,-4.15,-5.798,1
6.169225,0.94,0.125,-0.321,9.765,-3.845,-5.615,1
6.176313,0.937,0.128,-0.312,10.925,-3.845,-5.249,1
6.185377,0.933,0.13,-0.302,11.779,-3.479,-4.882,1
6.193489,0.931,0.131,-0.299,11.291,-3.051,-4.577,1
6.201511,0.929,0.136,-0.293,9.765,-2.563,-4.333,1
6.209082,0.936,0.144,-0.291,7.751,-2.075,-3.967,1
6.218255,0.925,0.145,-0.286,5.737,-1.586,-3.723,1
6.225455,0.925,0.147,-0.287,3.173,-1.22,-3.662,1
6.23428,0.923,0.15,-0.287,1.708,-0.427,-3.479,1
6.242324,0.92,0.146,-0.285,0.915,0.183,-3.479,1
6.250179,0.924,0.147,-0.281,0.427,0.427,-3.356,1
6.257189,0.927,0.145,-0.277,1.037,0.732,-3.234,1
6.266641,0.934,0.151,-0.273,-0.671,1.464,-2.99,1
6.275585,0.935,0.153,-0.275,2.38,1.892,-2.502,1
6.282485,0.937,0.158,-0.279,5.798,1.77,-2.441,1
6.289985,0.933,0.156,-0.289,7.019,2.197,-2.197,1
6.299076,0.939,0.162,-0.297,5.676,2.685,-2.197,1
6.306721,0.943,0.163,-0.3,4.028,2.868,-1.953,1
6.314385,0.945,0.165,-0.299,2.563,3.356,-1.831,1
6.321875,0.937,0.169,-0.294,2.441,3.479,-2.136,1
6.329474,0.935,0.174,-0.295,4.638,3.601,-2.014,1
6.338642,0.945,0.179,-0.296,7.08,3.601,-1.892,1
6.34643,0.954,0.187,-0.301,9.521,3.417,-1.647,1
6.354046,0.964,0.196,-0.295,11.657,3.479,-1.892,1
6.363038,0.966,0.201,-0.297,12.451,3.662,-1.953,1
6.370547,0.962,0.202,-0.3,11.413,4.15,-1.953,1
6.378887,0.955,0.215,-0.306,9.948,4.76,-2.197,1
6.386174,0.958,0.224,-0.31,8.544,5.126,-2.563,1
6.395416,0.961,0.23,-0.314,8.3,5.065,-3.173,1
6.402583,0.955,0.231,-0.32,9.216,4.882,-3.601,1
6.410166,0.957,0.237,-0.32,10.131,4.821,-3.906,1
6.41933,0.974,0.235,-0.313,11.108,4.394,-4.577,1
6.428172,0.983,0.251,-0.307,14.404,4.272,-4.943,1
6.435876,0.989,0.262,-0.3,18.432,4.089,-5.432,1
6.444137,0.994,0.271,-0.304,21.362,3.784,-5.737,1
6.451044,0.991,0.283,-0.304,22.888,3.906,-6.164,1
6.45952,0.99,0.289,-0.309,23.01,4.211,-6.896,1
6.468417,0.992,0.308,-0.318,21.179,4.394,-7.873,1
6.47445,0.994,0.324,-0.329,19.287,4.516,-8.728,1
6.483211,0.995,0.33,-0.338,17.822,4.638,-9.887,1
6.491005,0.987,0.344,-0.347,17.211,4.516,-11.352,1
6.500265,0.987,0.351,-0.352,17.578,3.906,-12.512,1
6.508056,0.999,0.356,-0.363,19.226,3.112,-14.038,1
6.515564,1.018,0.359,-0.364,23.925,1.892,-15.441,1
6.523683,1.01,0.355,-0.362,28.747,1.037,-16.906,1
6.530666,1.019,0.352,-0.361,33.081,-0.183,-17.883,1
6.539206,1.039,0.358,-0.354,38.818,-1.281,-19.226,1
6.54632,1.062,0.361,-0.344,45.532,-2.441,-20.507,1
6.553309,1.071,0.359,-0.344,52.368,-3.601,-22.094,1
6.560786,1.08,0.35,-0.331,59.448,-4.394,-23.437,1
6.569149,1.085,0.345,-0.329,65.795,-5.187,-24.597,1
6.577397,1.082,0.337,-0.319,70.8,-5.798,-26.184,1
6.583928,1.08,0.328,-0.322,73.852,-6.103,-27.221,1
6.592363,1.07,0.321,-0.32,74.523,-6.225,-28.625,1
6.600354,1.066,0.307,-0.32,73.303,-6.408,-30.273,1
6.608188,1.058,0.31,-0.326,72.326,-6.713,-31.372,1
6.61611,1.031,0.32,-0.317,74.035,-7.141,-32.47,1
6.624562,1.056,0.307,-0.326,78.43,-8.3,-34.057,1
6.631305,1.048,0.296,-0.314,82.702,-9.094,-34.973,1
6.639746,1.041,0.279,-0.321,86.608,-9.948,-36.437,1
6.647956,1.037,0.26,-0.31,89.599,-10.559,-37.231,1
6.655138,1.044,0.235,-0.315,91.857,-11.169,-37.841,1
6.664589,1.056,0.215,-0.308,93.444,-11.84,-38.146,1
6.671936,1.055,0.192,-0.316,94.787,-12.573,-38.391,1
6.679402,1.047,0.182,-0.312,95.642,-13.122,-38.452,1
6.687319,1.035,0.172,-0.315,96.191,-13.977,-38.452,1
6.696723,1.041,0.154,-0.312,97.229,-15.075,-38.574,1
6.703859,1.023,0.155,-0.307,98.876,-15.808,-38.452,1
6.711688,1.001,0.161,-0.307,104.614,-16.235,-38.879,1
6.720367,0.973,0.167,-0.303,114.929,-18.188,-39.184,1
6.727088,1.02,0.16,-0.292,130.737,-19.714,-39.733,1
6.735175,1.062,0.126,-0.287,145.935,-20.935,-40.222,1
6.742874,1.096,0.088,-0.294,149.292,-20.69,-40.588,1
6.751368,1.108,0.055,-0.303,141.906,-20.446,-40.588,1
6.759835,1.089,0.025,-0.307,125.671,-19.042,-39.978,1
6.768181,1.067,0.024,-0.319,99.487,-17.639,-39.062,1
6.778853,1.043,0.03,-0.301,82.214,-16.479,-38.391,1
6.786099,1.015,0.048,-0.299,65.856,-15.197,-37.719,1
6.794482,1.0,0.064,-0.306,49.377,-14.282,-37.292,1
6.802887,0.989,0.075,-0.309,32.714,-12.695,-37.109,1
6.812064,0.964,0.104,-0.318,17.639,-12.268,-36.987,1
6.820133,0.945,0.134,-0.324,9.338,-11.962,-37.048,1
6.828204,0.932,0.151,-0.347,3.967,-12.512,-36.682,1
6.835744,0.916,0.169,-0.342,2.319,-13.488,-36.804,1
6.844949,0.908,0.189,-0.366,3.173,-14.587,-36.865,1
6.853869,0.905,0.183,-0.394,1.342,-16.174,-37.231,1
6.861393,0.918,0.192,-0.39,1.037,-17.7,-37.048,1
6.869282,0.945,0.216,-0.397,3.417,-19.653,-36.865,1
6.877258,0.949,0.239,-0.393,7.019,-21.667,-36.865,1
6.885603,0.951,0.26,-0.395,11.657,-23.681,-36.804,1
6.89438,0.956,0.272,-0.39,16.967,-26.855,-37.231,1
6.902169,0.972,0.28,-0.393,20.69,-28.686,-37.536,1
6.908943,0.976,0.278,-0.395,21.301,-30.578,-38.085,1
6.918148,0.965,0.285,-0.39,20.812,-33.081,-37.963,1
6.926301,0.979,0.306,-0.385,26.489,-36.254,-37.353,1
6.935412,1.022,0.329,-0.366,39.489,-40.344,-36.865,1
6.942088,1.075,0.36,-0.366,59.265,-44.311,-36.499,1
6.951463,1.083,0.398,-0.356,77.575,-48.767,-36.376,1
6.960404,1.078,0.429,-0.351,102.111,-53.039,-37.17,1
6.96721,1.083,0.354,-0.333,121.276,-59.997,-37.963,1
6.975756,0.839,0.181,-0.221,102.6,-57.922,-32.897,1
6.983365,0.816,0.156,-0.197,50.537,-52.734,-29.479,1
6.991253,0.976,0.12,-0.132,-4.333,-49.255,-26.0,1
6.999431,1.153,0.07,-0.099,-53.955,-44.189,-23.071,1
7.006139,1.254,0.059,-0.082,-92.224,-39.978,-22.399,1
7.014626,1.416,-0.007,-0.202,-141.906,-40.039,-23.742,1
7.023282,1.229,0.025,-0.135,-204.589,-40.283,-23.559,1
7.032029,1.003,0.064,-0.161,-235.961,-39.062,-24.78,1
7.040543,0.847,0.126,-0.082,-233.032,-36.437,-26.916,1
7.047357,0.878,0.124,-0.154,-205.2,-37.414,-28.503,1
7.057069,0.919,0.144,-0.154,-151.794,-40.71,-30.7,1
7.06523,0.918,0.152,-0.218,-95.947,-46.813,-33.63,1
7.071896,0.895,0.166,-0.21,-26.367,-51.696,-37.78,1
7.079986,0.863,0.123,-0.268,27.221,-58.227,-40.893,1
7.087263,0.863,0.042,-0.285,70.373,-60.791,-42.907,1
7.097617,0.915,-0.006,-0.314,91.918,-65.368,-44.311,1
7.105887,0.998,-0.038,-0.315,90.82,-63.842,-44.25,1
7.112286,1.083,-0.032,-0.338,76.66,-63.964,-44.921,1
7.12073,1.076,0.005,-0.329,61.34,-62.133,-46.386,1
7.128166,1.074,0.029,-0.337,47.729,-62.866,-49.072,1
7.136829,1.068,0.043,-0.317,45.715,-63.354,-51.147,1
7.144623,1.064,0.047,-0.313,49.987,-65.185,-53.71,1
7.152149,1.176,0.033,-0.292,60.241,-65.734,-56.274,1
7.160157,1.061,0.045,-0.292,67.749,-66.833,-58.41,1
7.169034,1.012,0.033,-0.304,68.542,-68.664,-61.096,1
7.175979,1.006,0.024,-0.233,69.091,-68.786,-63.598,1
7.185253,0.967,0.024,-0.226,64.697,-69.702,-66.65,1
7.191993,0.917,0.026,-0.16,61.34,-69.458,-69.091,1
7.201248,0.866,0.02,-0.125,57.006,-69.763,-72.143,1
7.209244,0.813,0.003,-0.041,51.33,-69.213,-75.439,1
7.216881,0.792,-0.041,-0.007,43.823,-68.725,-77.392,1
7.226718,0.691,-0.063,0.078,35.156,-68.115,-78.918,1
7.234732,0.492,-0.055,0.222,29.846,-65.429,-81.176,1
7.242474,0.646,-0.082,0.359,32.897,-62.133,-84.228,1
7.25104,0.721,-0.107,0.449,39.978,-57.861,-87.829,1
7.257773,0.83,-0.145,0.59,54.199,-54.443,-91.308,1
7.265688,0.801,-0.171,0.723,72.998,-51.33,-94.055,1
7.274278,0.823,-0.22,0.85,101.623,-48.339,-96.801,1
7.283119,0.797,-0.305,0.949,119.201,-44.677,-97.9,1
7.290412,0.754,-0.395,1.065,121.887,-38.391,-97.595,1
7.297659,0.78,-0.479,1.119,108.032,-28.747,-96.252,1
7.305539,0.694,-0.531,1.177,83.862,-19.958,-94.909,1
7.31423,0.645,-0.588,1.229,62.377,-9.582,-92.59,1
7.322847,0.626,-0.629,1.22,48.278,-0.061,-89.599,1
7.330008,0.592,-0.701,1.189,37.109,10.925,-86.425,1
7.337262,0.548,-0.769,1.147,24.353,20.263,-83.312,1
7.345729,0.512,-0.839,1.098,5.615,30.517,-80.322,1
7.353528,0.455,-0.898,1.054,-19.104,42.907,-76.171,1
7.361872,0.403,-0.926,1.006,-33.447,52.917,-72.326,1
7.369587,0.349,-0.954,0.943,-35.461,63.293,-67.565,1
7.379587,0.286,-0.98,0.905,-28.686,70.861,-62.683,1
7.38635,0.195,-1.022,0.805,-16.723,80.078,-56.335,1
7.396254,0.158,-1.075,0.742,-10.986,87.219,-50.842,1
7.405222,0.041,-1.129,0.653,-16.235,95.947,-44.189,1
7.412804,-0.023,-1.22,0.581,-40.344,107.299,-37.353,1
7.421572,-0.095,-1.245,0.55,-67.993,117.004,-30.456,1
7.43113,-0.208,-1.235,0.531,-72.448,125.061,-24.536,1
7.438415,-0.291,-1.255,0.517,-62.744,130.737,-19.592,1
7.446562,-0.358,-1.286,0.517,-44.921,136.596,-12.451,1
7.455961,-0.523,-1.28,0.496,-14.404,142.395,-5.065,1
7.463413,-0.498,-1.377,0.451,5.676,145.69,2.685,1
7.471802,-0.648,-1.491,0.395,13.366,152.587,13.793,1
7.480794,-0.687,-1.562,0.449,-2.502,160.156,25.207,1
7.488878,-0.807,-1.591,0.368,-9.582,168.64,34.79,1
7.495865,-0.871,-1.626,0.393,-15.563,174.804,45.043,1
7.504861,-0.991,-1.661,0.364,-17.15,182.8,59.265,1
7.513815,-1.068,-1.681,0.359,-11.352,188.293,71.289,1
7.523121,-1.19,-1.703,0.326,-3.173,195.556,86.975,1
7.531323,-1.351,-1.729,0.289,4.394,201.293,103.759,1
7.539298,-1.517,-1.78,0.263,4.028,207.702,121.032,1
7.547039,-1.622,-1.735,0.251,16.845,214.05,135.986,1
7.555869,-1.895,-1.724,0.175,27.526,219.909,153.869,1
7.563084,-2.2,-1.709,0.159,27.526,224.121,169.189,1
7.571195,-2.518,-1.699,0.123,-6.286,235.351,187.622,1
7.579541,-2.716,-1.61,0.138,-13.732,245.239,202.331,1
7.589689,-3.007,-1.547,0.084,-13.122,254.333,219.97,1
7.598696,-3.351,-1.501,-0.021,-10.07,264.77,241.516,1
7.60513,-3.577,-1.481,-0.079,-8.361,272.155,259.277,1
7.614363,-3.823,-1.439,-0.155,-7.263,278.503,278.137,1
7.621232,-4.152,-1.364,-0.221,2.685,284.179,301.086,1
7.631565,-4.475,-1.327,-0.281,16.479,287.048,321.899,1
7.638156,-4.98,-1.338,-0.379,37.902,290.588,349.914,1
7.648301,-5.354,-1.337,-0.462,59.326,290.832,375.976,1
7.655383,-5.836,-1.336,-0.592,91.247,289.062,409.057,1
7.662833,-6.317,-1.355,-0.735,127.441,282.165,445.739,1
7.672782,-6.812,-1.359,-0.87,163.879,271.972,479.797,1
7.680737,-7.467,-1.357,-1.053,206.97,253.112,523.376,1
7.688456,-8.052,-1.338,-1.191,252.929,232.788,565.551,1
7.697791,-8.717,-1.373,-1.303,288.879,198.059,616.333,1
7.70549,-9.627,-1.237,-1.48,341.369,161.987,661.437,1
7.712836,-10.34,-1.079,-1.505,381.042,113.83,706.359,1
7.721067,-11.163,-0.876,-1.553,447.692,53.894,758.3,1
7.728024,-12.132,-0.697,-1.525,500.427,-13.61,800.231,1
7.736895,-13.452,-0.5,-1.441,539.55,-83.068,838.439,1
7.744684,-14.691,-0.257,-1.33,569.58,-173.767,875.305,1
7.751945,-15.883,0.001,-1.235,593.078,-253.478,898.559,1
7.761181,-15.996,0.208,-1.124,606.75,-340.27,914.306,1
7.768907,-15.999,0.562,-0.843,651.428,-444.396,921.997,1
7.775805,-15.999,0.808,-0.539,721.435,-550.781,915.405,1
7.785292,-15.999,1.248,-0.031,840.026,-655.273,893.371,1
7.793148,-15.999,1.708,0.605,1026.794,-824.157,823.181,1
7.802441,-15.999,2.076,1.312,1204.528,-947.143,733.703,1
7.811244,-15.999,2.277,1.876,1385.07,-1067.627,603.698,1
7.817786,-15.999,2.186,2.232,1506.896,-1169.555,403.259,1
7.828108,-15.999,1.676,2.303,1464.233,-1208.19,210.205,1
7.834656,-15.999,1.813,2.533,1240.173,-1166.931,8.117,1
7.843209,-15.999,2.002,2.404,1010.07,-1128.295,-137.695,1
7.852294,-15.999,1.872,2.693,805.358,-1042.419,-271.057,1
7.860951,-15.999,1.674,2.882,592.712,-972.595,-366.455,1
7.86957,-15.999,1.333,3.061,488.037,-888.061,-414.733,1
7.878163,-15.999,0.887,2.708,376.831,-824.035,-452.27,1
7.886858,-15.335,0.906,2.745,294.738,-746.459,-472.228,1
7.894453,-13.977,1.02,2.604,268.005,-696.472,-488.098,1
7.903999,-13.123,0.904,2.5,294.494,-641.174,-502.014,1
7.912886,-12.125,0.692,2.348,299.987,-600.891,-513.183,1
7.92111,-11.135,0.491,2.283,277.587,-536.254,-521.789,1
7.930022,-10.455,0.41,2.249,257.446,-487.06,-524.536,1
7.939461,-9.803,0.383,2.209,265.93,-443.481,-523.986,1
7.947512,-9.156,0.243,2.179,286.926,-390.258,-522.888,1
7.955264,-8.466,0.019,2.04,282.104,-346.069,-519.531,1
7.963596,-7.703,-0.145,1.94,250.915,-299.865,-511.718,1
7.971688,-6.799,-0.349,1.85,228.332,-261.718,-501.953,1
7.97893,-6.281,-0.58,1.731,216.735,-228.82,-492.736,1
7.988301,-5.91,-0.669,1.765,187.194,-183.532,-476.989,1
7.99713,-5.408,-0.74,1.518,151.855,-151.977,-460.693,1
8.004379,-5.13,-0.787,1.534,133.056,-123.474,-444.152,1
8.012984,-4.734,-0.823,1.355,124.267,-101.928,-427.856,1
8.020566,-4.451,-0.875,1.354,127.38,-78.186,-408.813,1
8.029628,-4.03,-0.976,1.178,125.488,-55.786,-389.221,1
8.038202,-3.677,-1.056,1.11,113.342,-37.841,-372.924,1
8.046066,-3.365,-1.111,0.978,85.449,-18.554,-353.637,1
8.054139,-3.014,-1.134,0.935,59.448,-2.563,-335.388,1
8.063794,-2.619,-1.187,0.833,45.104,8.605,-319.946,1
8.07272,-2.327,-1.209,0.804,38.208,18.493,-301.574,1
8.081371,-2.099,-1.233,0.737,40.161,27.099,-283.386,1
8.090359,-1.882,-1.239,0.714,45.593,33.203,-264.77,1
8.096675,-1.723,-1.223,0.646,48.583,39.245,-246.398,1
8.106075,-1.564,-1.215,0.629,52.978,42.968,-230.651,1
8.114089,-1.37,-1.212,0.562,47.607,49.438,-212.463,1
8.121475,-1.216,-1.163,0.508,37.414,53.405,-197.814,1
8.129679,-1.124,-1.075,0.461,29.052,57.434,-181.64,1
8.137196,-1.068,-0.995,0.432,23.132,59.387,-169.311,1
8.145332,-1.021,-0.923,0.424,20.263,61.523,-158.081,1
8.151643,-0.931,-0.866,0.413,19.165,62.988,-148.01,1
8.159001,-0.821,-0.818,0.408,20.446,64.758,-138.366,1
8.16708,-0.72,-0.766,0.391,23.254,66.101,-130.615,1
8.175095,-0.646,-0.689,0.378,34.545,66.711,-120.056,1
8.182434,-0.57,-0.636,0.357,48.461,66.955,-113.037,1
8.190363,-0.47,-0.622,0.311,58.288,67.138,-103.271,1
8.199058,-0.372,-0.6,0.284,55.725,68.969,-95.214,1
8.206965,-0.271,-0.558,0.25,48.828,69.763,-86.73,1
8.214408,-0.184,-0.515,0.242,46.691,70.312,-80.2,1
8.222805,-0.094,-0.47,0.238,48.767,70.251,-73.73,1
8.230526,-0.026,-0.426,0.233,55.175,70.007,-67.016,1
8.239584,0.034,-0.39,0.229,62.438,69.213,-61.95,1
8.246958,0.084,-0.367,0.226,71.105,68.603,-57.128,1
8.255835,0.195,-0.348,0.222,80.078,67.565,-51.574,1
8.264619,0.264,-0.323,0.224,86.608,67.382,-47.058,1
8.271915,0.314,-0.295,0.191,90.209,67.321,-42.236,1
8.281534,0.332,-0.277,0.166,88.5,67.199,-38.33,1
8.288872,0.389,-0.269,0.152,78.491,66.955,-34.118,1
8.296019,0.466,-0.244,0.132,68.786,66.772,-30.639,1
8.305221,0.534,-0.225,0.122,60.668,65.002,-27.526,1
8.312186,0.586,-0.229,0.116,55.847,63.781,-24.536,1
8.320073,0.705,-0.23,0.12,53.1,62.438,-21.423,1
8.327947,0.786,-0.236,0.108,50.109,62.683,-19.226,1
8.337005,0.818,-0.239,0.095,43.334,62.011,-17.272,1
8.343849,0.858,-0.239,0.087,32.409,62.011,-16.174,1
8.353008,0.864,-0.244,0.084,21.972,62.072,-14.892,1
8.359647,0.898,-0.247,0.075,13.183,62.255,-13.671,1
8.367124,0.926,-0.243,0.071,7.934,61.828,-12.084,1
8.376239,0.937,-0.235,0.064,6.225,60.913,-10.314,1
8.38541,0.929,-0.225,0.044,7.385,59.387,-9.033,1
8.392694,0.897,-0.215,0.028,11.901,57.006,-7.507,1
8.401413,0.88,-0.203,0.012,17.333,53.955,-6.164,1
8.409448,0.881,-0.191,0.011,22.521,51.696,-4.882,1
8.417312,0.906,-0.188,0.0,25.268,49.377,-4.455,1
8.424803,0.933,-0.185,-0.003,24.108,47.912,-4.577,1
8.432776,0.977,-0.186,-0.014,20.568,46.874,-4.394,1
8.442317,0.996,-0.187,-0.019,18.31,45.532,-4.638,1
8.449573,1.014,-0.19,-0.02,18.31,44.799,-4.638,1
8.457175,1.037,-0.2,-0.027,18.798,42.297,-4.211,1
8.464872,1.054,-0.201,-0.008,22.583,42.419,-3.906,1
8.473813,1.05,-0.209,-0.024,26.306,40.649,-3.295,1
8.481044,1.055,-0.226,-0.043,27.404,39.489,-2.929,1
8.490199,1.044,-0.228,-0.027,26.794,37.963,-2.624,1
8.497633,1.019,-0.243,-0.034,24.963,37.475,-2.136,1
8.504895,1.05,-0.256,-0.033,19.714,36.315,-1.464,1
8.513817,1.071,-0.278,-0.025,13.854,36.865,-0.732,1
8.520775,1.106,-0.29,-0.013,6.958,36.926,0.305,1
8.52902,1.136,-0.3,-0.01,0.366,37.841,1.647,1
8.537471,1.145,-0.299,-0.016,-5.615,38.146,3.051,1
8.546135,1.158,-0.309,-0.031,-10.314,38.269,4.76,1
8.553484,1.142,-0.311,-0.033,-13.549,37.353,6.835,1
8.562198,1.117,-0.306,-0.041,-14.831,35.949,8.605,1
8.568856,1.099,-0.296,-0.044,-12.207,34.423,10.62,1
8.578616,1.09,-0.288,-0.044,-5.187,32.043,13.183,1
8.585262,1.079,-0.276,-0.042,3.54,29.907,15.136,1
8.593867,1.061,-0.268,-0.045,17.089,26.977,17.517,1
8.601911,1.044,-0.254,-0.049,30.517,24.353,19.47,1
8.610294,1.037,-0.25,-0.047,43.823,21.728,21.179,1
8.617603,1.041,-0.25,-0.047,57.495,19.226,23.62,1
8.626543,1.034,-0.25,-0.059,66.04,17.272,25.695,1
8.63407,1.025,-0.25,-0.062,72.875,15.441,27.954,1
8.641748,1.01,-0.241,-0.068,77.941,13.671,30.456,1
8.648864,1.0,-0.237,-0.07,82.519,11.596,33.02,1
8.657048,0.99,-0.229,-0.067,84.96,9.948,34.912,1
8.664813,0.979,-0.221,-0.068,86.608,8.361,36.926,1
8.673924,0.967,-0.211,-0.066,87.036,7.202,38.757,1
8.681424,0.954,-0.202,-0.057,86.547,6.042,40.466,1
8.690565,0.942,-0.194,-0.048,84.472,5.615,41.992,1
8.698636,0.928,-0.188,-0.04,80.932,5.615,43.579,1
8.706612,0.921,-0.187,-0.036,75.439,5.92,44.982,1
8.713021,0.929,-0.187,-0.036,68.786,6.286,46.752,1
8.72104,0.925,-0.185,-0.029,59.936,7.263,48.522,1
8.729606,0.916,-0.179,-0.027,51.94,8.056,50.292,1
8.739176,0.89,-0.161,-0.023,44.006,8.911,52.124,1
8.746059,0.858,-0.153,-0.022,38.574,9.704,53.466,1
8.753549,0.844,-0.145,-0.01,34.851,10.192,55.48,1
8.76186,0.847,-0.132,0.0,33.447,11.474,57.25,1
8.770905,0.847,-0.131,0.006,32.775,12.39,59.143,1
8.778323,0.845,-0.132,0.002,31.982,14.099,61.584,1
8.787054,0.824,-0.122,0.0,30.09,15.624,63.11,1
8.793461,0.807,-0.123,-0.002,26.428,16.662,64.758,1
8.801703,0.791,-0.124,-0.006,21.24,18.005,66.65,1
8.811291,0.774,-0.127,-0.01,14.404,19.287,69.091,1
8.818199,0.778,-0.131,-0.004,8.972,20.69,71.105,1
8.82601,0.795,-0.124,-0.002,4.211,22.583,73.913,1
8.833629,0.812,-0.128,0.001,2.563,23.559,76.599,1
8.843654,0.859,-0.127,0.005,3.356,25.329,79.284,1
8.850912,0.87,-0.12,0.013,7.446,26.611,82.702,1
8.860531,0.898,-0.11,0.022,14.526,28.747,86.12,1
8.867662,0.915,-0.097,0.02,23.986,30.09,89.416,1
8.876058,0.903,-0.088,0.013,31.616,31.066,91.308,1
8.884832,0.881,-0.082,0.012,38.024,32.104,93.872,1
8.89179,0.84,-0.074,0.013,42.541,33.142,95.764,1
8.900557,0.81,-0.067,0.014,46.203,34.362,98.022,1
8.909533,0.791,-0.059,0.011,47.302,35.949,99.853,1
8.917065,0.774,-0.055,0.008,46.752,37.231,101.867,1
8.92425,0.779,-0.053,0.003,46.02,39.001,104.248,1
8.931673,0.786,-0.05,-0.002,43.579,40.405,105.895,1
8.939685,0.786,-0.038,-0.013,40.039,42.175,107.604,1
8.948402,0.764,-0.035,-0.035,33.569,43.762,109.497,1
8.955738,0.73,-0.019,-0.049,26.489,45.288,110.9,1
8.964171,0.703,0.0,-0.07,18.981,46.081,112.304,1
8.972767,0.666,0.015,-0.075,12.512,47.607,113.83,1
8.980438,0.639,0.032,-0.101,4.699,49.56,115.417,1
8.988981,0.599,0.064,-0.123,-3.234,50.842,116.638,1
8.996002,0.555,0.096,-0.136,-9.155,51.696,117.858,1
9.003657,0.512,0.101,-0.158,-14.709,52.917,119.201,1
9.011215,0.502,0.17,-0.167,-18.127,54.565,119.873,1
9.018507,0.485,0.201,-0.203,-15.197,52.673,119.873,1
9.027718,0.465,0.217,-0.183,-5.065,53.405,120.544,1
9.034444,0.443,0.224,-0.233,4.333,52.001,121.948,1
9.043361,0.437,0.228,-0.244,8.605,51.086,123.474,1
9.050377,0.402,0.247,-0.252,8.056,51.086,124.816,1
9.058337,0.339,0.256,-0.271,0.976,50.048,126.22,1
9.065755,0.319,0.259,-0.277,-10.498,50.842,127.319,1
9.075285,0.274,0.306,-0.263,-31.799,53.222,128.784,1
9.083175,0.284,0.301,-0.296,-43.273,51.208,127.807,1
9.090436,0.249,0.316,-0.213,-52.185,56.152,130.249,1
9.099492,0.304,0.354,-0.359,-48.217,53.649,129.577,1
9.106568,0.207,0.378,-0.249,-37.597,51.513,129.699,1
9.114323,0.204,0.349,-0.305,-26.794,54.504,132.324,1
9.121135,0.14,0.367,-0.276,-39.672,52.795,136.047,1
9.129936,0.172,0.31,-0.397,-44.86,54.87,135.986,1
9.137663,0.112,0.454,-0.27,-54.443,54.87,136.23,1
9.145607,0.069,0.407,-0.323,-64.27,55.114,138.305,1
9.152201,0.098,0.483,-0.35,-59.265,55.725,136.779,1
9.160877,0.019,0.506,-0.3,-49.499,53.588,136.352,1
9.167489,0.021,0.504,-0.312,-35.949,55.603,137.39,1
9.175916,0.013,0.523,-0.334,-26.977,52.734,137.756,1
9.183942,-0.03,0.539,-0.349,-20.629,54.077,139.16,1
9.194215,-0.015,0.579,-0.393,-21.179,52.368,139.404,1
9.203265,-0.09,0.563,-0.359,-21.667,52.001,140.686,1
9.212106,-0.124,0.687,-0.34,-57.617,59.692,145.446,1
9.219589,-0.05,0.698,-0.434,-86.364,55.358,141.845,1
9.228083,-0.131,0.729,-0.268,-84.96,63.232,140.991,1
9.235276,-0.1,0.739,-0.4,-67.81,60.791,138.732,1
9.246045,-0.133,0.67,-0.292,-40.039,61.523,138.366,1
9.252773,-0.093,0.637,-0.376,-24.108,60.729,139.282,1
9.262555,-0.148,0.608,-0.308,-16.113,60.424,140.014,1
9.269456,-0.157,0.585,-0.331,-12.329,61.889,141.479,1
9.278057,-0.176,0.551,-0.283,-7.446,60.241,142.456,1
9.287532,-0.206,0.517,-0.238,2.624,62.866,144.47,1
9.295779,-0.222,0.475,-0.209,13.488,61.462,146.118,1
9.303534,-0.25,0.437,-0.16,25.146,63.537,148.498,1
9.312483,-0.265,0.424,-0.164,41.198,63.415,151.855,1
9.320566,-0.32,0.414,-0.15,58.471,64.331,155.334,1
9.327566,-0.371,0.408,-0.161,75.5,63.842,159.606,1
9.335883,-0.442,0.413,-0.178,93.749,63.293,164.978,1
9.345249,-0.526,0.423,-0.2,104.553,62.561,170.532,1
9.352251,-0.633,0.437,-0.231,105.773,62.499,175.842,1
9.360644,-0.714,0.451,-0.236,89.843,63.049,181.274,1
9.369076,-0.785,0.458,-0.215,67.138,66.101,186.035,1
9.376017,-0.862,0.51,-0.248,34.423,71.899,191.04,1
9.38463,-0.961,0.57,-0.297,2.319,75.622,194.03,1
9.391764,-1.069,0.621,-0.307,-30.517,81.604,196.777,1
9.39908,-1.113,0.708,-0.348,-58.227,88.073,198.12,1
9.407166,-1.181,0.795,-0.386,-75.5,92.346,198.364,1
9.415911,-1.244,0.846,-0.399,-82.946,97.473,198.486,1
9.424381,-1.154,0.913,-0.427,-73.669,101.806,197.937,1
9.431415,-1.383,0.973,-0.461,-61.218,105.285,197.875,1
9.440097,-1.445,1.044,-0.551,-50.292,107.91,197.265,1
9.447731,-1.484,1.08,-0.593,-45.959,108.52,195.983,1
9.456375,-1.581,1.127,-0.648,-50.109,112.06,194.519,1
9.464635,-1.644,1.167,-0.725,-61.462,113.403,192.382,1
9.471321,-1.681,1.205,-0.76,-76.538,115.478,189.514,1
9.479204,-1.673,1.245,-0.818,-93.811,117.614,185.729,1
9.487971,-1.676,1.291,-0.83,-110.168,119.628,181.457,1
9.495767,-1.62,1.345,-0.881,-126.953,123.718,176.086,1
9.502574,-1.576,1.379,-0.939,-140.319,124.328,170.288,1
9.512082,-1.58,1.42,-0.976,-149.78,126.22,163.635,1
9.518809,-1.589,1.482,-1.017,-155.944,126.77,157.043,1
9.527654,-1.524,1.524,-1.055,-154.846,126.464,147.827,1
9.533858,-1.492,1.528,-1.087,-151.123,124.267,139.892,1
9.542003,-1.493,1.519,-1.101,-144.958,122.619,132.019,1
9.550233,-1.396,1.493,-1.113,-138.793,119.323,124.267,1
9.557201,-1.351,1.473,-1.091,-132.385,117.858,116.943,1
9.564601,-1.306,1.447,-1.098,-129.76,115.661,110.412,1
9.572974,-1.274,1.434,-1.097,-126.525,113.342,104.003,1
9.57973,-1.208,1.404,-1.097,-119.384,110.229,98.327,1
9.587586,-1.2,1.389,-1.097,-103.637,106.689,93.078,1
9.596177,-1.117,1.351,-1.111,-83.557,102.111,88.378,1
9.602664,-1.163,1.339,-1.106,-60.729,96.496,84.899,1
9.610355,-1.135,1.29,-1.125,-33.63,89.172,81.726,1
9.619084,-1.107,1.229,-1.112,-11.23,81.848,79.589,1
9.624999,-1.082,1.158,-1.09,2.746,75.561,78.125,1
9.632869,-1.037,1.113,-1.059,8.239,69.335,77.453,1
9.63981,-0.974,1.089,-0.997,17.15,65.063,77.392,1
9.648595,-0.915,1.066,-0.978,31.005,60.607,77.575,1
9.655389,-0.915,1.057,-0.965,45.41,55.541,77.758,1
9.663942,-0.923,1.046,-0.976,57.983,49.987,77.575,1
9.670776,-0.998,1.04,-0.966,65.002,44.494,77.636,1
9.677665,-0.992,1.006,-0.975,70.373,39.733,77.087,1
9.684933,-1.007,1.018,-0.947,70.251,34.667,76.477,1
9.693187,-0.966,0.997,-0.936,70.495,29.968,75.744,1
9.700962,-0.948,0.978,-0.903,67.749,25.817,75.073,1
9.707417,-0.933,0.962,-0.867,64.086,21.423,74.279,1
9.715759,-0.906,0.952,-0.826,63.11,17.7,73.486,1
9.722302,-0.886,0.959,-0.791,66.223,13.61,72.509,1
9.731241,-0.869,0.962,-0.751,71.716,9.094,70.983,1
9.738154,-0.841,0.955,-0.706,79.528,5.004,69.519,1
9.746599,-0.825,0.942,-0.665,88.012,1.037,67.687,1
9.753103,-0.802,0.916,-0.608,96.313,-2.502,65.979,1
9.760694,-0.77,0.882,-0.56,102.905,-5.554,64.636,1
9.768837,-0.736,0.851,-0.504,106.384,-7.812,62.927,1
9.775601,-0.72,0.822,-0.46,107.604,-9.155,61.645,1
9.78359,-0.705,0.784,-0.411,107.299,-9.948,60.668,1
9.791779,-0.703,0.751,-0.357,106.384,-10.131,59.57,1
9.798958,-0.656,0.723,-0.31,105.651,-9.338,58.837,1
9.807097,-0.671,0.685,-0.282,99.243,-8.239,57.922,1
9.815277,-0.675,0.672,-0.249,91.491,-5.737,57.25,1
9.821833,-0.655,0.641,-0.255,80.078,-4.943,56.884,1
9.830197,-0.649,0.617,-0.217,69.824,-2.014,56.518,1
9.838039,-0.674,0.596,-0.214,58.166,0.061,56.335,1
9.845234,-0.785,0.46,-0.227,41.809,2.38,57.739,1
9.851983,-0.766,0.652,-0.119,14.038,12.145,61.889,1
9.860038,-0.65,0.613,-0.262,5.981,8.3,60.363,1
9.868467,-0.749,0.577,-0.104,12.634,12.329,59.814,1
9.874837,-0.759,0.562,-0.186,18.249,15.014,60.058,1
9.883102,-0.783,0.542,-0.17,22.583,12.634,58.349,1
9.889989,-0.821,0.501,-0.131,28.869,16.235,58.776,1
9.897818,-0.834,0.525,-0.158,35.4,16.906,58.105,1
9.907257,-0.833,0.516,-0.139,43.579,17.578,57.556,1
9.914436,-0.869,0.509,-0.129,50.903,19.836,57.556,1
9.923441,-0.879,0.511,-0.138,58.837,20.446,56.64,1
9.930212,-0.88,0.512,-0.151,68.847,21.606,55.725,1
9.938318,-0.849,0.522,-0.162,81.054,21.484,54.016,1
9.946336,-0.879,0.517,-0.176,91.796,21.362,52.551,1
9.953766,-0.929,0.542,-0.209,97.045,21.423,50.72,1
9.962709,-0.974,0.543,-0.227,99.304,20.141,48.706,1
9.970364,-1.031,0.557,-0.247,98.754,20.996,46.874,1
9.978571,-1.066,0.552,-0.267,90.515,20.019,43.945,1
9.987142,-1.126,0.562,-0.265,80.932,20.507,41.687,1
9.996103,-1.079,0.562,-0.283,69.03,20.446,38.452,1
