timestamp_s,ax,ay,az,gx,gy,gz,label
0.006042,-0.003,0.992,-0.085,-4.76,-5.798,-0.915,1
0.014276,0.003,0.989,-0.088,-5.92,-4.882,-0.854,1
0.021959,0.008,0.988,-0.088,-6.958,-4.333,-0.549,1
0.030442,0.007,0.983,-0.09,-6.713,-3.967,-0.488,1
0.039105,0.004,0.979,-0.096,-6.713,-3.784,-0.244,1
0.046469,0.001,0.973,-0.096,-6.652,-3.479,-0.061,1
0.05487,0.006,0.962,-0.093,-6.713,-3.112,0.0,1
0.063268,0.003,0.955,-0.084,-7.141,-2.624,0.244,1
0.071052,0.006,0.951,-0.089,-7.019,-2.441,0.549,1
0.078483,0.003,0.955,-0.083,-6.53,-2.258,0.549,1
0.086333,0.006,0.956,-0.071,-6.286,-2.014,0.549,1
0.096981,0.008,0.956,-0.064,-6.347,-1.464,0.549,1
0.104003,0.006,0.958,-0.061,-5.981,-0.854,0.61,1
0.111109,0.011,0.963,-0.062,-5.126,-0.305,0.732,1
0.120282,0.01,0.963,-0.055,-2.99,0.183,0.793,1
0.127388,0.005,0.965,-0.057,-0.305,0.549,1.037,1
0.136344,0.002,0.962,-0.055,1.342,1.281,1.403,1
0.142833,0.004,0.955,-0.059,2.075,2.38,1.403,1
0.150103,0.004,0.959,-0.069,1.831,3.295,1.525,1
0.159069,0.004,0.96,-0.076,1.831,3.845,1.953,1
0.165644,0.006,0.969,-0.084,2.197,4.516,2.258,1
0.173171,0.006,0.979,-0.088,2.99,4.943,2.38,1
0.182461,0.009,0.981,-0.093,3.723,5.065,2.38,1
0.18976,0.009,0.993,-0.097,3.967,5.615,2.38,1
0.197728,0.015,0.992,-0.103,4.028,6.042,2.319,1
0.206647,0.017,0.991,-0.106,3.234,6.103,2.441,1
0.214291,0.017,0.987,-0.115,2.868,6.591,2.38,1
0.222243,0.015,0.989,-0.123,3.173,6.713,2.502,1
0.231122,0.013,0.982,-0.13,4.455,6.652,2.502,1
0.238266,0.009,0.977,-0.136,6.225,6.469,2.746,1
0.246809,0.01,0.977,-0.139,7.69,6.469,2.868,1
0.253037,0.012,0.969,-0.144,8.544,6.347,3.051,1
0.260557,0.012,0.97,-0.155,9.399,6.164,3.295,1
0.269565,0.009,0.963,-0.164,9.948,5.676,3.845,1
0.27689,0.008,0.962,-0.173,10.253,5.31,4.15,1
0.284326,0.009,0.967,-0.181,10.07,4.394,4.699,1
0.292185,0.013,0.972,-0.182,10.253,3.723,5.31,1
0.301355,0.016,0.979,-0.179,11.413,2.929,5.554,1
0.308918,0.02,0.993,-0.176,14.099,2.624,5.493,1
0.316709,0.019,0.995,-0.173,16.662,2.075,5.92,1
0.325008,0.012,1.035,-0.159,19.348,1.586,5.615,1
0.332216,0.007,1.07,-0.126,17.944,2.075,5.493,1
0.341385,0.01,1.07,-0.129,13.61,3.051,5.187,1
0.348632,0.013,1.073,-0.161,9.277,3.601,4.882,1
0.356648,0.013,1.076,-0.208,8.422,4.089,4.516,1
0.364204,0.017,1.071,-0.287,11.352,3.479,4.211,1
0.372564,0.028,1.097,-0.399,17.639,1.464,3.54,1
0.382335,0.041,1.138,-0.5,24.108,-1.342,3.051,1
0.389652,0.083,1.21,-0.662,31.127,-5.859,1.708,1
0.398898,0.103,1.255,-0.806,36.254,-11.047,0.366,1
0.405963,0.075,1.355,-0.944,36.987,-17.822,-1.403,1
0.415137,0.07,1.447,-1.065,30.151,-24.169,-3.845,1
0.423001,0.053,1.483,-1.205,20.996,-30.578,-6.713,1
0.430993,0.062,1.584,-1.377,10.803,-36.865,-9.277,1
0.440827,0.095,1.627,-1.552,-2.258,-45.654,-13.183,1
0.447623,0.116,1.672,-1.724,-15.624,-55.053,-17.15,1
0.457326,0.125,1.693,-1.875,-28.198,-65.185,-20.629,1
0.466243,0.135,1.686,-1.908,-45.654,-74.34,-22.766,1
0.472794,0.091,1.722,-1.874,-72.143,-83.312,-24.169,1
0.48133,0.022,1.799,-1.776,-98.937,-90.82,-25.207,1
0.491799,-0.024,1.877,-1.645,-135.253,-98.083,-27.587,1
0.500541,-0.072,1.878,-1.553,-177.49,-103.698,-30.517,1
0.509381,-0.159,2.02,-1.461,-203.308,-110.839,-32.409,1
0.515964,-0.236,2.097,-1.382,-214.172,-116.394,-33.325,1
0.526801,-0.203,2.161,-1.341,-221.496,-123.168,-35.766,1
0.533841,-0.204,2.244,-1.322,-227.905,-128.295,-37.719,1
0.54266,-0.183,2.44,-1.408,-227.966,-133.178,-41.137,1
0.550204,-0.158,2.634,-1.518,-222.595,-138.61,-45.959,1
0.558036,-0.201,2.946,-1.768,-210.266,-145.507,-54.321,1
0.566688,-0.239,3.281,-2.027,-207.031,-153.381,-62.438,1
0.576269,-0.345,3.763,-2.261,-221.374,-163.818,-74.523,1
0.583535,-0.369,3.954,-2.343,-254.211,-173.095,-85.449,1
0.592458,-0.402,3.949,-2.216,-301.33,-183.959,-96.923,1
0.60025,-0.397,3.754,-1.933,-334.533,-190.673,-105.285,1
0.608191,-0.414,3.464,-1.522,-363.952,-197.143,-113.22,1
0.615015,-0.475,3.218,-1.143,-378.478,-200.439,-117.065,1
0.623563,-0.603,2.963,-0.782,-381.53,-203.369,-118.286,1
0.630262,-0.76,2.647,-0.434,-372.985,-203.735,-117.553,1
0.638409,-0.819,2.302,-0.236,-351.806,-206.115,-113.769,1
0.645336,-0.901,2.133,-0.033,-297.485,-214.599,-110.229,1
0.654152,-0.932,1.933,0.227,-205.078,-219.177,-108.642,1
0.661925,-0.754,1.165,-0.06,-150.085,-218.933,-105.468,1
0.66941,-0.699,0.583,0.09,-117.919,-221.984,-101.623,1
0.678806,-0.65,0.329,0.081,-108.947,-213.073,-94.665,1
0.685238,-0.619,0.332,0.062,-121.154,-211.547,-89.721,1
0.695007,-0.608,0.311,0.055,-148.315,-201.599,-82.763,1
0.701333,-0.572,0.337,0.05,-183.349,-196.716,-76.599,1
0.710429,-0.494,0.38,0.056,-215.881,-187.561,-69.335,1
0.718499,-0.42,0.421,0.044,-247.985,-182.067,-61.828,1
0.727667,-0.442,0.427,0.057,-267.272,-176.086,-53.527,1
0.734552,-0.389,0.484,0.035,-274.536,-172.546,-43.823,1
0.741736,-0.287,0.472,0.046,-270.141,-170.715,-36.804,1
0.750581,-0.253,0.408,0.04,-268.188,-167.724,-28.747,1
0.759581,-0.327,0.401,0.067,-269.714,-165.771,-20.385,1
0.766625,-0.309,0.395,0.088,-271.484,-159.301,-10.253,1
0.774341,-0.292,0.435,0.077,-272.46,-153.991,-3.051,1
0.782877,-0.278,0.43,0.074,-270.202,-149.902,2.441,1
0.791859,-0.277,0.415,0.071,-268.005,-145.385,8.483,1
0.797637,-0.254,0.421,0.056,-261.779,-140.38,15.197,1
0.806509,-0.219,0.427,0.044,-252.502,-137.573,20.019,1
0.813524,-0.191,0.433,0.04,-240.234,-133.422,24.353,1
0.822964,-0.186,0.45,0.016,-225.708,-130.065,28.076,1
0.830192,-0.174,0.461,-0.018,-201.477,-127.075,31.127,1
0.838489,-0.138,0.472,-0.039,-175.109,-125.61,32.958,1
0.847499,-0.146,0.506,-0.085,-137.817,-123.596,33.63,1
0.856311,-0.164,0.524,-0.13,-102.722,-124.389,32.592,1
0.863143,-0.254,0.524,-0.179,-67.565,-118.774,32.775,1
0.87263,-0.034,0.481,-0.245,-57.556,-121.765,30.639,1
0.87959,0.025,0.467,-0.343,-73.364,-110.473,29.235,1
0.88832,0.13,0.413,-0.458,-106.811,-114.135,25.817,1
0.895528,0.009,0.421,-0.344,-127.685,-104.431,24.78,1
0.90442,0.221,0.45,-0.497,-134.46,-97.045,20.324,1
0.911745,0.475,0.365,-0.578,-143.554,-94.726,14.404,1
0.919549,0.406,0.364,-0.556,-151.672,-89.355,12.329,1
0.928359,0.537,0.413,-0.681,-142.944,-83.129,10.437,1
0.935412,0.639,0.399,-0.764,-139.831,-83.801,7.263,1
0.943132,0.555,0.38,-0.76,-150.085,-80.383,6.469,1
0.952412,0.419,0.474,-0.72,-159.545,-79.65,7.324,1
0.960764,0.396,0.51,-0.671,-157.897,-80.505,8.3,1
0.96747,0.363,0.538,-0.629,-146.789,-83.374,10.498,1
0.975991,0.34,0.548,-0.594,-132.873,-86.608,12.634,1
0.984917,0.361,0.556,-0.568,-112.121,-91.43,15.441,1
0.991897,0.373,0.551,-0.54,-92.041,-95.458,17.822,1
1.00098,0.399,0.556,-0.508,-70.922,-99.975,19.897,1
1.008633,0.461,0.562,-0.474,-49.133,-104.187,20.507,1
1.016794,0.474,0.58,-0.442,-36.743,-107.36,20.385,1
1.023811,0.543,0.583,-0.39,-27.587,-108.276,18.31,1
1.032501,0.634,0.588,-0.347,-24.414,-108.032,15.38,1
1.039506,0.715,0.613,-0.296,-23.498,-109.069,10.681,1
1.047743,0.748,0.624,-0.217,-22.033,-108.459,6.958,1
1.054585,0.762,0.634,-0.139,-20.568,-107.91,3.112,1
1.062485,0.796,0.646,-0.052,-18.31,-107.299,-0.305,1
1.070081,0.806,0.662,0.041,-17.211,-106.018,-2.929,1
1.078162,0.822,0.656,0.069,-26.672,-103.881,-5.126,1
1.086366,0.746,0.652,0.117,-54.016,-102.233,-6.591,1
1.095232,0.758,0.68,0.165,-93.017,-97.473,-7.263,1
1.10228,0.775,0.736,0.172,-123.352,-93.261,-8.483,1
1.110744,0.793,0.82,0.187,-145.812,-90.515,-10.864,1
1.119115,0.842,0.908,0.231,-150.939,-88.745,-13.427,1
1.125289,0.921,0.96,0.276,-133.361,-87.402,-18.249,1
1.134088,0.94,0.979,0.297,-109.985,-87.097,-23.132,1
1.140446,0.902,0.984,0.327,-98.937,-83.129,-27.038,1
1.14823,0.928,0.999,0.283,-96.801,-83.435,-31.982,1
1.156198,0.888,1.012,0.356,-99.426,-80.2,-36.987,1
1.164553,0.865,1.014,0.352,-109.68,-77.575,-41.32,1
1.172842,0.857,1.036,0.386,-121.826,-75.683,-46.264,1
1.179403,0.876,1.046,0.415,-130.859,-73.059,-50.598,1
1.186483,0.879,1.04,0.43,-140.319,-71.655,-54.748,1
1.194396,0.912,1.022,0.433,-150.451,-68.908,-58.715,1
1.20254,0.998,0.995,0.414,-158.691,-68.176,-62.072,1
1.209747,1.121,0.949,0.422,-156.982,-67.993,-65.002,1
1.217605,1.222,0.893,0.414,-147.216,-68.176,-67.382,1
1.226171,1.291,0.84,0.418,-130.859,-68.969,-69.091,1
1.233058,1.373,0.824,0.425,-95.275,-71.105,-70.434,1
1.24111,1.383,0.839,0.455,-51.818,-74.462,-72.265,1
1.2495,1.374,0.849,0.471,-6.408,-77.392,-74.646,1
1.255975,1.312,0.856,0.483,30.517,-80.688,-77.758,1
1.264331,1.184,0.867,0.519,57.128,-82.519,-81.665,1
1.273781,1.074,0.858,0.555,66.772,-83.129,-86.547,1
1.279963,0.969,0.858,0.591,55.175,-80.261,-93.566,1
1.28789,0.833,0.875,0.637,37.353,-78.735,-101.013,1
1.297456,0.687,0.898,0.697,26.245,-75.317,-109.558,1
1.304058,0.561,0.877,0.735,17.578,-72.448,-121.276,1
1.312367,0.398,0.805,0.764,7.995,-69.213,-132.141,1
1.318727,0.294,0.695,0.786,-5.187,-65.429,-142.517,1
1.327019,0.199,0.58,0.801,-22.399,-60.913,-152.282,1
1.335865,0.106,0.447,0.806,-40.71,-56.884,-161.56,1
1.343277,0.026,0.306,0.828,-56.213,-53.405,-169.616,1
1.351944,0.013,0.107,0.843,-70.617,-48.889,-176.757,1
1.359339,0.043,-0.057,0.84,-81.542,-45.593,-181.213,1
1.367131,0.044,-0.211,0.849,-88.073,-44.128,-183.776,1
1.375581,0.03,-0.349,0.865,-80.627,-41.198,-184.02,1
1.384435,0.049,-0.473,0.851,-71.716,-40.039,-182.678,1
1.392686,0.042,-0.622,0.804,-69.519,-36.987,-179.992,1
1.39972,0.026,-0.727,0.747,-75.805,-35.278,-176.574,1
1.408731,-0.029,-0.814,0.676,-84.777,-33.325,-171.447,1
1.416149,-0.088,-0.913,0.606,-104.187,-31.311,-165.405,1
1.424175,-0.228,-0.984,0.543,-129.333,-29.907,-159.24,1
1.432237,-0.365,-1.069,0.487,-149.536,-29.296,-152.893,1
1.440519,-0.442,-1.198,0.397,-161.193,-28.991,-145.263,1
1.449042,-0.583,-1.33,0.296,-168.823,-31.311,-135.437,1
1.457992,-0.723,-1.496,0.2,-182.678,-32.897,-124.023,1
1.464733,-0.831,-1.624,0.112,-193.786,-34.301,-112.976,1
1.472425,-0.887,-1.759,0.049,-199.34,-36.499,-100.524,1
1.481462,-0.974,-1.922,-0.043,-205.688,-39.245,-86.608,1
1.488455,-1.041,-2.113,-0.082,-211.425,-42.907,-70.739,1
1.498698,-1.049,-2.237,-0.089,-209.106,-46.386,-49.621,1
1.505879,-1.053,-2.437,-0.167,-212.951,-50.231,-26.367,1
1.514775,-1.173,-2.565,-0.17,-212.28,-53.894,-0.976,1
1.523148,-1.427,-2.619,-0.125,-206.542,-59.326,21.789,1
1.531512,-1.401,-2.842,-0.148,-197.021,-61.096,49.56,1
1.540086,-1.379,-3.024,-0.137,-205.932,-64.88,75.561,1
1.546632,-1.479,-3.157,-0.109,-220.764,-63.659,109.13,1
1.554992,-1.647,-3.28,-0.091,-254.028,-62.988,139.465,1
1.56542,-1.937,-3.281,0.059,-282.592,-57.922,176.452,1
1.574316,-2.21,-3.261,0.189,-296.813,-52.673,213.989,1
1.581433,-2.506,-3.279,0.35,-306.64,-42.846,252.136,1
1.591094,-2.658,-3.257,0.473,-330.505,-30.883,285.034,1
1.598391,-3.028,-3.054,0.66,-326.354,-16.662,322.448,1
1.606414,-3.269,-2.98,0.779,-284.667,-1.22,359.802,1
1.615578,-3.612,-2.769,0.824,-251.708,8.483,392.517,1
1.622501,-4.106,-2.503,0.922,-185.729,19.226,428.344,1
1.631417,-4.571,-2.299,0.902,-135.437,26.184,458.312,1
1.638516,-5.287,-2.009,0.937,-112.792,37.475,490.661,1
1.646868,-5.712,-1.837,0.96,-139.953,54.26,517.456,1
1.654893,-6.217,-1.546,1.024,-181.274,79.711,542.663,1
1.663516,-6.844,-1.252,1.062,-216.918,107.116,564.636,1
1.671141,-7.482,-0.986,1.097,-246.032,139.221,585.876,1
1.679698,-7.967,-0.795,1.078,-281.982,181.335,608.459,1
1.688134,-8.557,-0.554,1.043,-317.321,230.041,628.54,1
1.69472,-9.156,-0.362,0.939,-346.557,273.986,641.967,1
1.703318,-9.782,-0.132,0.82,-362.976,319.091,652.099,1
1.711565,-10.534,0.121,0.637,-355.529,368.408,660.461,1
1.719478,-11.343,0.312,0.44,-339.599,407.958,666.259,1
1.727198,-12.058,0.434,0.308,-327.392,452.88,673.522,1
1.735186,-12.756,0.522,0.163,-323.669,493.347,680.236,1
1.744193,-13.542,0.654,0.034,-323.73,533.874,685.913,1
1.751695,-14.369,0.881,-0.02,-309.143,573.791,689.269,1
1.759283,-15.163,1.161,-0.155,-271.423,608.642,688.781,1
1.766421,-15.939,1.583,-0.2,-200.744,635.559,684.143,1
1.776348,-15.997,1.894,-0.29,-105.957,653.442,681.396,1
1.783325,-15.999,2.104,-0.366,-30.639,662.231,681.884,1
1.792933,-15.999,2.132,-0.429,-56.152,678.405,685.424,1
1.80029,-15.999,2.079,-0.724,-173.095,703.43,688.72,1
1.810274,-15.999,2.445,-0.699,-287.658,751.159,687.866,1
1.816966,-15.999,3.286,-1.351,-376.892,805.908,665.466,1
1.827129,-15.999,4.156,-2.121,-355.468,819.396,613.464,1
1.833732,-15.999,4.458,-1.984,-237.304,806.762,561.889,1
1.841973,-15.999,4.196,-2.18,-130.798,809.082,533.569,1
1.849588,-15.999,4.075,-2.443,-112.06,797.973,505.493,1
1.857634,-15.999,4.158,-2.952,-210.144,816.345,472.473,1
1.864346,-15.999,4.546,-4.109,-451.538,823.059,408.142,1
1.871933,-15.988,4.617,-5.016,-776.672,831.298,311.95,1
1.881664,-14.364,4.716,-5.587,-1021.606,849.182,190.917,1
1.890102,-12.43,4.416,-5.835,-1100.097,810.607,35.156,1
1.898048,-10.696,3.417,-5.355,-999.328,754.76,-100.341,1
1.907086,-9.374,2.477,-4.811,-854.675,686.645,-188.049,1
1.914589,-8.453,1.875,-4.241,-623.107,604.797,-254.943,1
1.922772,-7.347,1.291,-3.801,-365.173,524.963,-289.306,1
1.930999,-6.547,0.784,-3.524,-201.721,471.984,-298.767,1
1.941409,-5.957,0.413,-3.38,-127.807,424.743,-296.508,1
1.947923,-5.406,0.198,-3.097,-138.061,390.563,-290.283,1
1.957836,-5.021,0.129,-2.899,-166.198,366.271,-286.926,1
1.964989,-4.615,0.099,-2.611,-198.608,338.134,-285.705,1
1.972813,-4.15,0.039,-2.344,-226.501,312.072,-286.071,1
1.981474,-3.782,-0.01,-2.169,-239.685,290.771,-285.461,1
1.989526,-3.406,-0.021,-2.027,-228.881,260.62,-284.301,1
1.998795,-3.133,-0.021,-1.855,-198.059,235.595,-282.653,1
2.007629,-2.932,-0.037,-1.768,-162.841,208.496,-279.602,1
2.015159,-2.786,-0.091,-1.641,-145.507,185.302,-275.573,1
2.024446,-2.624,-0.122,-1.533,-137.084,165.832,-270.69,1
2.032963,-2.42,-0.13,-1.399,-128.479,150.756,-266.662,1
2.03998,-2.251,-0.163,-1.294,-123.901,135.681,-260.864,1
2.049277,-2.026,-0.2,-1.187,-125.244,125.366,-254.211,1
2.056761,-1.866,-0.207,-1.137,-123.535,113.891,-247.436,1
2.066028,-1.678,-0.191,-1.041,-104.553,98.693,-237.426,1
2.073339,-1.53,-0.201,-0.987,-81.054,87.219,-229.431,1
2.08116,-1.376,-0.225,-0.93,-56.396,75.378,-219.97,1
2.089643,-1.268,-0.242,-0.89,-41.687,66.467,-211.73,1
2.09772,-1.145,-0.254,-0.837,-32.287,58.349,-203.674,1
2.106478,-1.018,-0.257,-0.77,-27.099,50.354,-194.213,1
2.115454,-0.859,-0.261,-0.685,-28.381,44.189,-187.255,1
2.123283,-0.75,-0.264,-0.604,-35.278,39.55,-178.771,1
2.132394,-0.628,-0.26,-0.529,-44.189,35.156,-170.288,1
2.141486,-0.521,-0.234,-0.462,-43.823,31.677,-160.766,1
2.149138,-0.369,-0.215,-0.442,-32.348,26.855,-152.648,1
2.157818,-0.292,-0.176,-0.397,-6.164,21.362,-142.883,1
2.167309,-0.195,-0.148,-0.371,27.404,15.869,-134.094,1
2.176684,-0.128,-0.131,-0.335,62.377,11.23,-124.938,1
2.183757,-0.085,-0.064,-0.284,103.027,6.591,-116.394,1
2.191413,0.048,-0.101,-0.333,128.417,3.54,-109.252,1
2.200405,0.065,-0.14,-0.309,124.267,3.479,-103.332,1
2.207987,0.091,-0.163,-0.325,94.116,5.187,-96.13,1
2.215296,0.139,-0.149,-0.302,55.297,7.385,-90.82,1
2.224515,0.18,-0.138,-0.278,13.305,11.108,-85.632,1
2.233718,0.187,-0.099,-0.245,-30.761,14.038,-80.078,1
2.242006,0.21,-0.041,-0.21,-53.833,15.441,-73.852,1
2.250296,0.253,0.012,-0.182,-51.818,14.099,-69.152,1
2.257979,0.297,0.041,-0.156,-31.738,11.901,-64.392,1
2.267397,0.36,0.045,-0.162,-8.972,9.521,-59.814,1
2.275106,0.379,0.044,-0.175,3.784,7.873,-55.786,1
2.283978,0.376,0.039,-0.188,5.371,6.835,-52.062,1
2.291678,0.407,0.044,-0.192,2.807,5.92,-48.889,1
2.299153,0.443,0.044,-0.182,-2.197,6.103,-45.41,1
2.307167,0.462,0.034,-0.18,-8.972,6.103,-42.419,1
2.315012,0.461,0.029,-0.178,-16.418,6.225,-38.635,1
2.324021,0.471,0.025,-0.17,-21.667,6.103,-35.217,1
2.332095,0.475,0.024,-0.154,-25.329,6.53,-31.188,1
2.339649,0.487,0.021,-0.158,-29.296,6.896,-27.893,1
2.347347,0.45,0.061,-0.142,-26.794,6.958,-24.23,1
2.356935,0.514,0.064,-0.149,-17.028,5.981,-20.263,1
2.364672,0.541,0.1,-0.131,-2.563,4.577,-16.052,1
2.372106,0.573,0.149,-0.159,15.624,2.868,-12.329,1
2.379673,0.583,0.163,-0.185,30.883,0.549,-9.155,1
2.389093,0.597,0.19,-0.204,47.668,-1.892,-5.92,1
2.396794,0.601,0.22,-0.217,70.8,-5.432,-2.319,1
2.404527,0.604,0.218,-0.236,85.266,-6.774,0.61,1
2.413347,0.65,0.208,-0.228,87.402,-8.483,3.601,1
2.419529,0.674,0.2,-0.256,72.448,-7.263,6.958,1
2.427425,0.686,0.201,-0.265,46.569,-6.591,9.643,1
2.436314,0.667,0.221,-0.267,16.784,-4.76,12.084,1
2.443968,0.645,0.256,-0.253,-8.422,-3.051,13.793,1
2.451759,0.634,0.288,-0.239,-28.747,-2.136,15.014,1
2.461046,0.606,0.315,-0.24,-35.278,-1.77,16.601,1
2.469018,0.578,0.366,-0.236,-26.184,-4.272,18.127,1
2.475719,0.561,0.397,-0.233,-2.929,-7.385,19.348,1
2.485007,0.553,0.408,-0.248,33.874,-12.268,20.446,1
2.493265,0.587,0.398,-0.25,60.485,-16.235,21.789,1
2.501206,0.62,0.385,-0.258,76.904,-19.592,23.071,1
2.50843,0.644,0.368,-0.269,75.744,-21.118,24.291,1
2.516563,0.675,0.353,-0.269,62.927,-21.301,25.146,1
2.526034,0.71,0.333,-0.268,41.503,-20.446,26.184,1
2.533792,0.729,0.33,-0.26,10.009,-18.554,27.099,1
2.542014,0.735,0.324,-0.257,-19.714,-16.235,27.954,1
2.549621,0.737,0.31,-0.256,-43.518,-14.526,29.541,1
2.557232,0.725,0.289,-0.278,-62.133,-12.939,31.005,1
2.566455,0.69,0.296,-0.285,-79.467,-12.512,33.264,1
2.573595,0.683,0.316,-0.293,-83.129,-13.427,35.888,1
2.581863,0.667,0.339,-0.298,-76.049,-15.441,37.78,1
2.591935,0.646,0.351,-0.305,-59.814,-18.31,40.405,1
2.599228,0.624,0.348,-0.33,-43.64,-21.606,42.846,1
2.606973,0.609,0.343,-0.356,-31.127,-24.291,44.921,1
2.615746,0.586,0.333,-0.366,-18.188,-27.16,46.997,1
2.623186,0.58,0.322,-0.378,-6.896,-29.357,49.377,1
2.631372,0.596,0.303,-0.378,4.394,-31.799,51.574,1
2.638638,0.611,0.261,-0.377,15.014,-34.057,54.687,1
2.646517,0.608,0.229,-0.38,16.357,-36.193,58.166,1
2.655256,0.611,0.208,-0.38,8.605,-37.414,61.95,1
2.664558,0.596,0.215,-0.367,-8.178,-38.513,66.223,1
2.67256,0.572,0.238,-0.364,-21.667,-39.367,69.58,1
2.681629,0.558,0.266,-0.353,-31.433,-41.87,73.608,1
2.689121,0.544,0.271,-0.353,-33.996,-43.701,76.11,1
2.69748,0.512,0.266,-0.361,-35.949,-46.081,79.711,1
2.707925,0.489,0.275,-0.372,-36.071,-48.706,83.007,1
2.71549,0.456,0.305,-0.383,-28.686,-52.856,87.402,1
2.723064,0.411,0.312,-0.396,-18.676,-56.64,90.576,1
2.731881,0.351,0.312,-0.408,-7.141,-60.668,94.97,1
2.738944,0.31,0.318,-0.417,-0.793,-64.147,98.754,1
2.747824,0.285,0.347,-0.412,2.807,-67.321,102.172,1
2.757104,0.25,0.37,-0.396,3.173,-70.007,105.468,1
2.76651,0.22,0.383,-0.377,-4.699,-71.777,109.252,1
2.774533,0.192,0.399,-0.361,-23.254,-71.96,112.854,1
2.783536,0.159,0.441,-0.362,-49.987,-71.594,115.478,1
2.791744,0.097,0.493,-0.354,-87.524,-69.885,118.347,1
2.799346,0.044,0.514,-0.347,-127.014,-69.519,121.398,1
2.807477,-0.046,0.624,-0.273,-162.292,-63.476,125.061,1
2.816177,-0.044,0.717,-0.262,-168.212,-63.781,126.647,1
2.823489,-0.123,0.765,-0.224,-152.221,-62.194,129.699,1
2.832445,-0.112,0.805,-0.219,-132.873,-63.232,132.019,1
2.840335,-0.105,0.866,-0.175,-101.013,-63.903,134.338,1
2.848495,-0.101,0.912,-0.176,-73.12,-65.246,135.681,1
2.856625,-0.137,0.973,-0.157,-48.278,-66.162,136.23,1
2.865007,-0.168,1.015,-0.159,-34.667,-66.894,135.803,1
2.871935,-0.193,1.051,-0.159,-29.235,-67.016,135.375,1
2.880794,-0.199,1.084,-0.172,-32.226,-66.955,134.521,1
2.888744,-0.21,1.116,-0.157,-42.175,-66.65,133.178,1
2.896749,-0.22,1.138,-0.159,-50.354,-65.185,132.019,1
2.906218,-0.212,1.171,-0.16,-56.945,-65.429,130.981,1
2.914102,-0.231,1.204,-0.167,-65.307,-64.392,129.516,1
2.922835,-0.255,1.245,-0.174,-71.289,-64.086,128.234,1
2.931872,-0.274,1.292,-0.152,-70.251,-64.208,127.075,1
2.94067,-0.289,1.276,-0.157,-63.781,-64.941,125.854,1
2.948349,-0.285,1.236,-0.126,-58.898,-65.185,124.938,1
2.957716,-0.303,1.198,-0.128,-45.837,-66.04,124.633,1
2.965644,-0.279,1.152,-0.094,-31.799,-67.443,125.122,1
2.975263,-0.26,1.115,-0.075,-13.122,-68.786,126.037,1
2.982433,-0.237,1.096,-0.063,9.033,-71.228,127.441,1
2.989981,-0.278,1.091,-0.082,17.028,-72.753,128.051,1
2.998754,-0.318,1.095,-0.1,13.549,-73.73,128.112,1
3.006217,-0.31,1.095,-0.1,6.958,-74.951,127.746,1
3.014976,-0.298,1.083,-0.086,1.098,-76.416,128.051,1
3.023657,-0.333,1.083,-0.071,4.455,-78.369,128.051,1
3.030806,-0.344,1.046,-0.049,13.366,-81.115,128.417,1
3.039974,-0.355,1.017,-0.017,23.742,-83.251,128.845,1
3.047634,-0.362,0.959,0.005,33.447,-85.51,129.76,1
3.054581,-0.352,0.944,0.04,40.039,-87.158,130.737,1
3.063307,-0.432,0.904,0.051,43.884,-88.806,131.774,1
3.071939,-0.434,0.925,0.066,42.663,-88.745,132.812,1
3.079122,-0.456,0.948,0.069,36.987,-90.148,132.995,1
3.08763,-0.483,0.977,0.097,25.756,-89.538,133.056,1
3.096358,-0.48,0.994,0.117,8.789,-88.745,133.117,1
3.104113,-0.447,1.029,0.155,-3.845,-87.707,133.667,1
3.111679,-0.54,0.95,0.169,-17.578,-86.975,135.986,1
3.121873,-0.38,1.151,0.273,-30.395,-80.688,138.732,1
3.128559,-0.33,1.129,0.216,-4.211,-90.82,139.16,1
3.137413,-0.562,0.901,0.366,14.831,-87.036,145.874,1
3.146018,-0.355,1.142,0.213,22.155,-86.242,144.104,1
3.154872,-0.483,1.173,0.351,47.241,-91.43,141.967,1
3.161298,-0.608,1.014,0.341,35.522,-85.937,146.728,1
3.169712,-0.449,1.221,0.2,37.292,-85.266,142.211,1
3.178872,-0.572,1.246,0.345,59.814,-88.317,138.183,1
3.185513,-0.59,1.179,0.269,70.068,-84.899,137.146,1
3.194508,-0.519,1.292,0.296,55.297,-84.411,136.474,1
3.20323,-0.569,1.25,0.186,61.523,-86.914,131.591,1
3.20956,-0.624,1.272,0.308,70.617,-85.266,129.15,1
3.218893,-0.498,1.26,0.26,71.96,-85.937,128.051,1
3.225407,-0.493,1.332,0.383,55.175,-87.158,131.042,1
3.233714,-0.465,1.404,0.273,66.162,-86.059,125.366,1
3.241904,-0.598,1.437,0.415,85.815,-89.843,121.154,1
3.248618,-0.55,1.365,0.395,90.209,-85.937,118.408,1
3.256566,-0.588,1.299,0.407,77.697,-86.608,114.929,1
3.265486,-0.474,1.473,0.501,53.833,-76.477,112.121,1
3.273479,-0.484,1.501,0.415,58.105,-81.176,108.337,1
3.281387,-0.514,1.489,0.541,77.636,-76.11,104.797,1
3.28821,-0.438,1.5,0.482,83.251,-74.096,100.769,1
3.296966,-0.49,1.517,0.518,82.885,-70.068,96.862,1
3.306226,-0.59,1.345,0.474,52.124,-64.575,93.627,1
3.313468,-0.377,1.572,0.52,25.451,-52.429,89.172,1
3.322101,-0.539,1.604,0.426,23.559,-57.006,83.496,1
3.332115,-0.485,1.577,0.458,31.494,-50.231,78.918,1
3.339041,-0.469,1.424,0.441,21.667,-52.246,76.049,1
3.347738,-0.43,1.606,0.432,28.93,-46.142,71.105,1
3.356387,-0.474,1.652,0.451,48.583,-53.283,65.795,1
3.363273,-0.48,1.606,0.483,61.767,-49.133,61.706,1
3.371653,-0.486,1.601,0.483,55.786,-50.476,56.762,1
3.381707,-0.501,1.597,0.536,54.382,-47.119,51.696,1
3.390662,-0.461,1.55,0.526,43.884,-44.921,47.241,1
3.397936,-0.497,1.501,0.541,34.667,-40.649,43.029,1
3.40701,-0.495,1.477,0.539,22.888,-37.17,39.184,1
3.415906,-0.517,1.455,0.562,11.23,-32.287,35.705,1
3.424956,-0.505,1.433,0.564,0.854,-27.587,32.409,1
3.432915,-0.503,1.409,0.573,-5.554,-22.888,29.052,1
3.442407,-0.493,1.379,0.563,-10.925,-18.981,26.367,1
3.451202,-0.495,1.357,0.548,-15.93,-14.953,23.315,1
3.459873,-0.494,1.363,0.537,-12.878,-11.718,19.836,1
3.467518,-0.493,1.353,0.508,-4.272,-10.498,17.272,1
3.475887,-0.494,1.357,0.499,12.939,-9.521,13.977,1
3.483936,-0.502,1.339,0.477,29.602,-9.399,11.352,1
3.491995,-0.487,1.28,0.472,41.503,-8.3,8.117,1
3.500086,-0.475,1.205,0.458,42.419,-5.187,5.493,1
3.508232,-0.465,1.15,0.448,34.667,-2.868,3.784,1
3.515537,-0.49,1.12,0.448,29.357,0.549,2.746,1
3.523794,-0.468,1.086,0.442,26.672,2.075,2.197,1
3.531311,-0.452,1.06,0.442,29.541,4.211,1.953,1
3.538582,-0.464,1.022,0.401,32.653,4.943,1.464,1
3.545973,-0.457,0.989,0.375,25.878,7.263,0.976,1
3.554198,-0.426,0.968,0.336,16.235,9.399,0.488,1
3.561203,-0.427,0.949,0.291,6.164,10.559,-0.244,1
3.570087,-0.417,0.931,0.273,-4.577,11.962,-0.915,1
3.577736,-0.38,0.908,0.224,-11.779,13.244,-1.525,1
3.587477,-0.382,0.891,0.18,-15.563,13.549,-1.831,1
3.595274,-0.351,0.876,0.151,-13.122,12.329,-2.441,1
3.604645,-0.39,0.854,0.106,-5.371,11.596,-2.807,1
3.613375,-0.434,0.833,0.099,1.464,9.826,-2.929,1
3.620184,-0.435,0.803,0.086,9.216,9.216,-2.563,1
3.628158,-0.396,0.75,0.073,10.925,8.85,-2.38,1
3.637144,-0.471,0.75,0.085,16.845,8.361,-1.647,1
3.644203,-0.472,0.716,0.053,25.146,7.995,-0.366,1
3.653781,-0.497,0.687,0.045,28.015,6.958,0.61,1
3.66153,-0.487,0.652,0.022,24.719,7.446,2.38,1
3.670286,-0.487,0.65,0.024,23.62,7.568,4.211,1
3.678164,-0.567,0.645,-0.003,23.01,6.774,5.371,1
3.685132,-0.614,0.612,0.012,18.005,6.896,7.263,1
3.692327,-0.568,0.594,0.017,7.751,7.69,8.544,1
3.701333,-0.606,0.633,0.001,-3.051,8.911,10.314,1
3.708581,-0.627,0.654,-0.005,-15.869,8.972,11.657,1
3.718046,-0.615,0.694,0.008,-24.902,9.033,13.183,1
3.726274,-0.625,0.754,0.012,-26.367,8.178,13.916,1
3.733849,-0.62,0.802,0.0,-18.981,6.408,14.77,1
3.742186,-0.61,0.844,-0.009,-10.986,3.662,14.831,1
3.749499,-0.596,0.858,-0.002,-5.554,2.258,14.526,1
3.756936,-0.573,0.878,0.0,-2.685,0.488,13.854,1
3.765401,-0.562,0.858,-0.003,-7.324,-1.037,13.061,1
3.774224,-0.667,0.915,0.027,-8.605,-0.244,11.901,1
3.782577,-0.632,0.928,0.012,-10.009,-1.098,10.131,1
3.789618,-0.588,0.927,0.034,-20.324,0.183,8.666,1
3.798528,-0.583,0.961,0.036,-31.494,1.342,7.507,1
3.805261,-0.568,1.023,0.059,-37.597,2.136,6.469,1
3.813095,-0.537,1.087,0.062,-39.306,2.99,5.981,1
3.821843,-0.542,1.171,0.054,-37.719,3.356,4.943,1
3.829809,-0.543,1.262,0.045,-33.081,2.502,2.99,1
3.837914,-0.556,1.356,0.041,-25.634,1.831,0.549,1
3.845595,-0.563,1.42,0.031,-18.188,0.976,-2.502,1
3.854586,-0.561,1.465,0.024,-14.221,1.037,-6.347,1
3.863904,-0.57,1.5,0.009,-16.174,1.892,-10.803,1
3.871456,-0.583,1.538,-0.002,-20.935,2.929,-14.648,1
3.879308,-0.601,1.583,-0.023,-29.174,4.516,-19.104,1
3.887541,-0.604,1.625,-0.043,-38.696,6.042,-23.437,1
3.895688,-0.596,1.7,-0.069,-48.706,7.568,-28.076,1
3.903272,-0.597,1.769,-0.1,-53.283,8.239,-33.142,1
3.91119,-0.587,1.812,-0.126,-54.443,8.361,-38.513,1
3.918897,-0.572,1.839,-0.165,-53.1,8.361,-44.006,1
3.927733,-0.583,1.85,-0.194,-49.621,8.239,-51.147,1
3.937102,-0.586,1.831,-0.226,-47.058,8.3,-57.495,1
3.944985,-0.594,1.791,-0.259,-49.56,8.178,-64.208,1
3.955427,-0.598,1.756,-0.288,-53.588,8.605,-69.824,1
3.962519,-0.596,1.688,-0.324,-62.011,8.605,-77.026,1
3.970986,-0.604,1.632,-0.348,-70.312,8.666,-82.214,1
3.97973,-0.609,1.561,-0.371,-80.078,7.507,-87.89,1
3.988617,-0.631,1.487,-0.392,-88.195,5.859,-92.895,1
3.998972,-0.651,1.42,-0.411,-95.275,3.051,-97.534,1
4.00706,-0.67,1.35,-0.42,-102.172,-0.122,-101.013,1
4.015512,-0.687,1.291,-0.437,-108.581,-3.906,-103.82,1
4.024651,-0.709,1.256,-0.433,-113.464,-8.239,-106.079,1
4.032679,-0.724,1.228,-0.432,-114.135,-12.329,-107.299,1
4.041954,-0.736,1.192,-0.427,-111.572,-17.517,-108.093,1
4.0508,-0.726,1.174,-0.424,-104.919,-22.705,-107.971,1
4.058405,-0.721,1.166,-0.426,-95.092,-27.954,-107.849,1
4.06655,-0.706,1.152,-0.436,-85.998,-32.348,-107.666,1
4.074712,-0.719,1.14,-0.454,-83.251,-35.278,-107.36,1
4.083492,-0.718,1.157,-0.475,-85.632,-37.353,-107.482,1
4.091789,-0.723,1.184,-0.508,-94.482,-39.245,-107.421,1
4.100504,-0.745,1.245,-0.55,-104.431,-41.015,-107.788,1
4.109622,-0.74,1.314,-0.579,-115.478,-43.701,-108.398,1
4.116946,-0.741,1.371,-0.601,-120.91,-45.959,-109.13,1
4.125012,-0.725,1.451,-0.613,-120.971,-49.011,-110.29,1
4.133681,-0.721,1.511,-0.645,-117.126,-52.795,-111.328,1
4.142649,-0.736,1.542,-0.683,-116.943,-56.945,-113.159,1
4.149904,-0.757,1.558,-0.694,-122.68,-59.509,-115.173,1
4.158847,-0.79,1.582,-0.712,-132.263,-62.255,-117.126,1
4.166547,-0.787,1.592,-0.71,-146.179,-65.124,-119.262,1
4.176079,-0.783,1.623,-0.719,-155.639,-67.321,-121.032,1
4.185336,-0.794,1.65,-0.732,-165.1,-71.166,-122.863,1
4.192907,-0.795,1.661,-0.751,-177.307,-73.73,-125.122,1
4.201272,-0.77,1.676,-0.774,-191.772,-76.293,-127.075,1
4.209152,-0.73,1.701,-0.815,-200.073,-79.833,-129.089,1
4.217949,-0.76,1.722,-0.836,-197.937,-83.923,-130.92,1
4.227285,-0.726,1.691,-0.844,-191.467,-89.111,-132.812,1
4.234443,-0.722,1.649,-0.848,-184.204,-93.811,-133.972,1
4.243466,-0.707,1.61,-0.831,-179.931,-98.999,-135.681,1
4.251237,-0.712,1.549,-0.812,-182.434,-102.294,-136.413,1
4.259784,-0.693,1.489,-0.772,-191.223,-105.59,-136.352,1
4.267771,-0.673,1.423,-0.758,-203.796,-108.215,-135.742,1
4.275606,-0.641,1.374,-0.745,-213.562,-110.717,-134.704,1
4.284255,-0.626,1.307,-0.745,-223.999,-114.135,-133.239,1
4.29335,-0.608,1.251,-0.726,-228.393,-116.394,-131.713,1
4.300837,-0.604,1.202,-0.717,-226.806,-120.727,-129.455,1
4.308851,-0.592,1.148,-0.696,-219.787,-124.511,-127.502,1
4.318398,-0.561,1.081,-0.67,-205.627,-128.723,-125.305,1
4.326701,-0.562,1.006,-0.645,-187.316,-132.995,-123.229,1
4.335432,-0.529,0.949,-0.612,-168.151,-136.535,-121.887,1
4.344695,-0.5,0.892,-0.609,-155.273,-139.16,-120.483,1
4.351921,-0.453,0.829,-0.592,-144.653,-141.54,-119.201,1
4.359267,-0.397,0.791,-0.598,-137.329,-143.249,-117.736,1
4.368563,-0.32,0.756,-0.619,-130.676,-145.874,-116.149,1
4.376973,-0.25,0.74,-0.619,-123.107,-148.01,-114.379,1
4.383876,-0.197,0.738,-0.647,-113.952,-152.099,-112.121,1
4.39133,-0.185,0.731,-0.652,-109.252,-154.724,-109.741,1
4.400853,-0.183,0.714,-0.665,-114.562,-157.043,-107.604,1
4.407494,-0.206,0.709,-0.666,-133.911,-158.203,-103.942,1
4.418235,-0.209,0.717,-0.678,-157.226,-158.691,-100.891,1
4.426765,-0.233,0.748,-0.674,-182.983,-159.79,-96.496,1
4.434828,-0.227,0.77,-0.673,-199.768,-161.01,-91.979,1
4.442587,-0.198,0.783,-0.677,-206.176,-162.902,-87.707,1
4.451861,-0.208,0.8,-0.67,-198.547,-165.527,-83.435,1
4.459394,-0.202,0.825,-0.66,-178.955,-169.189,-79.345,1
4.466656,-0.169,0.873,-0.641,-155.456,-171.997,-77.026,1
4.475362,-0.181,0.892,-0.607,-138.061,-175.781,-75.439,1
4.484442,-0.156,0.908,-0.563,-127.441,-175.842,-74.34,1
4.492534,-0.155,0.907,-0.539,-132.141,-177.429,-73.12,1
4.500423,-0.124,0.918,-0.479,-145.08,-176.086,-71.228,1
4.511237,-0.104,0.937,-0.436,-159.667,-176.025,-69.58,1
4.519063,-0.109,0.942,-0.374,-169.921,-176.33,-68.115,1
4.528281,-0.113,0.922,-0.305,-174.255,-178.344,-66.162,1
4.536713,-0.103,0.881,-0.235,-172.058,-180.236,-63.842,1
4.544144,-0.096,0.839,-0.166,-165.588,-182.189,-61.584,1
4.552716,-0.119,0.806,-0.104,-155.395,-183.715,-60.485,1
4.56251,-0.203,0.774,0.024,-144.958,-184.936,-59.57,1
4.569992,-0.142,0.703,0.056,-129.943,-186.157,-60.18,1
4.578229,-0.068,0.665,0.242,-109.985,-187.255,-61.584,1
4.585175,0.014,0.525,0.347,-76.171,-186.645,-62.744,1
4.59479,0.188,0.401,0.541,-47.729,-184.631,-63.72,1
4.603697,0.315,0.206,0.645,-25.329,-179.138,-64.025,1
4.610805,0.447,0.069,0.765,-7.141,-172.607,-63.354,1
4.620701,0.58,-0.033,0.83,16.723,-166.503,-63.537,1
4.630094,0.66,-0.162,0.921,32.592,-156.555,-63.11,1
4.637475,0.671,-0.29,0.892,19.714,-146.423,-61.889,1
4.6482,0.72,-0.39,0.952,-0.122,-137.512,-59.814,1
4.656856,0.697,-0.468,0.991,-31.311,-125.488,-56.823,1
4.665397,0.695,-0.506,1.019,-67.077,-115.173,-52.49,1
4.672513,0.66,-0.519,0.999,-111.267,-101.928,-46.752,1
4.681738,0.518,-0.426,0.987,-126.525,-94.421,-43.579,1
4.688834,0.352,-0.367,0.957,-132.568,-90.454,-41.931,1
4.69805,0.279,-0.316,0.969,-133.911,-82.458,-41.137,1
4.705129,0.298,-0.286,0.896,-144.897,-76.538,-41.442,1
4.713571,0.283,-0.206,0.791,-163.818,-69.274,-41.87,1
4.721854,0.31,-0.109,0.7,-171.447,-66.772,-42.602,1
4.730972,0.326,-0.031,0.62,-165.161,-63.537,-42.785,1
4.738552,0.28,0.036,0.492,-159.79,-64.27,-43.395,1
4.747267,0.147,0.117,0.379,-163.024,-63.842,-45.043,1
4.755514,0.042,0.157,0.262,-172.607,-65.429,-46.813,1
4.764346,-0.106,0.18,0.166,-184.997,-66.101,-48.645,1
4.772204,-0.271,0.185,0.073,-201.049,-68.786,-50.415,1
4.779935,-0.442,0.173,-0.001,-210.876,-72.143,-51.696,1
4.78814,-0.563,0.135,-0.067,-206.787,-79.223,-51.696,1
4.797783,-0.622,0.066,-0.097,-188.72,-86.425,-51.025,1
4.806259,-0.645,-0.039,-0.132,-161.926,-95.703,-48.828,1
4.81427,-0.641,-0.201,-0.169,-146.789,-104.37,-45.532,1
4.824709,-0.691,-0.362,-0.177,-151.611,-111.145,-40.1,1
4.833805,-0.828,-0.468,-0.146,-163.269,-117.37,-33.264,1
4.841264,-0.983,-0.359,-0.105,-120.178,-124.938,-31.066,1
4.850524,-1.135,-0.678,-0.083,-84.289,-141.662,-22.766,1
4.859216,-1.275,-0.853,-0.086,-75.805,-146.423,-14.099,1
4.867794,-1.4,-1.062,-0.038,-96.191,-154.174,-4.15,1
4.876736,-1.568,-1.274,0.006,-119.995,-154.663,8.911,1
4.883528,-1.734,-1.425,0.105,-140.808,-159.362,25.512,1
4.893922,-1.839,-1.539,0.152,-134.277,-162.048,45.837,1
4.901064,-2.011,-1.766,0.184,-119.75,-168.518,69.03,1
4.910383,-2.137,-1.941,0.248,-104.37,-172.363,92.102,1
4.917135,-2.373,-2.066,0.328,-83.068,-180.786,121.215,1
4.925473,-2.527,-2.208,0.395,-40.954,-185.363,146.423,1
4.933675,-2.838,-2.354,0.468,2.685,-196.777,177.917,1
4.942175,-3.143,-2.504,0.586,37.414,-203.552,206.237,1
4.948642,-3.458,-2.701,0.686,33.203,-209.167,237.487,1
4.957447,-3.825,-2.861,0.8,16.967,-209.472,271.362,1
4.966843,-4.502,-2.942,0.955,-38.574,-208.19,313.842,1
4.974684,-5.098,-2.976,1.223,-125.366,-195.129,361.022,1
4.983817,-5.746,-3.024,1.546,-192.138,-178.344,407.043,1
4.99073,-6.311,-3.002,1.88,-245.422,-148.742,466.491,1
4.999048,-6.862,-3.002,2.165,-274.658,-117.248,520.202,1
5.008019,-7.56,-2.882,2.48,-294.189,-68.847,586.975,1
5.015244,-8.347,-2.742,2.659,-296.386,-23.254,645.751,1
5.023827,-9.5,-2.493,2.831,-298.584,41.809,715.759,1
5.032479,-11.058,-2.172,2.839,-330.871,113.403,782.531,1
5.041503,-12.595,-1.679,2.822,-356.628,185.913,835.937,1
5.048975,-14.595,-0.958,2.628,-361.328,259.094,882.141,1
5.055949,-15.999,-0.366,2.307,-352.233,348.022,928.1,1
5.064852,-15.999,0.162,1.853,-357.238,423.034,958.679,1
5.073621,-15.999,0.719,1.232,-379.089,512.268,984.741,1
5.080811,-15.999,1.201,0.766,-398.864,590.271,999.816,1
5.088911,-15.999,1.794,0.178,-416.442,665.832,1006.103,1
5.096617,-15.999,2.266,-0.102,-408.264,740.722,1001.586,1
5.104746,-15.999,2.644,-0.682,-382.69,808.471,986.877,1
5.112767,-15.999,2.983,-0.869,-374.877,865.539,966.308,1
5.120915,-15.999,3.317,-1.244,-357.543,918.701,937.438,1
5.128867,-15.999,3.629,-1.615,-345.458,963.378,897.644,1
5.136778,-15.999,3.732,-1.575,-364.135,1006.774,859.252,1
5.145021,-15.999,3.836,-1.443,-361.328,1065.063,826.171,1
5.153725,-15.999,4.277,-1.87,-308.044,1106.445,789.245,1
5.160702,-15.999,4.573,-2.412,-267.883,1112.976,735.473,1
5.171196,-15.999,4.286,-3.081,-360.778,1115.356,669.86,1
5.178454,-15.999,4.065,-4.044,-619.323,1128.356,565.612,1
5.187319,-15.999,3.558,-4.593,-946.594,1150.024,407.714,1
5.196371,-15.999,2.398,-5.461,-1343.017,1192.749,206.176,1
5.203977,-15.999,2.125,-5.267,-1619.079,1175.537,-6.164,1
5.211743,-15.999,1.843,-4.397,-1570.19,1094.665,-247.436,1
5.221613,-15.999,1.332,-3.478,-1319.03,979.309,-409.362,1
5.228746,-15.999,0.665,-2.907,-958.862,845.275,-526.245,1
5.239058,-15.346,0.041,-3.068,-646.545,716.003,-586.181,1
5.245672,-13.897,-1.1,-3.358,-516.601,619.506,-610.046,1
5.255016,-12.379,-1.783,-3.525,-573.608,540.954,-617.309,1
5.264399,-10.597,-1.933,-3.079,-648.742,438.11,-620.544,1
5.272951,-9.247,-1.826,-2.416,-603.027,346.008,-615.722,1
5.281726,-7.848,-1.781,-1.966,-500.122,276.184,-600.036,1
5.290925,-7.141,-1.749,-1.713,-348.815,200.927,-573.059,1
5.298021,-6.451,-1.751,-1.579,-219.726,146.24,-538.574,1
5.306894,-5.959,-1.726,-1.439,-156.921,109.252,-510.62,1
5.314654,-5.43,-1.715,-1.249,-142.028,85.693,-482.91,1
5.323522,-4.664,-1.675,-1.036,-160.278,55.969,-449.768,1
5.332675,-4.501,-1.552,-0.805,-163.635,41.503,-424.438,1
5.340881,-3.637,-1.469,-0.725,-148.925,19.47,-397.338,1
5.348614,-3.381,-1.345,-0.556,-123.657,4.943,-370.483,1
5.357414,-3.182,-1.257,-0.55,-95.764,-10.07,-349.365,1
5.365569,-2.977,-1.178,-0.455,-64.392,-22.094,-327.575,1
5.374646,-2.838,-1.149,-0.443,-37.597,-33.142,-307.495,1
5.383664,-2.633,-1.111,-0.373,-17.272,-41.137,-289.306,1
5.393144,-2.419,-1.023,-0.314,15.075,-47.729,-272.827,1
5.400498,-2.228,-1.125,-0.306,30.639,-50.415,-257.446,1
5.40993,-1.943,-1.168,-0.3,17.761,-47.363,-244.018,1
5.417163,-1.782,-1.209,-0.269,-16.418,-44.86,-230.224,1
5.426401,-1.573,-1.173,-0.209,-48.889,-39.062,-215.576,1
5.434878,-1.395,-1.164,-0.17,-66.162,-36.865,-201.538,1
5.442626,-1.204,-1.179,-0.125,-73.181,-34.484,-189.208,1
5.451185,-0.995,-1.177,-0.105,-66.345,-33.752,-174.682,1
5.459569,-0.878,-1.196,-0.088,-52.917,-32.714,-160.339,1
5.4686,-0.797,-1.211,-0.117,-45.654,-32.165,-148.315,1
5.476819,-0.738,-1.226,-0.141,-46.203,-30.273,-133.972,1
5.484436,-0.687,-1.223,-0.185,-50.781,-28.625,-120.422,1
5.492743,-0.608,-1.212,-0.199,-56.396,-26.245,-109.374,1
5.501895,-0.561,-1.167,-0.243,-64.331,-23.01,-99.304,1
5.510632,-0.517,-1.122,-0.282,-70.861,-20.446,-87.829,1
5.517629,-0.36,-1.118,-0.317,-75.5,-18.188,-77.209,1
5.527226,-0.27,-1.116,-0.323,-78.735,-15.808,-67.993,1
5.535444,-0.175,-1.103,-0.341,-82.702,-13.122,-58.227,1
5.542861,-0.086,-1.088,-0.345,-84.167,-10.681,-47.973,1
5.551739,-0.014,-1.048,-0.356,-78.918,-9.765,-40.1,1
5.560535,0.028,-1.023,-0.344,-68.664,-9.948,-32.165,1
5.5673,0.064,-1.014,-0.347,-63.598,-8.728,-23.559,1
5.576492,0.127,-0.988,-0.329,-67.504,-7.019,-15.502,1
5.584991,0.16,-0.937,-0.327,-72.326,-4.211,-7.934,1
5.594365,0.181,-0.887,-0.326,-76.782,-2.319,-2.075,1
5.601637,0.172,-0.852,-0.332,-83.251,0.915,4.211,1
5.609282,0.208,-0.827,-0.352,-87.402,3.356,10.192,1
5.617888,0.278,-0.818,-0.34,-85.449,5.432,14.77,1
5.62625,0.318,-0.811,-0.354,-83.862,7.812,19.714,1
5.632927,0.32,-0.813,-0.358,-91.796,9.704,24.841,1
5.6415,0.379,-0.807,-0.35,-101.196,13.305,29.052,1
5.648391,0.457,-0.808,-0.335,-99.975,16.54,34.24,1
5.657251,0.496,-0.804,-0.327,-91.552,19.165,38.94,1
5.666818,0.512,-0.809,-0.329,-81.054,20.69,44.128,1
5.674967,0.516,-0.806,-0.333,-70.8,23.254,49.926,1
5.682106,0.514,-0.804,-0.349,-66.223,24.963,54.931,1
5.691222,0.519,-0.799,-0.371,-69.702,28.259,61.34,1
5.700016,0.517,-0.783,-0.412,-83.435,30.822,67.321,1
5.707279,0.5,-0.741,-0.426,-102.844,33.447,71.594,1
5.718134,0.447,-0.71,-0.446,-119.995,36.621,77.453,1
5.726481,0.454,-0.663,-0.452,-122.192,38.085,82.885,1
5.734959,0.448,-0.659,-0.473,-116.882,39.489,87.951,1
5.741591,0.438,-0.645,-0.484,-110.107,40.71,92.285,1
5.750895,0.466,-0.618,-0.502,-99.304,41.625,96.74,1
5.756987,0.437,-0.602,-0.53,-89.904,42.114,101.135,1
5.76556,0.413,-0.568,-0.538,-80.505,44.006,106.933,1
5.773593,0.388,-0.529,-0.547,-61.096,43.212,111.328,1
5.782609,0.34,-0.499,-0.57,-46.936,43.64,116.333,1
5.791562,0.349,-0.503,-0.636,-51.696,45.166,119.812,1
5.79868,0.355,-0.485,-0.698,-77.148,46.874,123.718,1
5.806256,0.361,-0.44,-0.729,-101.257,48.217,128.051,1
5.814835,0.345,-0.42,-0.744,-116.21,49.987,131.713,1
5.823796,0.32,-0.405,-0.765,-126.464,51.452,135.253,1
5.830889,0.266,-0.372,-0.795,-132.629,51.757,139.282,1
5.838387,0.297,-0.355,-0.791,-126.403,53.466,143.981,1
5.848927,0.21,-0.309,-0.852,-122.985,52.856,148.01,1
5.857729,0.173,-0.233,-0.87,-114.685,54.199,152.709,1
5.866483,0.1,-0.124,-0.933,-104.187,54.016,156.921,1
5.874321,0.071,-0.054,-0.953,-89.721,52.978,159.973,1
5.883996,0.046,0.015,-0.961,-79.345,50.476,162.658,1
5.891737,0.04,0.07,-0.972,-71.96,49.987,164.611,1
5.899081,0.104,0.145,-0.983,-63.842,47.058,165.466,1
5.906391,0.176,0.179,-0.97,-53.833,44.86,166.137,1
5.913857,0.255,0.199,-0.961,-43.151,42.053,167.236,1
5.922389,0.324,0.223,-0.962,-34.729,40.405,169.311,1
5.929167,0.4,0.254,-1.008,-35.888,38.635,171.752,1
5.937156,0.415,0.301,-1.025,-44.006,35.827,173.461,1
5.945334,0.38,0.352,-1.018,-51.879,34.851,175.415,1
5.952745,0.383,0.403,-1.035,-57.25,32.714,177.246,1
5.959549,0.405,0.443,-1.042,-57.983,30.944,178.894,1
5.966436,0.475,0.485,-1.059,-54.016,28.259,179.992,1
5.974624,0.516,0.508,-1.074,-48.095,26.306,180.664,1
5.981491,0.578,0.513,-1.092,-40.832,23.132,181.701,1
5.988183,0.583,0.527,-1.096,-35.644,19.714,181.762,1
5.99677,0.515,0.517,-1.074,-33.142,16.296,182.189,1
6.003714,0.456,0.534,-1.027,-28.93,13.549,182.189,1
6.010715,0.412,0.545,-0.983,-16.723,10.498,182.067,1
6.018524,0.382,0.542,-0.95,-2.685,7.08,181.884,1
6.026428,0.337,0.521,-0.915,5.798,4.028,181.579,1
6.0334,0.305,0.492,-0.882,7.751,1.77,181.457,1
6.040599,0.271,0.473,-0.825,8.361,0.061,181.213,1
6.048701,0.236,0.454,-0.768,11.962,-1.586,181.213,1
6.057526,0.201,0.423,-0.704,18.554,-2.929,181.274,1
6.065918,0.183,0.398,-0.647,27.404,-5.004,181.396,1
6.073714,0.165,0.369,-0.586,39.428,-7.141,182.067,1
6.080509,0.148,0.332,-0.539,47.119,-8.666,182.8,1
6.089256,0.152,0.326,-0.527,46.203,-8.911,183.898,1
6.096084,0.174,0.346,-0.548,35.949,-8.789,184.814,1
6.106601,0.159,0.389,-0.547,20.69,-9.216,185.18,1
6.112717,0.144,0.42,-0.535,3.54,-8.422,185.974,1
6.121219,0.156,0.449,-0.513,-7.507,-8.544,186.523,1
6.128754,0.194,0.483,-0.476,-12.817,-8.239,187.805,1
6.138168,0.231,0.525,-0.468,-13.732,-8.178,188.659,1
6.144649,0.238,0.568,-0.445,-11.23,-8.422,189.208,1
6.153607,0.209,0.611,-0.421,-7.69,-8.666,189.392,1
6.161551,0.192,0.664,-0.422,-8.3,-7.873,188.415,1
6.16868,0.172,0.743,-0.443,-14.587,-6.469,186.645,1
6.175619,0.157,0.825,-0.477,-21.85,-5.126,184.082,1
6.18408,0.12,0.897,-0.495,-26.611,-4.638,180.48,1
6.192475,0.061,0.948,-0.51,-26.367,-4.272,176.635,1
6.201518,0.019,0.977,-0.521,-22.827,-4.089,172.424,1
6.210262,0.035,0.969,-0.515,-15.747,-4.516,167.541,1
6.218276,0.106,0.936,-0.492,-9.277,-5.31,163.452,1
6.227385,0.165,0.912,-0.463,-2.197,-6.042,160.766,1
6.234642,0.222,0.884,-0.41,8.85,-7.69,158.813,1
6.241145,0.301,0.89,-0.387,21.301,-8.056,158.081,1
6.253298,0.347,0.931,-0.423,32.47,-8.605,157.714,1
6.25962,0.282,0.991,-0.48,27.954,-9.46,157.043,1
6.268117,0.235,1.018,-0.511,19.531,-9.216,155.761,1
6.278114,0.195,1.002,-0.533,6.835,-8.666,153.442,1
6.284386,0.184,0.98,-0.546,-6.896,-6.652,151.489,1
6.291009,0.159,0.977,-0.549,-19.531,-5.31,149.292,1
6.299031,0.138,0.97,-0.532,-25.573,-4.15,147.155,1
6.30775,0.154,0.976,-0.513,-22.766,-4.028,145.385,1
6.31451,0.175,0.987,-0.483,-10.864,-5.004,144.042,1
6.323344,0.173,1.008,-0.467,5.31,-6.469,143.127,1
6.330524,0.174,1.014,-0.458,26.794,-9.521,142.089,1
6.339362,0.201,1.066,-0.456,47.851,-12.023,140.502,1
6.348999,0.166,1.061,-0.45,71.594,-17.517,139.221,1
6.35568,0.192,1.008,-0.43,85.327,-21.057,138.305,1
6.365077,0.204,0.956,-0.407,88.317,-23.803,137.939,1
6.37258,0.229,0.913,-0.391,81.42,-24.291,138.122,1
6.380229,0.247,0.91,-0.407,63.537,-23.925,138.183,1
6.388519,0.247,0.98,-0.401,34.912,-21.606,137.878,1
6.397587,0.167,0.972,-0.415,20.446,-22.583,137.146,1
6.40455,0.141,1.041,-0.371,18.005,-20.263,136.047,1
6.413191,0.148,1.038,-0.349,28.076,-23.315,135.314,1
6.422247,0.157,1.088,-0.329,52.246,-24.169,134.338,1
6.429218,0.137,1.099,-0.301,77.941,-27.648,132.873,1
6.438236,0.126,1.101,-0.272,96.801,-28.381,132.751,1
6.445249,0.139,1.095,-0.301,109.741,-30.578,130.981,1
6.454193,0.096,1.104,-0.305,103.698,-29.724,129.943,1
6.462915,0.115,1.138,-0.34,86.73,-29.663,128.662,1
6.470223,0.078,1.156,-0.344,66.04,-29.174,126.708,1
6.478574,0.064,1.161,-0.333,46.874,-27.954,125.366,1
6.485634,0.124,1.182,-0.335,30.578,-25.939,124.389,1
6.494344,0.138,1.197,-0.335,15.624,-25.39,124.023,1
6.502806,0.089,1.296,-0.35,21.24,-25.939,121.337,1
6.509873,0.042,1.334,-0.313,33.813,-26.733,119.445,1
6.517872,0.009,1.346,-0.322,47.485,-28.442,117.126,1
6.526809,-0.002,1.276,-0.267,53.894,-30.456,115.966,1
6.533495,0.002,1.338,-0.27,62.316,-30.029,112.67,1
6.542591,-0.03,1.403,-0.223,67.932,-31.494,109.802,1
6.551213,-0.059,1.423,-0.209,68.664,-31.066,107.299,1
6.557839,-0.063,1.469,-0.198,65.124,-30.944,103.637,1
6.565609,-0.085,1.5,-0.183,56.091,-29.541,100.219,1
6.573762,-0.092,1.579,-0.173,33.081,-27.221,97.351,1
6.58174,-0.104,1.579,-0.178,24.353,-26.062,93.2,1
6.590433,-0.14,1.624,-0.131,26.367,-24.169,89.05,1
6.598485,-0.127,1.624,-0.125,31.982,-23.986,84.045,1
6.605051,-0.13,1.581,-0.096,39.55,-23.498,79.772,1
6.613856,-0.169,1.415,-0.089,39.978,-22.46,77.27,1
6.622325,-0.05,1.47,-0.046,50.476,-18.92,72.387,1
6.630542,-0.083,1.525,-0.003,65.856,-18.188,68.481,1
6.638101,-0.092,1.534,-0.039,69.763,-15.502,65.002,1
6.64726,-0.088,1.546,-0.007,66.894,-13.549,61.584,1
6.656414,-0.099,1.541,-0.004,60.974,-9.948,58.166,1
6.663584,-0.11,1.526,0.001,51.94,-6.408,54.016,1
6.672133,-0.111,1.497,0.011,40.954,-1.647,50.231,1
6.67877,-0.117,1.479,0.001,30.944,2.502,46.997,1
6.686982,-0.109,1.463,0.004,21.667,6.774,43.884,1
6.694534,-0.1,1.451,-0.009,16.113,10.742,40.832,1
6.70223,-0.117,1.42,-0.019,14.282,13.793,38.696,1
6.711235,-0.117,1.382,-0.026,14.526,17.089,35.888,1
6.720653,-0.101,1.337,-0.044,14.648,20.751,33.813,1
6.728139,-0.104,1.304,-0.081,9.277,24.902,31.127,1
6.736951,-0.141,1.288,-0.112,0.183,27.526,29.113,1
6.744723,-0.13,1.269,-0.145,-18.31,30.7,26.184,1
6.753204,-0.151,1.31,-0.157,-21.423,32.714,23.681,1
6.762296,-0.034,1.303,-0.217,-11.84,31.311,21.484,1
6.769131,-0.132,1.304,-0.234,3.784,30.212,19.287,1
6.777909,-0.138,1.27,-0.284,15.624,28.503,17.639,1
6.786459,-0.123,1.207,-0.295,22.46,26.733,15.686,1
6.793318,-0.149,1.164,-0.322,29.174,26.0,14.038,1
6.800976,-0.198,1.133,-0.34,33.691,24.108,12.878,1
6.8091,-0.21,1.079,-0.352,40.039,22.521,12.39,1
6.81664,-0.204,1.026,-0.367,45.837,20.874,12.268,1
6.825759,-0.197,0.979,-0.383,46.569,19.409,12.329,1
6.83271,-0.203,0.941,-0.406,45.288,17.822,12.451,1
6.841091,-0.224,0.912,-0.416,43.395,15.869,12.39,1
6.848257,-0.208,0.892,-0.422,44.433,14.404,12.817,1
6.856722,-0.21,0.864,-0.428,43.09,12.634,13.427,1
6.863358,-0.212,0.836,-0.429,38.085,11.535,14.099,1
6.871735,-0.197,0.824,-0.427,31.86,10.375,15.014,1
6.879246,-0.182,0.813,-0.42,27.038,9.033,16.174,1
6.887386,-0.206,0.799,-0.414,25.451,7.812,16.845,1
6.897,-0.211,0.812,-0.419,25.268,6.469,18.005,1
6.90333,-0.229,0.817,-0.42,25.085,4.943,19.104,1
6.911889,-0.216,0.818,-0.424,21.85,3.845,19.836,1
6.919247,-0.244,0.838,-0.416,24.841,2.502,20.751,1
6.928321,-0.283,0.879,-0.422,34.545,0.366,21.179,1
6.935599,-0.291,0.876,-0.415,45.043,-2.136,21.301,1
6.943347,-0.297,0.863,-0.415,49.255,-3.967,22.033,1
6.950914,-0.283,0.865,-0.409,45.776,-4.943,22.521,1
6.9598,-0.303,0.87,-0.395,37.475,-5.676,22.888,1
6.967389,-0.301,0.886,-0.38,26.306,-5.554,23.376,1
6.974959,-0.294,0.906,-0.371,12.756,-5.371,23.742,1
6.982741,-0.296,0.937,-0.358,3.845,-5.187,23.986,1
6.990402,-0.296,0.97,-0.36,-0.61,-5.554,23.986,1
6.998226,-0.312,0.996,-0.356,-0.854,-6.286,23.376,1
7.005838,-0.331,1.024,-0.358,1.525,-7.324,22.888,1
7.014009,-0.325,1.021,-0.368,2.685,-8.239,22.094,1
7.023063,-0.317,1.039,-0.346,10.192,-10.803,20.996,1
7.030221,-0.399,1.044,-0.334,18.005,-11.108,20.324,1
7.038854,-0.355,1.05,-0.344,24.536,-13.793,19.592,1
7.047289,-0.395,1.058,-0.312,31.005,-15.38,18.249,1
7.055074,-0.373,1.06,-0.298,32.531,-15.991,17.028,1
7.063652,-0.371,1.068,-0.273,30.578,-16.113,16.296,1
7.072473,-0.354,1.075,-0.272,20.69,-15.075,15.014,1
7.079378,-0.344,1.092,-0.267,7.385,-13.977,13.793,1
7.087366,-0.341,1.121,-0.27,-7.141,-12.939,12.512,1
7.097428,-0.338,1.136,-0.274,-13.977,-12.268,11.291,1
7.104007,-0.317,1.136,-0.29,-15.319,-12.817,9.643,1
7.11396,-0.366,1.166,-0.314,-15.136,-13.061,8.361,1
7.120889,-0.353,1.177,-0.331,-12.329,-14.221,6.713,1
7.129919,-0.344,1.165,-0.34,-4.333,-15.808,5.249,1
7.137332,-0.386,1.159,-0.358,0.366,-15.747,3.784,1
7.144869,-0.345,1.165,-0.371,6.713,-17.639,1.892,1
7.153835,-0.328,1.154,-0.386,14.709,-17.822,0.305,1
7.161598,-0.354,1.163,-0.417,18.859,-18.92,-0.061,1
7.17009,-0.343,1.176,-0.456,22.827,-19.958,-1.403,1
7.178282,-0.342,1.182,-0.492,24.597,-21.362,-2.38,1
7.187537,-0.351,1.195,-0.534,20.568,-22.338,-3.356,1
7.19469,-0.348,1.21,-0.555,13.916,-23.254,-4.211,1
7.20307,-0.351,1.228,-0.578,5.004,-23.864,-5.004,1
7.211156,-0.344,1.263,-0.601,-6.53,-25.085,-6.164,1
7.221387,-0.343,1.291,-0.61,-16.845,-25.939,-7.995,1
7.227662,-0.34,1.323,-0.623,-22.644,-27.16,-10.131,1
7.236313,-0.352,1.354,-0.63,-23.498,-28.381,-11.84,1
7.244055,-0.355,1.383,-0.654,-20.751,-30.151,-14.038,1
7.252724,-0.368,1.429,-0.683,-15.747,-32.226,-16.235,1
7.259437,-0.369,1.462,-0.711,-10.009,-35.278,-18.676,1
7.267791,-0.361,1.49,-0.732,-8.85,-37.536,-21.423,1
7.277229,-0.378,1.52,-0.754,-16.113,-38.94,-24.597,1
7.284908,-0.404,1.566,-0.782,-29.602,-40.588,-27.587,1
7.293251,-0.399,1.617,-0.784,-46.508,-41.87,-31.494,1
7.30211,-0.394,1.676,-0.814,-58.715,-43.334,-35.827,1
7.310364,-0.403,1.737,-0.847,-64.819,-45.776,-39.55,1
7.317577,-0.433,1.789,-0.875,-67.26,-48.217,-43.395,1
7.325758,-0.429,1.845,-0.929,-66.955,-52.062,-48.217,1
7.334421,-0.451,1.861,-0.978,-68.786,-55.908,-53.588,1
7.342881,-0.513,1.899,-1.012,-70.556,-58.105,-58.349,1
7.350299,-0.566,1.916,-1.057,-75.866,-61.584,-63.11,1
7.360426,-0.541,1.918,-1.091,-94.238,-64.086,-68.542,1
7.367857,-0.536,1.936,-1.112,-118.286,-67.077,-73.608,1
7.376884,-0.56,1.946,-1.14,-144.958,-69.763,-78.613,1
7.385621,-0.434,1.936,-1.183,-176.147,-73.242,-82.946,1
7.393674,-0.543,1.969,-1.168,-203.063,-77.209,-86.303,1
7.402025,-0.637,1.977,-1.199,-209.35,-83.068,-89.355,1
7.411027,-0.664,1.964,-1.187,-199.584,-90.698,-92.651,1
7.419498,-0.624,1.926,-1.163,-177.246,-99.182,-96.008,1
7.4279,-0.635,1.863,-1.135,-153.625,-107.055,-98.999,1
7.435183,-0.679,1.804,-1.111,-141.723,-112.548,-101.867,1
7.444462,-0.684,1.746,-1.086,-137.329,-116.943,-104.858,1
7.452728,-0.695,1.686,-1.058,-139.831,-120.849,-107.666,1
7.460504,-0.712,1.625,-1.019,-151.245,-124.023,-110.351,1
7.469237,-0.66,1.569,-0.98,-169.616,-126.647,-112.182,1
7.477458,-0.651,1.515,-0.941,-189.697,-129.272,-113.22,1
7.485762,-0.643,1.482,-0.889,-203.796,-132.019,-113.22,1
7.494256,-0.605,1.457,-0.835,-204.162,-134.948,-112.915,1
7.503077,-0.613,1.438,-0.777,-189.758,-138.854,-111.816,1
7.51154,-0.595,1.404,-0.759,-172.058,-142.639,-111.022,1
7.520337,-0.583,1.356,-0.725,-154.357,-145.874,-111.083,1
7.530156,-0.539,1.284,-0.675,-146.606,-147.338,-110.961,1
7.539005,-0.472,1.219,-0.629,-147.705,-147.277,-110.412,1
7.545623,-0.461,1.175,-0.584,-151.916,-147.155,-109.313,1
7.556149,-0.43,1.122,-0.535,-154.235,-147.033,-108.154,1
7.564686,-0.388,1.063,-0.478,-153.32,-146.667,-106.384,1
7.573256,-0.333,1.024,-0.437,-143.371,-146.85,-103.637,1
7.582128,-0.274,0.99,-0.386,-124.877,-147.949,-101.44,1
7.590766,-0.233,0.929,-0.341,-88.684,-147.949,-98.754,1
7.599534,-0.207,0.906,-0.312,-55.236,-148.071,-96.618,1
7.609572,-0.15,0.895,-0.302,-4.333,-148.498,-94.665,1
7.616811,-0.127,0.912,-0.391,52.307,-148.132,-92.834,1
7.62552,-0.139,0.954,-0.477,91.491,-150.268,-92.346,1
7.634983,-0.07,0.931,-0.521,98.022,-152.221,-93.261,1
7.642018,0.034,0.885,-0.53,89.05,-150.146,-93.627,1
7.650429,0.081,0.837,-0.614,45.227,-147.399,-93.322,1
7.659601,0.1,0.865,-0.602,-6.591,-143.859,-92.956,1
7.668735,0.192,0.955,-0.649,-54.748,-142.944,-92.895,1
7.676087,0.105,1.086,-0.61,-80.871,-143.493,-91.796,1
7.685638,0.079,1.16,-0.625,-76.171,-147.888,-93.749,1
7.693387,0.029,1.178,-0.583,-46.02,-152.587,-97.229,1
7.702351,-0.058,1.187,-0.49,-22.033,-155.09,-102.172,1
7.711095,-0.099,1.134,-0.443,-23.01,-158.874,-107.36,1
7.718325,-0.16,1.038,-0.354,-42.053,-157.897,-111.389,1
7.726465,-0.163,1.102,-0.276,-76.416,-155.395,-116.333,1
7.735159,-0.237,1.054,-0.19,-96.557,-157.531,-120.483,1
7.74413,-0.281,1.001,-0.047,-110.046,-155.212,-121.215,1
7.751578,-0.206,0.928,-0.01,-101.806,-158.264,-124.816,1
7.760903,-0.212,0.923,0.1,-82.824,-156.982,-127.319,1
7.768385,-0.283,0.819,0.147,-68.054,-159.667,-128.845,1
7.775654,-0.226,0.741,0.227,-61.096,-156.86,-129.516,1
7.785256,-0.238,0.662,0.275,-62.072,-155.944,-130.126,1
7.792847,-0.228,0.59,0.338,-68.969,-151.367,-130.371,1
7.80033,-0.181,0.528,0.367,-82.824,-147.827,-130.676,1
7.808341,-0.186,0.44,0.414,-106.445,-141.967,-130.676,1
7.81741,-0.138,0.374,0.442,-128.601,-136.779,-129.699,1
7.82509,-0.079,0.345,0.479,-147.827,-131.713,-129.028,1
7.834384,-0.056,0.293,0.507,-155.822,-127.563,-127.624,1
7.841397,-0.055,0.27,0.535,-152.282,-124.45,-126.525,1
7.850436,-0.017,0.226,0.56,-136.413,-122.802,-125.122,1
7.857596,0.015,0.183,0.583,-118.713,-120.422,-124.145,1
7.866071,0.01,0.137,0.585,-105.834,-118.041,-122.558,1
7.876384,0.053,0.077,0.568,-100.83,-114.685,-119.873,1
7.882533,0.114,0.041,0.571,-112.121,-111.328,-116.455,1
7.892941,0.118,0.06,0.556,-130.981,-107.482,-113.647,1
7.900251,0.194,0.143,0.583,-141.784,-106.811,-112.915,1
7.908023,0.259,0.193,0.656,-130.554,-106.75,-113.525,1
7.915903,0.283,0.186,0.683,-104.797,-104.37,-114.624,1
7.924241,0.549,0.176,0.685,-88.928,-102.478,-117.248,1
7.930852,0.463,0.153,0.676,-81.237,-98.937,-120.605,1
7.939474,0.33,0.125,0.656,-87.463,-96.374,-124.267,1
7.947989,0.224,0.107,0.639,-101.684,-90.82,-128.906,1
7.956605,0.107,0.09,0.607,-118.591,-87.89,-133.728,1
7.964534,-0.019,0.063,0.574,-136.047,-83.862,-138.61,1
7.97347,-0.17,0.049,0.545,-151.306,-83.435,-143.554,1
7.981329,-0.312,-0.021,0.486,-159.545,-83.19,-147.399,1
7.988795,-0.459,-0.092,0.439,-166.198,-83.557,-149.108,1
7.997469,-0.507,-0.208,0.377,-171.203,-85.51,-149.169,1
8.004735,-0.625,-0.32,0.331,-174.621,-87.402,-147.155,1
8.014883,-0.782,-0.472,0.257,-187.744,-90.026,-141.845,1
8.024184,-0.905,-0.627,0.233,-214.599,-92.59,-133.728,1
8.033294,-0.943,-0.778,0.163,-246.948,-94.543,-123.107,1
8.04043,-0.949,-0.973,0.126,-285.766,-96.008,-110.412,1
8.049039,-1.053,-1.079,0.117,-303.1,-100.769,-94.36,1
8.057711,-1.207,-1.204,0.124,-292.236,-106.201,-79.65,1
8.065864,-1.291,-1.345,0.127,-265.319,-113.708,-60.729,1
8.074842,-1.378,-1.506,0.168,-233.764,-121.643,-39.489,1
8.082761,-1.571,-1.684,0.122,-212.585,-127.624,-20.751,1
8.091889,-1.616,-1.95,0.163,-202.941,-132.69,2.685,1
8.09995,-1.624,-2.108,0.119,-201.11,-135.375,25.451,1
8.107298,-1.652,-2.216,0.138,-194.03,-139.099,54.931,1
8.11609,-1.849,-2.288,0.129,-174.194,-144.348,84.96,1
8.123754,-2.111,-2.354,0.155,-153.503,-148.132,112.121,1
8.131681,-2.384,-2.44,0.157,-140.869,-151.0,144.042,1
8.142474,-2.631,-2.494,0.168,-150.268,-151.245,172.424,1
8.150216,-3.069,-2.516,0.192,-162.719,-150.207,206.787,1
8.160792,-3.592,-2.557,0.259,-213.378,-148.01,249.511,1
8.167504,-4.017,-2.593,0.329,-235.168,-143.432,290.405,1
8.17546,-4.461,-2.671,0.416,-291.381,-132.263,327.758,1
8.183548,-4.535,-2.567,0.636,-305.053,-113.403,377.38,1
8.191447,-5.158,-2.449,0.772,-272.155,-97.595,421.447,1
8.199083,-5.677,-2.38,0.919,-222.351,-85.815,465.27,1
8.208015,-6.375,-2.338,1.113,-181.396,-67.26,517.822,1
8.21572,-7.146,-2.3,1.357,-191.345,-42.358,569.824,1
8.225218,-7.766,-2.17,1.581,-229.37,-6.164,616.088,1
8.231913,-8.428,-2.003,1.779,-279.968,37.292,661.621,1
8.241236,-9.372,-1.763,1.998,-336.975,95.458,706.42,1
8.248429,-10.274,-1.536,2.069,-406.616,175.109,757.507,1
8.256538,-11.41,-1.275,2.097,-469.848,256.469,799.56,1
8.264414,-13.017,-0.774,1.956,-514.526,360.046,838.073,1
8.272786,-14.602,-0.312,1.688,-515.625,449.279,862.365,1
8.28,-15.999,0.091,1.309,-491.821,530.883,878.051,1
8.288194,-15.999,0.47,0.941,-455.505,606.872,887.207,1
8.295323,-15.999,1.007,0.536,-414.428,672.363,887.695,1
8.303852,-15.999,1.46,0.308,-355.407,731.872,880.859,1
8.310633,-15.999,1.826,-0.055,-295.898,778.686,871.826,1
8.319744,-15.999,2.218,-0.334,-261.108,823.547,857.543,1
8.327921,-15.999,2.529,-0.638,-272.033,862.609,839.782,1
8.334818,-15.999,2.874,-0.985,-292.541,894.836,816.589,1
8.342552,-15.999,3.0,-1.119,-326.721,932.739,781.188,1
8.351967,-15.999,3.22,-0.858,-308.41,971.557,753.845,1
8.360213,-15.999,3.374,-0.897,-225.463,1006.286,733.032,1
8.366523,-15.999,3.495,-1.521,-163.696,1013.977,707.58,1
8.374989,-15.999,3.401,-2.104,-223.632,1011.718,677.49,1
8.382989,-15.999,3.515,-2.529,-331.787,1027.099,632.507,1
8.393478,-15.999,3.587,-3.378,-586.608,1031.86,536.865,1
8.401029,-15.999,3.148,-3.754,-981.506,1070.556,390.991,1
8.408175,-15.999,2.594,-4.307,-1339.904,1103.149,226.074,1
8.418168,-15.999,2.125,-4.332,-1602.111,1108.276,-5.187,1
8.425598,-15.999,1.718,-3.638,-1644.653,1041.809,-239.807,1
8.434313,-15.999,1.399,-3.227,-1485.839,939.514,-404.846,1
8.442255,-14.583,1.014,-2.682,-1148.864,782.104,-535.4,1
8.450274,-13.183,0.52,-2.399,-804.687,654.418,-591.552,1
8.459632,-12.482,-0.112,-2.209,-463.928,539.733,-617.309,1
8.468678,-11.843,-1.171,-2.46,-376.403,474.914,-618.225,1
8.477056,-10.916,-1.687,-2.624,-513.977,421.997,-611.694,1
8.485809,-9.576,-1.824,-2.455,-639.831,352.233,-606.933,1
8.492758,-8.47,-1.75,-2.084,-628.051,281.372,-600.585,1
8.50049,-7.583,-1.65,-1.684,-500.549,208.557,-584.289,1
8.508503,-6.64,-1.716,-1.395,-307.861,139.038,-556.335,1
8.517173,-6.14,-1.829,-1.293,-198.974,97.412,-528.137,1
8.526647,-5.847,-1.91,-1.214,-170.837,70.251,-500.122,1
8.534234,-5.174,-1.89,-1.068,-197.021,44.189,-468.505,1
8.541671,-4.649,-1.75,-0.837,-207.702,22.277,-439.025,1
8.551388,-4.107,-1.612,-0.713,-187.072,3.173,-412.658,1
8.559413,-3.883,-1.537,-0.554,-147.216,-19.592,-383.789,1
8.568086,-3.501,-1.47,-0.469,-84.716,-39.123,-352.966,1
8.576908,-3.18,-1.448,-0.362,-49.438,-51.391,-332.275,1
8.585228,-2.932,-1.473,-0.321,-38.085,-56.762,-308.654,1
8.595024,-2.605,-1.448,-0.261,-46.264,-60.607,-285.888,1
8.603483,-2.222,-1.396,-0.196,-48.461,-63.72,-263.977,1
8.610874,-1.989,-1.355,-0.142,-38.94,-66.406,-246.337,1
8.620651,-1.769,-1.319,-0.083,-23.864,-67.871,-226.562,1
8.627651,-1.55,-1.3,-0.054,-16.723,-67.504,-208.19,1
8.638699,-1.384,-1.212,-0.016,-14.282,-66.223,-192.26,1
8.647834,-1.135,-1.239,-0.001,-1.159,-64.27,-173.889,1
8.655393,-0.898,-1.247,-0.005,-12.268,-59.57,-157.226,1
8.666063,-0.725,-1.179,-0.006,-27.832,-56.335,-142.028,1
8.673777,-0.592,-1.074,0.003,-44.86,-51.696,-125.976,1
8.682707,-0.508,-0.961,0.0,-50.659,-49.011,-112.854,1
8.691173,-0.414,-0.87,-0.008,-44.006,-47.546,-102.6,1
8.70051,-0.341,-0.769,-0.021,-30.273,-47.485,-92.163,1
8.70786,-0.33,-0.715,-0.044,-17.944,-46.081,-82.58,1
8.717597,-0.283,-0.664,-0.059,-6.042,-45.532,-74.401,1
8.72708,-0.158,-0.643,-0.067,8.361,-44.921,-66.711,1
8.734356,-0.078,-0.647,-0.061,18.188,-43.579,-60.18,1
8.743269,-0.027,-0.662,-0.065,16.113,-40.039,-54.687,1
8.750413,0.012,-0.654,-0.09,-1.159,-35.339,-48.461,1
8.758198,0.046,-0.632,-0.125,-19.348,-31.555,-43.701,1
8.766561,0.103,-0.617,-0.121,-35.095,-28.686,-38.208,1
8.776718,0.193,-0.607,-0.121,-37.536,-26.0,-33.203,1
8.785676,0.266,-0.584,-0.15,-35.156,-22.644,-27.099,1
8.794553,0.291,-0.549,-0.205,-39.062,-19.897,-21.667,1
8.801225,0.311,-0.499,-0.231,-46.569,-17.639,-16.845,1
8.809704,0.346,-0.46,-0.255,-50.598,-15.808,-12.451,1
8.819199,0.367,-0.437,-0.253,-49.682,-14.038,-8.361,1
8.82701,0.403,-0.416,-0.271,-46.569,-11.962,-4.089,1
8.834009,0.415,-0.394,-0.298,-45.227,-10.253,-0.671,1
8.84474,0.434,-0.364,-0.323,-43.579,-8.728,3.234,1
8.851359,0.461,-0.333,-0.336,-41.992,-7.446,6.835,1
8.859689,0.49,-0.311,-0.348,-40.71,-6.286,9.521,1
8.867792,0.529,-0.298,-0.376,-40.588,-4.577,12.878,1
8.877705,0.56,-0.291,-0.397,-44.921,-3.662,15.319,1
8.883917,0.588,-0.284,-0.411,-52.795,-1.647,18.371,1
8.893456,0.591,-0.271,-0.417,-61.645,-0.854,20.874,1
8.900069,0.606,-0.256,-0.397,-70.19,1.22,23.803,1
8.908929,0.613,-0.245,-0.391,-76.232,2.563,26.123,1
8.917748,0.617,-0.225,-0.366,-78.918,4.272,28.564,1
8.927347,0.631,-0.211,-0.361,-78.125,5.371,30.761,1
8.934852,0.637,-0.177,-0.341,-74.218,5.859,32.836,1
8.944127,0.648,-0.159,-0.332,-68.481,6.042,34.667,1
8.951048,0.638,-0.155,-0.303,-59.204,7.324,36.315,1
8.958997,0.659,-0.168,-0.301,-54.504,7.69,37.78,1
8.968174,0.687,-0.17,-0.275,-48.522,9.46,38.757,1
8.975679,0.705,-0.184,-0.27,-47.241,10.62,40.283,1
8.983464,0.724,-0.167,-0.252,-45.166,13.977,41.442,1
8.990996,0.688,-0.196,-0.252,-38.757,15.319,42.663,1
9.000142,0.703,-0.224,-0.246,-36.743,17.211,45.043,1
9.008906,0.736,-0.265,-0.261,-41.503,20.568,48.706,1
9.015611,0.743,-0.255,-0.249,-46.997,23.315,51.635,1
9.02307,0.802,-0.277,-0.262,-51.696,27.221,55.053,1
9.032518,0.856,-0.292,-0.274,-57.006,29.724,58.898,1
9.040989,0.906,-0.305,-0.293,-63.476,33.813,64.025,1
9.048684,0.899,-0.308,-0.316,-71.289,36.254,68.359,1
9.05642,0.836,-0.267,-0.336,-74.279,39.489,73.425,1
9.064025,0.797,-0.237,-0.354,-67.871,40.588,77.636,1
9.071851,0.772,-0.219,-0.362,-56.091,41.32,80.932,1
9.079855,0.737,-0.215,-0.393,-43.334,41.809,84.106,1
9.08838,0.745,-0.215,-0.396,-31.433,42.48,87.219,1
9.097403,0.707,-0.209,-0.446,-21.057,42.968,91.064,1
9.106291,0.67,-0.201,-0.48,-17.7,43.884,93.749,1
9.113523,0.626,-0.189,-0.524,-20.324,43.701,96.923,1
9.122328,0.582,-0.177,-0.538,-26.123,44.128,99.548,1
9.131416,0.538,-0.161,-0.555,-35.461,44.433,103.21,1
9.140048,0.511,-0.146,-0.551,-42.541,45.166,106.506,1
9.149138,0.496,-0.108,-0.53,-43.701,45.349,109.863,1
9.156571,0.526,-0.09,-0.55,-40.649,46.02,112.426,1
9.164211,0.575,-0.061,-0.591,-37.78,46.325,115.478,1
9.173068,0.589,-0.036,-0.623,-37.841,46.203,117.675,1
9.182354,0.583,0.001,-0.646,-41.32,45.776,119.995,1
9.190421,0.568,0.027,-0.646,-43.701,45.593,122.314,1
9.197062,0.535,0.069,-0.644,-43.334,44.677,124.633,1
9.20559,0.511,0.104,-0.635,-39.001,43.518,127.075,1
9.213948,0.48,0.14,-0.611,-31.249,41.687,128.845,1
9.220841,0.432,0.163,-0.577,-19.287,39.794,131.347,1
9.22871,0.382,0.181,-0.555,-7.141,37.902,133.728,1
9.236028,0.314,0.199,-0.551,2.441,35.949,135.986,1
9.243363,0.269,0.22,-0.539,10.559,34.301,138.671,1
9.250752,0.233,0.24,-0.544,13.366,32.836,140.747,1
9.259776,0.199,0.26,-0.549,13.122,31.86,143.005,1
9.267341,0.178,0.266,-0.553,9.643,31.738,144.775,1
9.274563,0.173,0.269,-0.568,0.061,31.799,147.033,1
9.281482,0.159,0.279,-0.578,-11.291,33.264,148.559,1
9.290544,0.16,0.298,-0.604,-25.634,34.79,150.268,1
9.297085,0.172,0.315,-0.629,-40.222,36.56,151.489,1
9.305061,0.189,0.351,-0.65,-52.246,38.146,152.648,1
9.312463,0.17,0.395,-0.676,-57.128,38.94,153.93,1
9.321091,0.154,0.452,-0.696,-53.039,38.94,155.151,1
9.329685,0.15,0.516,-0.716,-40.222,36.987,156.616,1
9.336506,0.144,0.555,-0.74,-20.629,33.569,158.203,1
9.34538,0.129,0.565,-0.758,-6.225,30.09,159.606,1
9.353586,0.003,0.599,-0.77,5.432,26.306,160.949,1
9.361034,0.101,0.6,-0.798,6.958,25.085,161.743,1
9.370237,0.038,0.61,-0.848,-2.38,21.606,162.109,1
9.376631,-0.012,0.62,-0.83,-15.563,21.118,162.658,1
9.385553,0.018,0.656,-0.838,-20.08,18.859,162.475,1
9.39242,0.031,0.64,-0.844,-22.338,17.639,162.536,1
9.400192,0.058,0.645,-0.846,-25.512,16.418,162.658,1
9.407618,0.094,0.659,-0.844,-26.123,14.099,162.719,1
9.417281,0.036,0.686,-0.831,-21.118,11.779,163.208,1
9.424869,0.137,0.722,-0.801,-10.253,9.521,163.452,1
9.433552,0.093,0.734,-0.825,0.61,4.638,162.841,1
9.441596,0.158,0.717,-0.798,10.07,2.868,163.452,1
9.449336,0.11,0.715,-0.791,15.38,-0.854,163.635,1
9.458202,0.103,0.725,-0.79,18.615,-2.624,164.123,1
9.467485,0.112,0.743,-0.807,15.014,-4.638,163.94,1
9.474654,0.099,0.762,-0.808,7.69,-6.469,163.513,1
9.481919,0.085,0.785,-0.81,1.159,-7.995,163.146,1
9.491445,0.069,0.818,-0.793,-2.441,-8.85,162.658,1
9.499643,0.052,0.861,-0.787,-2.075,-10.314,161.743,1
9.507492,0.033,0.904,-0.775,1.586,-11.962,160.278,1
9.517216,0.023,0.941,-0.781,7.263,-13.305,158.813,1
9.525681,0.019,0.973,-0.773,15.563,-15.441,156.311,1
9.533012,0.004,0.972,-0.768,22.033,-17.333,153.808,1
9.541055,0.016,0.981,-0.753,23.864,-18.066,151.916,1
9.549107,0.049,0.996,-0.76,22.949,-19.287,149.902,1
9.558442,0.067,1.007,-0.75,19.531,-19.775,148.254,1
9.564767,0.068,1.019,-0.743,14.16,-20.019,146.728,1
9.572217,0.07,1.016,-0.73,10.986,-20.446,145.69,1
9.58008,0.057,1.013,-0.711,12.207,-21.179,144.531,1
9.588829,0.046,0.995,-0.706,14.343,-21.911,143.615,1
9.596943,0.048,0.975,-0.687,18.432,-23.132,142.395,1
9.603806,0.05,0.962,-0.663,28.198,-24.658,141.418,1
9.61156,0.05,0.952,-0.633,46.325,-27.465,140.747,1
9.621219,0.048,0.952,-0.631,58.898,-28.686,140.014,1
9.628905,0.027,0.953,-0.656,59.02,-29.907,138.854,1
9.635855,0.017,0.972,-0.665,44.799,-29.174,137.695,1
9.644738,0.028,1.024,-0.67,26.062,-27.893,135.986,1
9.651804,0.035,1.062,-0.674,7.385,-26.367,134.216,1
9.6593,0.107,1.119,-0.673,-6.469,-25.512,131.896,1
9.668022,0.026,1.168,-0.663,-12.451,-24.536,129.211,1
9.676245,-0.014,1.169,-0.671,-17.028,-24.658,126.159,1
9.683504,-0.014,1.202,-0.639,-16.845,-24.23,123.779,1
9.691631,-0.004,1.2,-0.617,-6.225,-25.512,120.788,1
9.69958,0.01,1.202,-0.587,10.253,-27.282,118.53,1
9.70747,0.013,1.191,-0.567,29.907,-29.602,116.516,1
9.71546,0.0,1.156,-0.534,53.283,-32.47,114.929,1
9.723059,-0.006,1.112,-0.511,72.326,-34.79,113.708,1
9.732396,-0.026,1.059,-0.487,91.003,-36.743,113.22,1
9.739761,-0.038,0.982,-0.464,106.323,-39.245,113.464,1
9.748677,-0.057,0.911,-0.45,116.088,-40.71,114.257,1
9.755663,-0.061,0.867,-0.441,114.135,-40.649,115.356,1
9.766125,-0.072,0.863,-0.437,95.825,-39.733,116.638,1
9.774782,-0.086,0.857,-0.435,69.641,-37.78,117.919,1
9.78074,-0.095,0.871,-0.414,49.682,-36.132,119.018,1
9.789814,-0.106,0.87,-0.396,34.729,-34.545,120.727,1
9.798292,-0.115,0.864,-0.377,32.836,-34.667,122.375,1
9.805925,-0.086,0.869,-0.349,41.87,-35.461,124.633,1
9.815031,-0.145,0.897,-0.338,55.969,-36.56,126.831,1
9.823955,-0.203,0.964,-0.326,67.626,-37.414,127.99,1
9.83186,-0.224,1.05,-0.321,79.895,-38.574,128.54,1
9.840813,-0.275,1.119,-0.317,90.148,-41.076,128.356,1
9.848354,-0.305,1.195,-0.298,92.163,-41.564,127.258,1
9.856172,-0.281,1.263,-0.298,88.623,-42.541,125.427,1
9.864313,-0.288,1.344,-0.282,79.528,-41.687,122.924,1
9.871803,-0.283,1.433,-0.288,63.72,-41.381,119.323,1
9.880635,-0.301,1.452,-0.268,48.767,-40.588,116.76,1
9.887656,-0.25,1.546,-0.266,39.672,-39.001,112.426,1
9.89634,-0.294,1.57,-0.242,41.32,-40.161,108.52,1
9.904036,-0.315,1.551,-0.232,46.447,-39.855,104.125,1
9.913129,-0.317,1.554,-0.204,48.645,-40.222,99.304,1
9.919606,-0.317,1.553,-0.165,48.889,-38.574,95.153,1
9.92877,-0.304,1.578,-0.142,46.63,-36.682,91.125,1
9.937249,-0.303,1.6,-0.123,45.898,-34.423,85.937,1
9.944808,-0.311,1.621,-0.106,49.56,-32.226,81.359,1
9.953607,-0.338,1.648,-0.084,56.091,-30.334,76.538,1
9.961287,-0.338,1.645,-0.084,65.063,-28.137,71.655,1
9.971124,-0.335,1.649,-0.08,72.082,-25.817,67.077,1
9.978577,-0.346,1.647,-0.095,79.711,-23.681,60.668,1
9.987087,-0.309,1.623,-0.093,85.144,-22.216,55.969,1
9.996698,-0.335,1.589,-0.115,88.5,-20.812,50.659,1
