timestamp_s,ax,ay,az,gx,gy,gz,label
0.005838,0.012,1.025,-0.378,2.258,40.222,11.413,1
0.012932,0.002,1.008,-0.385,6.774,37.963,12.207,1
0.021832,0.009,0.987,-0.372,9.704,37.353,13.366,1
0.028235,0.015,0.967,-0.374,7.934,36.499,14.526,1
0.035253,0.031,0.956,-0.36,1.464,36.254,15.258,1
0.043631,0.037,0.96,-0.352,-5.859,36.132,15.869,1
0.050309,0.016,0.973,-0.344,-14.709,36.193,16.296,1
0.05846,0.0,0.965,-0.355,-18.92,35.705,17.028,1
0.067384,0.019,0.937,-0.361,-23.315,35.278,18.066,1
0.074272,0.071,0.926,-0.36,-28.503,35.217,19.104,1
0.081141,0.092,0.954,-0.35,-31.982,35.522,19.409,1
0.089262,0.068,0.998,-0.361,-36.254,35.583,19.287,1
0.096621,-0.011,1.048,-0.369,-43.151,34.851,18.615,1
0.104859,-0.062,1.086,-0.4,-50.17,34.118,17.761,1
0.112729,-0.069,1.109,-0.426,-56.457,30.944,16.113,1
0.120531,-0.053,1.127,-0.434,-52.795,28.808,14.282,1
0.128357,-0.04,1.146,-0.448,-45.654,25.085,12.329,1
0.136548,-0.047,1.158,-0.446,-38.024,22.521,10.131,1
0.144438,-0.064,1.167,-0.451,-33.508,19.775,8.239,1
0.151181,-0.059,1.18,-0.458,-31.677,16.784,6.286,1
0.159296,-0.026,1.192,-0.461,-30.822,14.709,4.15,1
0.165733,-0.019,1.207,-0.473,-32.348,12.329,1.77,1
0.174074,-0.025,1.213,-0.479,-33.508,10.253,0.0,1
0.181134,-0.037,1.217,-0.486,-33.081,7.324,-2.502,1
0.189617,-0.04,1.206,-0.488,-29.602,4.699,-4.699,1
0.198008,-0.035,1.186,-0.476,-24.169,1.892,-6.225,1
0.206163,-0.029,1.152,-0.464,-17.456,-0.854,-7.69,1
0.214028,-0.037,1.125,-0.454,-14.587,-2.685,-8.666,1
0.222136,-0.042,1.105,-0.45,-15.808,-3.967,-9.399,1
0.22999,-0.059,1.088,-0.441,-20.507,-4.577,-10.009,1
0.238531,-0.071,1.083,-0.43,-25.39,-5.004,-10.62,1
0.24512,-0.063,1.082,-0.422,-28.93,-5.187,-11.291,1
0.253428,-0.061,1.079,-0.418,-33.752,-5.432,-11.718,1
0.260681,-0.064,1.083,-0.418,-41.198,-5.493,-12.878,1
0.268776,-0.061,1.088,-0.427,-47.058,-5.493,-13.427,1
0.2772,-0.06,1.111,-0.435,-48.706,-6.103,-14.221,1
0.285413,-0.051,1.126,-0.443,-44.494,-7.385,-15.563,1
0.293367,-0.029,1.143,-0.45,-34.301,-9.46,-16.601,1
0.300844,-0.012,1.139,-0.465,-23.376,-11.474,-17.7,1
0.308687,0.006,1.132,-0.478,-13.732,-13.549,-18.371,1
0.316702,0.021,1.122,-0.497,-7.873,-15.136,-19.104,1
0.324955,0.028,1.117,-0.525,-8.666,-16.174,-19.836,1
0.332994,0.018,1.131,-0.558,-13.793,-16.54,-20.019,1
0.339563,0.017,1.129,-0.581,-21.423,-16.723,-21.24,1
0.347385,0.024,1.144,-0.615,-30.09,-16.967,-21.911,1
0.355469,0.017,1.163,-0.639,-39.489,-16.967,-22.521,1
0.363925,0.023,1.192,-0.675,-46.508,-17.578,-23.498,1
0.371827,0.041,1.233,-0.717,-49.56,-18.737,-24.414,1
0.378319,0.06,1.268,-0.759,-50.598,-20.202,-25.878,1
0.385602,0.067,1.325,-0.809,-51.696,-21.667,-27.282,1
0.39396,0.061,1.388,-0.871,-54.87,-23.315,-29.235,1
0.402225,0.042,1.452,-0.945,-59.326,-25.085,-31.982,1
0.410574,0.02,1.522,-1.009,-63.72,-28.808,-35.156,1
0.417338,-0.017,1.618,-1.066,-61.523,-32.592,-38.269,1
0.426625,0.008,1.65,-1.104,-55.419,-38.024,-42.541,1
0.433612,0.0,1.689,-1.13,-47.546,-42.053,-46.63,1
0.441752,-0.003,1.691,-1.145,-42.297,-46.752,-51.269,1
0.449827,-0.004,1.674,-1.139,-44.799,-49.377,-54.626,1
0.456818,-0.006,1.652,-1.14,-60.424,-51.33,-59.631,1
0.46524,-0.011,1.641,-1.132,-80.383,-52.673,-63.842,1
0.47367,-0.036,1.611,-1.11,-101.867,-54.626,-67.626,1
0.481828,-0.059,1.608,-1.083,-119.079,-57.495,-71.228,1
0.489886,-0.071,1.584,-1.051,-123.229,-61.645,-74.218,1
0.498239,-0.076,1.525,-0.974,-116.394,-67.016,-76.049,1
0.504967,-0.086,1.486,-0.902,-91.918,-74.157,-77.697,1
0.514198,-0.065,1.41,-0.822,-60.974,-80.444,-79.04,1
0.520888,-0.04,1.303,-0.773,-33.02,-85.571,-79.467,1
0.529137,-0.085,1.204,-0.711,-10.559,-90.515,-80.017,1
0.537488,0.002,1.093,-0.66,-3.417,-92.712,-80.444,1
0.545334,-0.007,1.005,-0.621,-9.826,-93.383,-80.078,1
0.551962,-0.01,0.959,-0.58,-24.536,-92.59,-79.101,1
0.559852,0.005,0.958,-0.552,-38.635,-91.552,-78.247,1
0.566919,0.006,0.959,-0.52,-48.217,-91.491,-77.758,1
0.574975,0.002,0.955,-0.492,-51.696,-91.308,-76.66,1
0.583029,0.0,0.944,-0.479,-51.086,-91.735,-75.744,1
0.590583,-0.002,0.935,-0.456,-48.889,-91.735,-74.829,1
0.5983,0.007,0.909,-0.43,-47.668,-92.163,-74.34,1
0.606977,0.027,0.894,-0.407,-45.043,-91.491,-73.364,1
0.613809,0.016,0.866,-0.391,-43.945,-91.369,-72.509,1
0.621189,0.038,0.854,-0.372,-42.053,-89.965,-71.472,1
0.628518,0.038,0.842,-0.376,-40.893,-89.538,-70.861,1
0.636577,0.029,0.836,-0.369,-42.663,-87.768,-70.068,1
0.644386,0.034,0.842,-0.396,-48.278,-86.059,-69.213,1
0.65255,0.013,0.851,-0.428,-59.692,-84.96,-68.664,1
0.660724,0.022,0.857,-0.465,-75.927,-82.519,-67.199,1
0.667951,-0.004,0.905,-0.5,-98.815,-81.298,-65.795,1
0.67607,-0.024,0.975,-0.546,-115.051,-80.139,-65.124,1
0.68421,-0.013,1.047,-0.58,-120.605,-80.688,-64.392,1
0.692027,0.208,1.142,-0.8,-129.76,-71.411,-63.476,1
0.700196,0.169,1.175,-0.936,-177.429,-76.477,-65.673,1
0.708256,0.219,1.214,-1.027,-211.486,-66.467,-66.101,1
0.715298,0.136,1.306,-1.175,-230.651,-67.871,-68.603,1
0.723315,0.093,1.386,-1.255,-225.952,-67.138,-71.166,1
0.731293,0.071,1.423,-1.368,-212.341,-69.885,-75.134,1
0.738354,0.033,1.442,-1.456,-208.862,-71.411,-77.697,1
0.747524,0.076,1.51,-1.536,-209.777,-75.195,-80.627,1
0.755325,0.081,1.579,-1.539,-206.542,-80.81,-83.19,1
0.763396,0.066,1.654,-1.519,-196.166,-87.829,-84.899,1
0.770376,0.031,1.71,-1.458,-173.95,-98.327,-87.463,1
0.778053,-0.013,1.746,-1.395,-144.897,-108.215,-89.477,1
0.786228,-0.07,1.725,-1.315,-112.426,-118.408,-92.285,1
0.794596,-0.197,1.689,-1.251,-79.284,-126.403,-95.52,1
0.802956,-0.298,1.643,-1.154,-36.193,-136.84,-101.013,1
0.811237,-0.319,1.548,-1.047,0.122,-142.7,-106.994,1
0.819469,-0.324,1.399,-0.95,16.723,-146.118,-113.403,1
0.82587,-0.341,1.201,-0.801,7.934,-146.667,-119.506,1
0.834104,-0.456,1.102,-0.586,-10.498,-146.118,-124.145,1
0.840776,-0.303,0.958,-0.41,-17.456,-145.751,-127.075,1
0.849112,-0.191,0.812,-0.243,-23.864,-146.972,-128.662,1
0.857045,-0.159,0.659,-0.007,-19.226,-145.935,-130.432,1
0.86373,-0.249,0.436,0.102,-11.047,-145.874,-130.92,1
0.872191,-0.128,0.342,0.323,7.934,-141.845,-128.54,1
0.880453,-0.098,0.156,0.388,29.052,-143.371,-128.295,1
0.887063,-0.162,-0.043,0.553,42.419,-136.84,-126.098,1
0.895486,-0.036,-0.253,0.576,38.146,-129.76,-121.948,1
0.903378,0.194,-0.432,0.672,21.667,-121.643,-117.065,1
0.910008,0.324,-0.531,0.691,-8.361,-109.558,-110.107,1
0.918781,0.394,-0.62,0.775,-62.133,-99.487,-101.257,1
0.926958,0.612,-0.604,0.871,-100.097,-83.801,-90.148,1
0.933778,0.782,-0.602,0.962,-107.238,-77.758,-81.542,1
0.94186,1.011,-0.602,1.103,-97.9,-65.673,-71.838,1
0.949845,1.238,-0.567,1.093,-94.604,-56.701,-61.157,1
0.957784,1.321,-0.524,1.134,-104.187,-47.851,-54.565,1
0.965748,1.478,-0.45,1.105,-124.938,-36.499,-45.532,1
0.973746,1.528,-0.297,1.042,-155.151,-24.353,-35.766,1
0.980879,1.497,-0.088,0.944,-175.659,-16.174,-29.602,1
0.989042,1.454,0.123,0.824,-185.791,-9.887,-25.451,1
0.995454,1.366,0.358,0.671,-185.852,-6.103,-23.071,1
1.003545,1.256,0.577,0.513,-177.856,-5.126,-24.108,1
1.011926,1.161,0.787,0.361,-164.855,-5.065,-26.245,1
1.02047,1.013,0.965,0.197,-150.695,-6.042,-30.883,1
1.027497,0.895,1.102,0.042,-148.01,-8.056,-36.254,1
1.035699,0.772,1.227,-0.14,-158.508,-8.728,-42.846,1
1.044182,0.634,1.329,-0.319,-181.701,-12.084,-50.415,1
1.050757,0.489,1.433,-0.517,-215.576,-14.709,-59.814,1
1.058922,0.38,1.516,-0.679,-241.149,-20.812,-68.359,1
1.066851,0.217,1.56,-0.778,-255.737,-30.029,-76.11,1
1.075627,0.123,1.602,-0.86,-252.624,-40.771,-84.106,1
1.083768,-0.036,1.581,-0.933,-232.604,-57.556,-93.261,1
1.091602,-0.298,1.429,-0.959,-216.186,-71.35,-101.562,1
1.099598,-0.518,1.25,-0.996,-218.261,-85.51,-109.863,1
1.107897,-0.629,1.068,-0.986,-237.304,-97.045,-115.905,1
1.115022,-0.746,0.854,-1.033,-260.803,-107.177,-120.605,1
1.122897,-0.958,0.634,-1.103,-284.667,-120.544,-123.657,1
1.131366,-1.169,0.408,-1.118,-295.349,-134.765,-124.023,1
1.138996,-1.294,0.179,-1.16,-280.09,-155.944,-121.704,1
1.146118,-1.448,-0.088,-1.187,-256.286,-175.659,-116.638,1
1.15539,-1.356,-0.331,-1.182,-229.064,-197.326,-109.68,1
1.163414,-1.622,-0.588,-1.116,-166.564,-220.275,-101.135,1
1.17118,-1.689,-0.887,-1.127,-126.464,-242.248,-92.407,1
1.178022,-1.705,-1.286,-1.113,-121.765,-256.958,-80.993,1
1.185976,-2.29,-1.433,-1.098,-176.818,-271.972,-69.335,1
1.194376,-2.506,-1.502,-0.933,-199.707,-288.208,-50.17,1
1.201149,-2.711,-1.614,-0.867,-183.288,-305.358,-31.616,1
1.209366,-2.953,-1.82,-0.874,-166.015,-325.744,-12.023,1
1.217666,-3.29,-1.988,-0.77,-158.874,-343.566,9.277,1
1.225792,-3.659,-2.136,-0.687,-155.7,-363.098,37.231,1
1.232656,-4.003,-2.314,-0.609,-163.208,-378.723,64.27,1
1.240499,-4.32,-2.442,-0.453,-172.424,-391.601,94.299,1
1.248453,-4.714,-2.531,-0.307,-178.833,-404.235,127.929,1
1.25633,-5.142,-2.616,-0.103,-176.391,-416.32,163.635,1
1.264648,-5.616,-2.734,0.139,-167.968,-425.781,202.087,1
1.272419,-6.042,-2.765,0.361,-166.564,-431.945,242.431,1
1.279013,-6.666,-2.827,0.655,-169.616,-434.814,285.4,1
1.286682,-7.362,-2.877,0.953,-187.561,-431.762,330.322,1
1.295118,-7.956,-2.922,1.265,-215.881,-423.156,378.845,1
1.303381,-8.561,-2.942,1.629,-246.643,-404.357,440.307,1
1.311646,-9.132,-2.917,1.968,-267.456,-381.469,497.07,1
1.318628,-9.743,-2.911,2.327,-295.288,-350.036,556.945,1
1.326833,-10.451,-2.86,2.646,-342.102,-304.931,619.873,1
1.334894,-11.417,-2.662,2.963,-399.597,-249.938,685.302,1
1.341878,-12.385,-2.401,3.206,-454.04,-168.762,761.413,1
1.350297,-13.485,-2.027,3.293,-488.342,-89.294,823.181,1
1.358276,-14.726,-1.538,3.3,-507.202,-2.685,878.845,1
1.364981,-15.999,-0.89,3.141,-501.342,85.998,926.086,1
1.372689,-15.999,-0.264,2.883,-474.67,171.142,963.867,1
1.381092,-15.999,0.343,2.535,-460.632,257.995,994.018,1
1.388492,-15.999,0.925,2.3,-454.772,341.003,1014.587,1
1.396696,-15.999,1.567,2.049,-439.086,426.696,1026.428,1
1.403286,-15.999,2.128,1.545,-435.18,506.652,1030.151,1
1.411263,-15.999,2.522,1.19,-434.143,596.923,1025.451,1
1.418386,-15.999,2.935,0.845,-418.09,667.663,1014.282,1
1.426644,-15.999,3.073,0.627,-413.391,724.67,1000.244,1
1.434166,-15.999,3.235,0.273,-475.036,803.222,976.257,1
1.442291,-15.999,3.443,-0.051,-601.745,903.015,928.222,1
1.449763,-15.999,3.607,-0.497,-675.537,1001.098,872.375,1
1.458366,-15.999,3.917,-1.016,-708.923,1071.533,802.307,1
1.464778,-15.999,3.767,-1.245,-748.474,1140.502,714.965,1
1.472417,-15.999,3.438,-1.798,-869.14,1200.256,606.384,1
1.480553,-15.999,3.321,-2.396,-977.6,1255.676,473.022,1
1.488075,-15.999,3.345,-3.102,-1016.601,1279.235,321.655,1
1.494978,-15.999,2.795,-3.647,-1076.294,1281.86,160.339,1
1.502539,-15.999,2.161,-3.937,-1160.461,1267.028,-4.699,1
1.512172,-15.999,1.911,-3.945,-1176.452,1211.792,-170.593,1
1.519305,-15.999,1.644,-3.4,-1050.964,1129.821,-316.101,1
1.52622,-15.999,1.101,-3.153,-828.979,1017.15,-438.842,1
1.534427,-15.999,0.687,-3.051,-668.457,923.339,-507.995,1
1.541361,-15.999,0.203,-3.095,-570.922,830.322,-552.795,1
1.549901,-15.999,-0.184,-2.902,-502.319,748.107,-582.458,1
1.558199,-14.928,-0.536,-2.836,-441.04,673.095,-598.693,1
1.565805,-13.255,-0.984,-2.729,-401.794,591.125,-606.323,1
1.573938,-12.144,-1.325,-2.638,-398.498,531.982,-605.041,1
1.581698,-10.761,-1.642,-2.504,-409.973,471.374,-600.83,1
1.589977,-9.613,-1.827,-2.279,-419.311,417.175,-592.102,1
1.598015,-8.58,-1.823,-2.056,-405.639,352.233,-576.843,1
1.606018,-7.887,-1.917,-1.9,-367.98,302.124,-560.546,1
1.613927,-7.031,-2.028,-1.861,-315.979,245.3,-532.775,1
1.621531,-6.369,-2.012,-1.74,-251.77,198.608,-508.972,1
1.629818,-5.56,-2.135,-1.668,-186.096,160.766,-482.299,1
1.637794,-4.919,-2.207,-1.636,-130.981,124.084,-449.707,1
1.646239,-4.434,-2.184,-1.535,-111.694,98.999,-421.813,1
1.653696,-3.954,-2.199,-1.488,-105.163,78.552,-393.798,1
1.662115,-3.515,-2.083,-1.354,-90.515,57.006,-363.586,1
1.669688,-3.205,-1.986,-1.29,-74.035,41.809,-338.134,1
1.67773,-2.957,-1.865,-1.213,-67.687,28.015,-314.758,1
1.685383,-2.805,-1.773,-1.17,-72.448,18.371,-292.358,1
1.693882,-2.625,-1.664,-1.152,-79.956,5.371,-268.066,1
1.701542,-2.43,-1.57,-1.09,-68.908,-6.103,-248.413,1
1.709747,-2.216,-1.508,-1.056,-43.701,-17.822,-229.553,1
1.717523,-2.005,-1.477,-1.001,-20.08,-27.404,-211.914,1
1.726309,-1.853,-1.466,-0.966,-4.638,-35.522,-191.711,1
1.734238,-1.648,-1.452,-0.936,3.784,-41.931,-172.302,1
1.742322,-1.442,-1.431,-0.901,10.192,-45.654,-156.433,1
1.750792,-1.269,-1.403,-0.875,12.145,-48.095,-141.235,1
1.758676,-1.105,-1.345,-0.858,3.112,-49.133,-124.511,1
1.76675,-0.976,-1.272,-0.842,-8.3,-49.377,-110.778,1
1.774689,-0.828,-1.173,-0.833,-19.104,-49.377,-95.886,1
1.782602,-0.685,-1.074,-0.832,-25.817,-49.804,-83.74,1
1.792452,-0.596,-0.978,-0.822,-30.151,-50.354,-70.556,1
1.80027,-0.499,-0.874,-0.822,-30.761,-51.696,-60.546,1
1.808566,-0.403,-0.781,-0.802,-26.489,-53.588,-49.072,1
1.815907,-0.321,-0.675,-0.78,-15.869,-55.541,-38.879,1
1.824291,-0.239,-0.602,-0.772,-6.408,-56.945,-31.005,1
1.832539,-0.165,-0.534,-0.76,-0.976,-57.922,-23.864,1
1.840543,-0.121,-0.475,-0.751,-2.014,-57.25,-16.113,1
1.848829,-0.093,-0.417,-0.769,-8.728,-56.762,-10.253,1
1.856547,-0.054,-0.345,-0.755,-18.554,-55.847,-5.31,1
1.865751,-0.022,-0.296,-0.748,-27.16,-54.809,-1.22,1
1.873549,0.005,-0.252,-0.741,-38.574,-52.917,2.441,1
1.881868,0.026,-0.213,-0.737,-48.889,-51.635,6.225,1
1.888758,0.062,-0.181,-0.741,-54.504,-51.391,8.728,1
1.897715,0.101,-0.173,-0.737,-55.969,-50.842,11.047,1
1.906386,0.147,-0.171,-0.736,-53.527,-51.33,13.427,1
1.912885,0.175,-0.172,-0.719,-47.973,-51.147,15.747,1
1.920624,0.189,-0.19,-0.714,-42.907,-51.025,18.31,1
1.928772,0.172,-0.199,-0.7,-39.672,-50.598,21.118,1
1.937103,0.266,-0.238,-0.707,-37.658,-49.133,23.559,1
1.944006,0.265,-0.261,-0.698,-39.978,-47.79,26.794,1
1.9511,0.314,-0.265,-0.693,-43.029,-45.654,29.724,1
1.959251,0.362,-0.253,-0.699,-42.602,-44.799,32.47,1
1.966373,0.402,-0.255,-0.691,-41.015,-43.395,34.729,1
1.974283,0.426,-0.261,-0.716,-40.832,-42.48,37.78,1
1.982516,0.444,-0.261,-0.723,-39.611,-41.809,40.893,1
1.991226,0.482,-0.267,-0.728,-35.522,-41.076,44.921,1
1.999163,0.484,-0.305,-0.721,-35.522,-40.71,48.706,1
2.007506,0.504,-0.336,-0.704,-34.057,-40.344,53.222,1
2.015343,0.59,-0.33,-0.665,-18.615,-40.222,58.593,1
2.023028,0.659,-0.376,-0.659,-12.573,-40.954,62.255,1
2.031291,0.645,-0.386,-0.627,-10.437,-39.855,66.772,1
2.037819,0.604,-0.346,-0.598,-9.582,-39.367,70.983,1
2.045979,0.516,-0.276,-0.574,22.827,-38.146,69.58,1
2.052887,0.504,-0.326,-0.578,33.63,-44.799,75.805,1
2.060954,0.565,-0.342,-0.515,25.573,-39.733,80.383,1
2.068983,0.614,-0.326,-0.533,7.08,-39.611,83.435,1
2.076825,0.55,-0.299,-0.501,-12.329,-36.56,87.646,1
2.08488,0.546,-0.314,-0.514,-37.536,-32.653,93.505,1
2.091628,0.554,-0.27,-0.461,-56.152,-29.235,98.449,1
2.099687,0.556,-0.238,-0.472,-65.979,-26.367,102.966,1
2.107521,0.507,-0.192,-0.425,-68.115,-25.695,106.872,1
2.115904,0.485,-0.207,-0.417,-60.424,-24.841,111.877,1
2.122947,0.464,-0.222,-0.393,-53.894,-25.268,116.455,1
2.131381,0.457,-0.255,-0.354,-47.424,-25.146,121.887,1
2.139091,0.466,-0.289,-0.362,-39.245,-24.047,127.319,1
2.145998,0.489,-0.321,-0.357,-37.78,-21.85,132.08,1
2.154224,0.488,-0.363,-0.363,-54.321,-18.127,136.535,1
2.162577,0.456,-0.402,-0.372,-90.881,-12.756,141.235,1
2.170695,0.459,-0.347,-0.373,-128.295,-4.76,147.705,1
2.177212,0.542,-0.338,-0.366,-161.682,1.77,154.663,1
2.185567,0.508,-0.235,-0.437,-182.861,7.324,160.461,1
2.19255,0.425,-0.106,-0.468,-188.049,9.094,164.306,1
2.201245,0.339,-0.015,-0.498,-175.415,12.023,167.297,1
2.207909,0.278,0.049,-0.553,-153.442,9.521,169.128,1
2.216748,0.256,0.087,-0.547,-122.009,8.483,171.02,1
2.223051,0.23,0.115,-0.585,-90.515,5.92,172.546,1
2.230857,0.196,0.136,-0.594,-64.331,4.028,174.194,1
2.238526,0.152,0.131,-0.617,-49.194,2.319,175.598,1
2.246416,0.123,0.128,-0.621,-43.579,0.976,177.612,1
2.253125,0.124,0.135,-0.638,-43.151,0.61,179.748,1
2.260772,0.145,0.147,-0.64,-44.372,0.183,182.25,1
2.269016,0.143,0.177,-0.663,-45.288,-0.244,184.997,1
2.27681,0.101,0.227,-0.683,-44.311,-1.77,187.683,1
2.28341,0.079,0.287,-0.719,-37.231,-3.234,190.124,1
2.291185,0.075,0.346,-0.769,-26.184,-6.164,192.26,1
2.298349,0.051,0.387,-0.808,-16.296,-9.887,193.664,1
2.306224,0.033,0.415,-0.83,-8.178,-14.038,195.312,1
2.313312,0.022,0.428,-0.836,-1.525,-18.493,196.777,1
2.321497,0.018,0.432,-0.814,3.356,-22.46,198.486,1
2.328159,0.016,0.459,-0.808,7.507,-25.329,199.768,1
2.334893,0.01,0.515,-0.82,13.61,-29.602,201.416,1
2.342718,-0.042,0.57,-0.821,18.249,-34.057,202.514,1
2.349807,-0.097,0.622,-0.825,18.554,-38.146,203.063,1
2.357848,-0.166,0.683,-0.815,15.136,-41.076,203.063,1
2.365929,-0.248,0.739,-0.794,8.605,-44.982,202.636,1
2.373266,-0.274,0.799,-0.769,5.432,-47.363,202.148,1
2.381112,-0.259,0.892,-0.772,9.948,-49.926,201.354,1
2.389881,-0.243,0.957,-0.779,17.456,-54.382,200.622,1
2.395836,-0.213,1.002,-0.76,20.568,-57.678,199.035,1
2.404172,-0.187,1.074,-0.734,13.488,-59.509,197.814,1
2.412483,-0.192,1.153,-0.724,-2.502,-60.546,195.8,1
2.418923,-0.184,1.244,-0.685,-21.85,-60.791,193.237,1
2.42746,-0.151,1.332,-0.653,-35.644,-61.157,189.88,1
2.434437,-0.124,1.393,-0.607,-38.757,-62.194,186.462,1
2.442759,-0.098,1.478,-0.58,-31.799,-62.866,182.922,1
2.450523,-0.066,1.552,-0.595,-14.343,-65.673,177.978,1
2.458792,-0.078,1.589,-0.617,1.159,-69.091,173.583,1
2.465937,-0.09,1.646,-0.645,10.131,-71.228,167.846,1
2.474023,-0.11,1.655,-0.652,8.789,-73.12,161.926,1
2.481081,-0.108,1.683,-0.667,0.976,-73.608,155.517,1
2.489611,-0.105,1.705,-0.655,-3.417,-75.073,149.292,1
2.495895,-0.068,1.7,-0.634,2.136,-76.965,143.737,1
2.504272,-0.02,1.673,-0.612,13.427,-80.078,138.916,1
2.511273,0.018,1.638,-0.597,22.277,-81.909,134.643,1
2.519025,0.046,1.616,-0.592,26.611,-83.984,130.31,1
2.527379,0.064,1.606,-0.587,28.808,-85.754,126.892,1
2.533859,0.08,1.591,-0.588,30.883,-87.28,122.863,1
2.541952,0.074,1.556,-0.583,31.616,-88.806,119.262,1
2.549353,0.079,1.504,-0.563,25.39,-89.66,115.722,1
2.555847,0.094,1.462,-0.525,12.145,-88.867,113.159,1
2.562738,0.095,1.433,-0.509,-8.666,-87.463,110.656,1
2.570809,0.157,1.318,-0.459,-34.057,-86.853,110.778,1
2.579137,0.166,1.438,-0.443,-25.329,-85.388,106.201,1
2.587274,0.14,1.489,-0.378,-2.136,-87.829,103.027,1
2.593791,0.185,1.428,-0.407,11.108,-88.806,100.524,1
2.602355,0.166,1.376,-0.367,14.648,-90.454,97.167,1
2.610526,0.175,1.314,-0.345,13.977,-89.477,94.726,1
2.618227,0.175,1.247,-0.332,8.85,-89.416,91.857,1
2.624795,0.187,1.188,-0.302,6.408,-88.134,90.393,1
2.632843,0.234,1.164,-0.308,5.737,-87.524,89.66,1
2.639662,0.217,1.109,-0.316,1.037,-86.975,88.928,1
2.647872,0.252,1.243,-0.283,-13.0,-83.923,89.233,1
2.655991,0.191,1.148,-0.322,-5.981,-87.402,88.012,1
2.662425,0.154,1.127,-0.271,6.347,-85.388,86.975,1
2.670721,0.158,1.059,-0.328,8.239,-87.707,86.791,1
2.677604,0.075,1.0,-0.298,8.239,-88.012,85.937,1
2.686261,0.109,0.94,-0.302,8.789,-88.134,85.876,1
2.69321,0.081,0.9,-0.306,10.681,-89.599,85.449,1
2.701504,0.083,0.901,-0.3,10.375,-89.477,85.693,1
2.708204,0.062,0.934,-0.325,3.723,-90.27,84.716,1
2.71653,0.06,0.994,-0.3,-1.098,-90.515,83.557,1
2.72297,0.025,1.031,-0.292,-5.859,-91.003,81.848,1
2.731489,-0.008,1.063,-0.272,-8.422,-91.186,80.261,1
2.739371,-0.019,1.082,-0.261,-10.07,-91.918,78.369,1
2.745956,-0.016,1.093,-0.218,-17.028,-91.552,78.308,1
2.754596,-0.059,1.048,-0.253,-8.239,-93.444,74.646,1
2.76157,-0.103,1.056,-0.167,6.042,-93.627,72.204,1
2.770852,-0.096,0.986,-0.197,11.047,-94.848,70.556,1
2.779239,-0.136,0.918,-0.165,10.253,-95.214,68.542,1
2.785506,-0.114,0.853,-0.179,8.483,-94.299,68.054,1
2.792582,-0.07,0.812,-0.203,8.972,-94.665,67.443,1
2.800664,-0.015,0.759,-0.218,12.39,-94.055,67.993,1
2.808994,0.025,0.716,-0.256,15.93,-94.238,68.969,1
2.816838,0.097,0.697,-0.276,20.141,-94.665,70.434,1
2.823392,0.172,0.686,-0.299,26.794,-94.604,72.937,1
2.831274,0.215,0.7,-0.323,31.555,-95.092,75.5,1
2.838136,0.273,0.735,-0.345,35.4,-94.726,78.369,1
2.846168,0.325,0.784,-0.376,38.452,-95.092,80.749,1
2.852807,0.343,0.834,-0.404,41.748,-95.947,83.312,1
2.860802,0.349,0.89,-0.431,44.372,-96.984,85.266,1
2.867436,0.294,0.962,-0.458,44.128,-98.388,86.975,1
2.874436,0.25,1.028,-0.457,40.405,-100.708,87.829,1
2.882699,0.178,1.102,-0.432,37.536,-102.233,88.439,1
2.889358,0.108,1.164,-0.415,36.437,-104.614,88.012,1
2.897295,0.024,1.222,-0.372,36.01,-107.36,86.914,1
2.90384,-0.035,1.267,-0.33,33.996,-109.68,84.777,1
2.911693,-0.08,1.311,-0.288,31.188,-111.694,82.58,1
2.920305,-0.122,1.339,-0.228,30.578,-114.013,79.833,1
2.928214,-0.162,1.357,-0.168,32.531,-115.905,77.087,1
2.935005,-0.202,1.333,-0.12,31.005,-117.248,74.584,1
2.942656,-0.13,1.49,-0.039,9.948,-115.844,74.035,1
2.951298,-0.169,1.349,-0.046,7.324,-118.225,71.777,1
2.95794,-0.218,1.415,0.066,27.404,-117.187,67.504,1
2.966279,-0.233,1.272,0.02,34.912,-118.896,66.101,1
2.974197,-0.13,1.423,0.108,18.432,-115.539,63.415,1
2.982419,-0.137,1.321,0.099,13.854,-117.919,64.147,1
2.988591,-0.15,1.319,0.163,15.808,-116.149,63.72,1
2.996844,-0.133,1.275,0.146,16.967,-116.21,63.659,1
3.003664,-0.128,1.221,0.198,22.216,-115.783,61.767,1
3.011469,-0.13,1.197,0.215,15.563,-114.135,61.584,1
3.018521,-0.094,1.177,0.246,2.563,-110.961,60.729,1
3.026822,-0.109,1.215,0.281,-9.216,-107.604,60.119,1
3.034884,-0.109,1.272,0.304,-13.488,-104.309,59.204,1
3.041329,-0.089,1.315,0.327,-2.319,-102.111,56.396,1
3.050008,-0.061,1.319,0.336,11.84,-100.463,53.955,1
3.056369,-0.035,1.354,0.339,31.249,-99.121,50.354,1
3.064396,-0.069,1.351,0.346,50.659,-98.632,46.508,1
3.072341,-0.076,1.328,0.338,66.345,-97.9,41.931,1
3.079316,-0.078,1.294,0.352,68.115,-96.313,39.489,1
3.087632,-0.071,1.266,0.359,59.631,-93.078,35.888,1
3.095647,-0.065,1.244,0.369,43.334,-88.989,32.958,1
3.102711,-0.07,1.244,0.385,27.893,-84.594,31.066,1
3.109882,-0.064,1.243,0.38,17.822,-81.054,29.357,1
3.117868,-0.05,1.249,0.384,13.793,-78.063,28.259,1
3.124614,-0.048,1.252,0.377,13.854,-74.89,26.306,1
3.132261,-0.02,1.24,0.368,16.113,-72.082,24.719,1
3.140173,-0.019,1.233,0.349,18.737,-69.763,23.437,1
3.147958,-0.017,1.214,0.329,21.179,-66.894,21.362,1
3.155234,-0.018,1.196,0.301,22.644,-64.941,19.897,1
3.163477,-0.025,1.184,0.281,22.521,-62.561,18.31,1
3.170277,-0.034,1.189,0.253,22.155,-60.729,17.028,1
3.17855,-0.05,1.19,0.232,22.155,-58.898,15.38,1
3.185271,-0.052,1.172,0.208,20.996,-57.128,13.793,1
3.193676,-0.041,1.159,0.195,18.249,-55.419,12.145,1
3.200662,-0.042,1.142,0.181,14.77,-53.71,10.803,1
3.208974,-0.048,1.12,0.171,10.986,-51.574,9.521,1
3.215408,-0.05,1.101,0.16,6.774,-50.048,8.728,1
3.223665,-0.058,1.086,0.146,3.662,-48.95,8.117,1
3.230574,-0.063,1.079,0.14,1.22,-47.79,7.751,1
3.240069,-0.07,1.076,0.129,1.403,-47.241,7.446,1
3.246473,-0.081,1.085,0.132,7.263,-47.241,7.568,1
3.254674,-0.093,1.056,0.111,10.131,-48.4,7.08,1
3.261211,-0.095,1.05,0.119,10.62,-47.363,6.53,1
3.268031,-0.092,1.054,0.097,9.948,-47.668,6.103,1
3.275984,-0.094,1.058,0.104,11.169,-47.668,5.371,1
3.282884,-0.081,1.054,0.095,17.211,-47.912,4.943,1
3.289938,-0.049,1.049,0.086,27.099,-49.072,4.821,1
3.297456,-0.027,1.024,0.083,39.184,-50.17,4.394,1
3.305447,-0.053,1.015,0.061,46.691,-50.903,4.089,1
3.312152,-0.047,1.009,0.057,49.865,-51.635,3.906,1
3.319204,-0.062,1.002,0.05,51.208,-51.818,4.028,1
3.326822,-0.001,0.995,0.052,53.161,-52.49,4.577,1
3.335219,-0.057,1.006,0.06,55.908,-53.283,5.187,1
3.3422,-0.034,0.995,0.072,53.649,-53.771,5.676,1
3.350552,-0.063,0.939,0.076,45.715,-52.307,7.263,1
3.358488,-0.031,0.966,0.085,37.475,-51.757,9.521,1
3.365114,0.011,0.995,0.102,48.95,-52.062,10.925,1
3.372076,-0.015,1.019,0.107,66.528,-53.466,12.329,1
3.380853,-0.01,1.056,0.103,89.416,-54.565,13.305,1
3.387341,0.02,1.071,0.093,108.947,-55.908,14.587,1
3.395558,-0.059,1.122,0.085,125.366,-56.762,15.808,1
3.403509,-0.105,1.197,0.081,140.197,-57.067,16.601,1
3.410485,-0.055,1.261,0.072,145.507,-57.067,16.845,1
3.418975,-0.048,1.326,0.085,141.967,-55.48,16.479,1
3.425312,-0.053,1.393,0.085,129.333,-52.917,15.686,1
3.433302,-0.017,1.461,0.086,110.595,-50.842,14.465,1
3.43998,0.002,1.52,0.108,88.745,-47.607,13.0,1
3.447735,0.0,1.61,0.111,65.673,-44.799,11.23,1
3.454943,0.009,1.711,0.133,42.419,-41.931,8.178,1
3.462892,0.044,1.802,0.135,19.714,-38.696,4.943,1
3.471197,0.083,1.898,0.138,-6.53,-35.705,0.61,1
3.479055,0.106,1.982,0.149,-28.137,-32.531,-2.99,1
3.486639,0.122,2.062,0.114,-59.326,-27.282,-8.483,1
3.493213,0.158,2.172,0.065,-83.74,-24.169,-13.977,1
3.501844,0.129,2.338,0.009,-96.74,-22.277,-20.568,1
3.508318,0.119,2.46,-0.069,-104.858,-21.972,-28.32,1
3.516448,0.12,2.553,-0.127,-112.182,-22.033,-37.475,1
3.524855,0.099,2.625,-0.186,-121.093,-22.399,-46.569,1
3.531398,0.095,2.677,-0.221,-128.54,-23.498,-56.396,1
3.539199,0.046,2.721,-0.249,-132.385,-24.963,-66.223,1
3.547453,-0.017,2.731,-0.291,-138.183,-27.343,-76.293,1
3.555488,-0.058,2.729,-0.316,-144.409,-29.907,-87.097,1
3.563846,-0.165,2.718,-0.363,-146.118,-33.63,-95.764,1
3.57296,-0.126,2.705,-0.381,-144.287,-38.085,-104.797,1
3.581108,-0.175,2.659,-0.417,-133.239,-41.503,-114.013,1
3.588659,-0.239,2.595,-0.508,-128.967,-46.874,-121.52,1
3.59581,-0.317,2.506,-0.491,-125.549,-51.513,-128.906,1
3.604189,-0.352,2.416,-0.53,-127.868,-54.626,-133.85,1
3.61197,-0.414,2.344,-0.522,-136.291,-59.204,-138.061,1
3.621537,-0.481,2.272,-0.485,-138.427,-61.95,-140.686,1
3.628079,-0.544,2.205,-0.469,-130.493,-68.176,-143.615,1
3.635865,-0.696,2.161,-0.403,-113.037,-72.448,-145.019,1
3.644194,-0.558,1.994,-0.466,-93.444,-76.721,-147.277,1
3.652488,-0.698,1.981,-0.404,-95.031,-79.345,-148.803,1
3.65917,-0.642,1.991,-0.476,-98.632,-81.42,-150.939,1
3.667279,-0.621,1.911,-0.455,-115.661,-85.876,-153.564,1
3.675367,-0.674,1.917,-0.451,-120.483,-86.486,-155.883,1
3.683395,-0.608,1.895,-0.434,-118.408,-93.566,-158.508,1
3.690018,-0.604,1.827,-0.389,-127.807,-95.52,-160.034,1
3.698276,-0.573,1.775,-0.392,-151.428,-98.205,-160.156,1
3.704973,-0.588,1.787,-0.35,-175.598,-102.172,-160.461,1
3.712632,-0.575,1.817,-0.303,-183.776,-107.543,-160.4,1
3.720604,-0.542,1.864,-0.231,-178.527,-114.196,-159.973,1
3.729047,-0.562,1.958,-0.196,-174.987,-118.347,-159.851,1
3.737133,-0.626,2.079,-0.201,-185.729,-124.999,-161.865,1
3.745284,-0.682,2.262,-0.163,-187.499,-129.943,-164.184,1
3.753375,-0.763,2.385,-0.192,-185.485,-138.0,-169.616,1
3.759638,-0.88,2.487,-0.142,-188.476,-144.836,-175.109,1
3.767722,-0.945,2.597,-0.116,-176.33,-152.404,-182.128,1
3.776225,-0.994,2.619,-0.078,-159.24,-161.865,-190.307,1
3.782848,-1.117,2.608,-0.021,-151.611,-166.992,-198.974,1
3.790731,-1.172,2.572,-0.032,-151.916,-173.767,-208.129,1
3.798723,-1.266,2.496,-0.014,-161.01,-179.443,-216.613,1
3.805267,-1.361,2.433,-0.002,-176.452,-185.363,-224.67,1
3.813368,-1.488,2.354,0.026,-194.641,-191.284,-232.177,1
3.820083,-1.615,2.251,0.062,-210.144,-197.57,-239.074,1
3.828092,-1.74,2.107,0.075,-221.74,-203.369,-244.262,1
3.835091,-1.857,1.946,0.084,-233.276,-211.242,-249.511,1
3.843034,-1.99,1.797,0.097,-231.75,-221.069,-253.784,1
3.850937,-2.178,1.632,0.118,-214.05,-233.52,-257.69,1
3.859071,-2.277,1.439,0.129,-191.589,-244.934,-260.498,1
3.865757,-2.426,1.211,0.147,-178.1,-254.699,-263.305,1
3.8742,-2.608,1.008,0.157,-172.119,-263.061,-264.77,1
3.880837,-2.79,0.849,0.163,-164.489,-272.277,-265.38,1
3.888934,-2.972,0.691,0.172,-149.719,-281.066,-264.831,1
3.897323,-3.151,0.545,0.151,-132.751,-289.184,-264.404,1
3.903677,-3.337,0.379,0.145,-110.534,-298.584,-264.221,1
3.911958,-3.494,0.176,0.12,-90.332,-309.387,-262.573,1
3.920318,-3.562,-0.024,0.127,-75.683,-318.115,-260.07,1
3.929234,-3.692,-0.196,0.139,-53.466,-326.416,-257.507,1
3.935751,-3.83,-0.429,0.198,-18.615,-338.073,-252.99,1
3.943827,-3.889,-0.595,0.286,16.723,-345.52,-249.023,1
3.95186,-4.055,-0.88,0.297,46.02,-352.722,-243.347,1
3.959792,-4.017,-1.149,0.357,66.955,-355.163,-237.06,1
3.967867,-4.102,-1.435,0.365,74.157,-359.374,-229.797,1
3.975886,-4.236,-1.839,0.483,71.228,-361.877,-220.153,1
3.982682,-4.187,-2.212,0.577,63.11,-361.755,-207.458,1
3.990552,-4.138,-2.657,0.748,48.767,-364.44,-192.749,1
3.998424,-4.101,-3.173,0.988,14.038,-361.328,-169.006,1
4.006665,-3.985,-3.631,1.172,-12.451,-359.619,-142.761,1
4.014585,-3.854,-4.19,1.503,-25.146,-358.276,-109.863,1
4.023137,-3.667,-4.644,1.704,-21.301,-355.285,-64.27,1
4.029543,-3.717,-5.042,1.965,-22.033,-351.867,-21.423,1
4.03791,-3.797,-5.347,2.161,-44.799,-342.773,25.085,1
4.044574,-3.944,-5.531,2.365,-72.204,-332.641,74.584,1
4.052803,-4.189,-5.719,2.583,-106.994,-318.969,127.441,1
4.061305,-4.417,-5.939,2.865,-158.569,-299.56,184.753,1
4.069239,-4.734,-6.006,3.122,-205.139,-272.583,257.995,1
4.075779,-5.02,-6.138,3.382,-240.356,-242.736,324.707,1
4.083905,-5.325,-6.171,3.62,-288.146,-203.002,395.141,1
4.091827,-5.922,-5.953,3.843,-314.514,-158.325,466.674,1
4.099568,-6.69,-5.713,4.017,-335.815,-107.36,537.536,1
4.106553,-7.495,-5.409,4.147,-354.186,-48.217,606.811,1
4.114729,-8.479,-4.929,4.234,-363.708,16.662,673.034,1
4.121485,-9.671,-4.355,4.209,-363.708,86.853,734.069,1
4.128876,-11.109,-3.72,4.052,-374.511,162.353,789.245,1
4.137278,-12.692,-2.959,3.76,-398.193,245.178,836.73,1
4.144836,-14.315,-2.107,3.355,-416.686,330.017,874.328,1
4.15146,-15.912,-1.299,2.881,-423.889,402.404,898.315,1
4.15938,-15.993,-0.665,2.448,-427.551,487.731,918.029,1
4.166431,-15.999,0.047,1.941,-425.415,570.068,926.757,1
4.174804,-15.999,0.853,1.388,-418.395,649.291,927.062,1
4.181679,-15.999,1.519,1.062,-410.461,718.688,916.748,1
4.188856,-15.999,1.938,0.938,-384.765,792.297,897.949,1
4.19681,-15.999,2.33,0.481,-388.244,854.919,872.741,1
4.203486,-15.999,2.698,0.236,-393.615,922.363,842.59,1
4.212041,-15.999,2.978,0.006,-388.183,983.154,811.035,1
4.220155,-15.999,3.051,-0.291,-419.555,1041.748,775.878,1
4.227949,-15.999,3.152,-0.668,-486.328,1102.111,732.116,1
4.234555,-15.999,3.485,-1.009,-528.503,1156.799,680.419,1
4.242955,-15.999,3.848,-1.412,-541.076,1205.2,612.731,1
4.250015,-15.999,4.127,-1.934,-592.529,1253.967,538.085,1
4.257483,-15.999,4.882,-2.419,-599.609,1292.236,429.931,1
4.265725,-15.999,5.029,-3.562,-574.768,1299.255,345.214,1
4.273526,-15.999,4.754,-4.45,-641.479,1286.01,217.956,1
4.281904,-15.999,4.401,-5.434,-779.418,1280.395,92.407,1
4.288296,-15.999,3.824,-5.999,-948.12,1229.065,-52.185,1
4.29603,-15.999,3.399,-5.699,-973.693,1172.485,-198.791,1
4.30428,-15.999,2.686,-5.531,-854.675,1080.017,-326.171,1
4.31076,-15.999,1.786,-5.369,-670.654,981.689,-416.503,1
4.318796,-15.999,0.871,-5.601,-512.39,880.432,-470.397,1
4.326986,-15.996,0.041,-5.686,-421.936,784.24,-501.22,1
4.333372,-14.431,-0.643,-5.607,-386.535,702.27,-519.348,1
4.341559,-12.507,-1.287,-5.401,-401.428,626.098,-529.357,1
4.349902,-11.006,-1.603,-5.097,-435.18,557.189,-536.987,1
4.356762,-9.638,-1.738,-4.692,-442.871,483.52,-540.954,1
4.364947,-8.378,-1.9,-4.234,-422.058,411.804,-539.733,1
4.37308,-7.5,-2.005,-3.796,-383.3,347.228,-532.897,1
4.381258,-6.512,-2.191,-3.47,-364.746,272.216,-517.456,1
4.389268,-5.78,-2.168,-3.01,-339.599,219.909,-499.328,1
4.39777,-5.187,-2.105,-2.685,-315.795,161.193,-475.646,1
4.404431,-4.741,-2.073,-2.398,-279.113,118.713,-452.636,1
4.413049,-4.375,-2.016,-2.212,-237.609,76.843,-428.955,1
4.421457,-3.967,-1.969,-1.951,-180.541,42.541,-404.724,1
4.428483,-3.519,-1.965,-1.786,-120.788,9.643,-378.417,1
4.436407,-3.173,-1.982,-1.589,-91.735,-9.765,-354.431,1
4.444305,-2.815,-1.965,-1.482,-87.646,-25.573,-330.627,1
4.452154,-2.519,-1.897,-1.314,-95.52,-39.062,-307.189,1
4.460255,-2.35,-1.76,-1.179,-99.609,-48.522,-284.729,1
4.468775,-2.176,-1.688,-1.049,-107.055,-58.288,-262.207,1
4.475153,-1.911,-1.604,-0.967,-102.6,-68.176,-236.755,1
4.483489,-1.666,-1.542,-0.836,-89.782,-77.453,-216.003,1
4.491901,-1.449,-1.515,-0.727,-79.711,-81.604,-194.946,1
4.499761,-1.28,-1.449,-0.646,-79.467,-86.547,-175.17,1
4.508228,-1.117,-1.329,-0.543,-72.631,-88.867,-153.259,1
4.516021,-0.953,-1.274,-0.489,-62.377,-92.163,-135.62,1
4.522795,-0.924,-1.228,-0.411,-59.814,-92.041,-118.408,1
4.531292,-0.901,-1.128,-0.367,-62.988,-90.698,-103.332,1
4.539927,-0.861,-1.036,-0.312,-76.293,-88.439,-86.669,1
4.547837,-0.756,-0.951,-0.293,-83.862,-84.838,-72.692,1
4.554728,-0.619,-0.837,-0.27,-80.566,-84.411,-59.387,1
4.562714,-0.514,-0.788,-0.253,-67.749,-82.397,-46.447,1
4.570777,-0.386,-0.75,-0.244,-58.959,-80.322,-32.287,1
4.577398,-0.3,-0.685,-0.237,-57.373,-76.477,-20.446,1
4.585436,-0.243,-0.629,-0.257,-63.354,-73.181,-9.277,1
4.593607,-0.208,-0.572,-0.246,-70.678,-68.42,0.915,1
4.60015,-0.163,-0.516,-0.262,-75.622,-65.307,9.094,1
4.608117,-0.115,-0.472,-0.257,-73.242,-61.157,18.859,1
4.616148,-0.038,-0.446,-0.265,-72.326,-58.715,27.77,1
4.624262,0.014,-0.428,-0.265,-73.547,-54.87,36.132,1
4.632527,0.076,-0.396,-0.279,-77.758,-51.391,44.494,1
4.63882,0.089,-0.363,-0.278,-84.228,-47.363,52.612,1
4.64596,0.098,-0.343,-0.293,-94.97,-42.419,61.218,1
4.65401,0.089,-0.286,-0.305,-104.431,-38.696,67.504,1
4.6617,0.096,-0.237,-0.321,-112.243,-34.545,75.134,1
4.668402,0.126,-0.198,-0.333,-115.356,-31.982,81.726,1
4.676428,0.153,-0.175,-0.331,-116.149,-27.404,88.623,1
4.684952,0.168,-0.15,-0.372,-117.492,-23.742,96.862,1
4.692901,0.173,-0.12,-0.391,-114.562,-20.568,103.332,1
4.699851,0.166,-0.079,-0.413,-106.079,-19.042,109.191,1
4.708343,0.164,-0.055,-0.427,-93.749,-18.005,114.501,1
4.716615,0.194,-0.053,-0.45,-81.115,-17.089,120.422,1
4.723665,0.213,-0.062,-0.459,-77.636,-15.624,125.976,1
4.73211,0.202,-0.071,-0.483,-81.787,-13.183,131.225,1
4.740499,0.218,-0.061,-0.508,-91.003,-10.253,136.779,1
4.748491,0.229,-0.032,-0.535,-100.036,-7.812,143.371,1
4.756255,0.216,0.0,-0.556,-103.881,-6.103,148.742,1
4.762801,0.217,0.028,-0.594,-103.21,-5.187,153.747,1
4.770931,0.182,0.058,-0.623,-99.182,-4.882,158.386,1
4.777428,0.122,0.081,-0.649,-93.627,-4.821,162.78,1
4.784974,0.059,0.094,-0.673,-87.768,-5.554,166.748,1
4.792877,-0.002,0.103,-0.692,-82.824,-6.164,169.799,1
4.800825,-0.064,0.101,-0.693,-77.819,-7.141,173.522,1
4.807228,-0.103,0.098,-0.688,-74.768,-7.812,177.368,1
4.816758,-0.134,0.094,-0.691,-74.157,-7.934,181.64,1
4.82378,-0.171,0.103,-0.692,-75.683,-8.911,186.523,1
4.831928,-0.201,0.128,-0.708,-75.744,-9.704,191.711,1
4.840383,-0.248,0.166,-0.722,-72.143,-12.207,195.983,1
4.847293,-0.325,0.203,-0.725,-63.415,-15.38,200.134,1
4.855477,-0.374,0.203,-0.728,-51.879,-18.737,203.857,1
4.863757,-0.436,0.2,-0.72,-38.391,-22.705,207.824,1
4.870698,-0.433,0.2,-0.724,-20.446,-26.672,211.608,1
4.878925,-0.465,0.197,-0.721,1.892,-33.386,215.881,1
4.886826,-0.493,0.162,-0.706,14.038,-37.475,219.299,1
4.89511,-0.548,0.12,-0.687,19.592,-41.564,223.327,1
4.901597,-0.611,0.091,-0.666,15.197,-44.982,228.576,1
4.90932,-0.697,0.071,-0.647,4.394,-47.18,232.849,1
4.917258,-0.779,0.076,-0.62,-7.324,-49.255,237.426,1
4.925159,-0.84,0.088,-0.597,-13.244,-50.598,242.126,1
4.934521,-0.922,0.129,-0.566,-10.07,-53.771,247.619,1
4.942504,-0.972,0.16,-0.548,1.464,-56.823,252.258,1
4.950764,-1.044,0.209,-0.535,25.085,-62.377,257.934,1
4.957286,-1.101,0.252,-0.533,51.391,-68.664,262.634,1
4.96526,-1.105,0.281,-0.521,80.017,-75.988,267.517,1
4.973519,-1.106,0.339,-0.525,107.421,-83.74,272.521,1
4.981974,-1.117,0.423,-0.533,132.141,-92.224,276.672,1
4.988411,-1.176,0.516,-0.535,151.0,-102.355,279.968,1
4.99677,-1.263,0.589,-0.541,149.902,-108.581,281.921,1
5.003132,-1.34,0.674,-0.555,129.089,-112.243,282.959,1
5.011106,-1.373,0.777,-0.579,75.439,-111.755,283.386,1
5.017717,-1.388,0.948,-0.634,-2.258,-109.252,283.325,1
5.025887,-1.388,1.169,-0.628,-70.068,-105.163,283.325,1
5.032748,-1.382,1.417,-0.62,-96.923,-102.905,283.386,1
5.040661,-1.406,1.641,-0.588,-75.012,-104.98,281.921,1
5.050063,-1.367,1.831,-0.534,-16.967,-109.802,279.235,1
5.056648,-1.302,2.02,-0.497,55.175,-118.041,273.254,1
5.064853,-1.28,2.168,-0.482,87.402,-124.511,266.357,1
5.073065,-1.311,2.354,-0.416,91.369,-128.173,257.812,1
5.079578,-1.308,2.512,-0.343,82.58,-130.187,248.291,1
5.087495,-1.242,2.671,-0.271,72.143,-129.882,237.06,1
5.096084,-1.158,2.792,-0.226,65.673,-129.516,226.196,1
5.10277,-1.046,2.877,-0.184,69.396,-130.31,214.355,1
5.11059,-0.971,2.921,-0.148,70.434,-129.577,201.66,1
5.117502,-0.894,2.912,-0.122,68.603,-130.432,189.331,1
5.125517,-0.825,2.894,-0.061,73.181,-131.042,177.673,1
5.133473,-0.709,2.832,-0.023,69.213,-131.53,170.288,1
5.141363,-0.727,2.824,-0.051,77.575,-130.432,156.005,1
5.149146,-0.665,2.754,-0.041,77.514,-131.347,140.93,1
5.157042,-0.48,2.636,-0.079,73.303,-131.469,130.065,1
5.163323,-0.487,2.58,-0.077,85.327,-134.948,120.056,1
5.172341,-0.452,2.487,-0.051,95.275,-135.864,111.938,1
5.179021,-0.363,2.405,-0.08,97.29,-137.878,104.736,1
5.190493,-0.363,2.25,-0.078,94.97,-138.916,97.961,1
5.197165,-0.227,2.231,-0.081,67.687,-135.986,90.82,1
5.204142,-0.318,2.106,-0.089,77.27,-140.258,85.021,1
5.212137,-0.246,1.892,-0.055,85.327,-138.0,80.322,1
5.219791,-0.194,1.592,-0.151,64.941,-138.671,78.063,1
5.226385,-0.128,1.728,-0.045,57.617,-136.291,72.265,1
5.234525,-0.214,1.665,-0.034,73.364,-140.93,70.678,1
5.241261,-0.123,1.544,-0.013,84.045,-141.845,69.335,1
5.249483,-0.105,1.367,-0.047,77.026,-144.104,68.42,1
5.256336,-0.085,1.476,0.054,45.593,-140.258,67.871,1
5.263172,-0.154,1.508,0.024,42.114,-144.592,69.152,1
5.271277,-0.225,1.442,0.106,52.246,-146.484,69.824,1
5.279313,-0.203,1.395,0.079,64.147,-147.46,69.335,1
5.285732,-0.242,1.364,0.112,79.833,-152.221,68.115,1
5.294087,-0.284,1.271,0.141,93.2,-153.259,67.687,1
5.301976,-0.316,1.246,0.153,98.632,-154.541,65.429,1
5.308944,-0.354,1.207,0.187,109.863,-156.677,62.499,1
5.315941,-0.354,1.179,0.233,121.643,-156.677,59.387,1
5.324152,-0.377,0.929,0.184,108.032,-156.555,57.556,1
5.331949,-0.288,1.122,0.311,67.993,-149.353,54.016,1
5.33884,-0.321,1.163,0.301,46.997,-146.545,50.964,1
5.347356,-0.332,1.183,0.387,28.015,-143.798,50.354,1
5.354077,-0.253,1.271,0.386,20.812,-139.465,47.424,1
5.36181,-0.325,1.35,0.424,31.188,-140.563,43.823,1
5.37037,-0.377,1.396,0.474,52.124,-138.549,39.489,1
5.377272,-0.371,1.421,0.479,72.753,-139.038,33.447,1
5.38579,-0.358,1.435,0.529,92.834,-138.0,26.977,1
5.39216,-0.365,1.399,0.536,107.849,-136.352,20.263,1
5.400421,-0.379,1.365,0.546,116.638,-133.911,13.427,1
5.407374,-0.391,1.328,0.552,121.093,-130.554,6.835,1
5.414847,-0.39,1.291,0.55,124.267,-127.014,0.0,1
5.423208,-0.385,1.226,0.542,124.511,-122.924,-6.103,1
5.43158,-0.367,1.15,0.526,115.234,-118.103,-11.535,1
5.438068,-0.388,1.083,0.519,95.886,-111.755,-16.296,1
5.446189,-0.374,1.034,0.507,72.082,-105.773,-19.897,1
5.454435,-0.355,0.991,0.494,47.485,-99.243,-22.399,1
5.461371,-0.358,0.963,0.476,32.348,-94.97,-24.23,1
5.469291,-0.344,0.953,0.477,26.672,-92.041,-24.841,1
5.477639,-0.336,0.95,0.484,30.7,-90.148,-24.658,1
5.485744,-0.345,0.923,0.479,37.719,-88.684,-24.78,1
5.492422,-0.358,0.859,0.473,42.297,-86.364,-24.353,1
5.500519,-0.32,0.838,0.476,45.227,-84.899,-23.864,1
5.507213,-0.363,0.815,0.478,51.391,-82.641,-22.338,1
5.515367,-0.33,0.782,0.463,55.603,-80.81,-21.484,1
5.523061,-0.307,0.749,0.485,53.466,-77.27,-19.897,1
5.529413,-0.313,0.748,0.475,48.461,-73.547,-18.188,1
5.537486,-0.292,0.745,0.487,44.982,-70.8,-17.395,1
5.544126,-0.281,0.744,0.491,41.87,-66.894,-15.747,1
5.552265,-0.274,0.739,0.488,38.818,-62.988,-14.404,1
5.558728,-0.289,0.735,0.488,37.353,-59.509,-13.0,1
5.566554,-0.269,0.731,0.49,38.085,-56.457,-11.596,1
5.574963,-0.262,0.734,0.493,43.395,-54.26,-9.155,1
5.583295,-0.239,0.733,0.498,53.1,-52.124,-7.385,1
5.589605,-0.24,0.727,0.483,62.438,-50.048,-5.737,1
5.597779,-0.241,0.733,0.466,67.932,-48.156,-3.723,1
5.604241,-0.27,0.736,0.437,68.115,-45.959,-2.38,1
5.612676,-0.291,0.738,0.42,60.913,-43.762,-1.525,1
5.620967,-0.251,0.699,0.384,44.311,-39.428,-0.061,1
5.628116,-0.262,0.739,0.367,29.113,-37.536,1.22,1
5.636459,-0.253,0.788,0.353,24.78,-35.034,2.441,1
5.642871,-0.197,0.804,0.346,27.038,-34.423,3.295,1
5.651303,-0.186,0.821,0.337,36.56,-33.874,4.089,1
5.658832,-0.199,0.83,0.313,48.461,-34.423,4.882,1
5.665365,-0.192,0.817,0.312,56.152,-34.301,5.615,1
5.674205,-0.187,0.8,0.296,57.25,-33.691,6.347,1
5.680854,-0.153,0.786,0.292,52.001,-32.226,7.263,1
5.689042,-0.184,0.797,0.287,44.067,-31.799,8.422,1
5.695499,-0.202,0.806,0.302,35.339,-30.334,8.972,1
5.703739,-0.202,0.832,0.312,26.367,-28.747,10.009,1
5.710779,-0.195,0.858,0.332,18.615,-27.343,10.375,1
5.71929,-0.183,0.879,0.344,13.427,-25.451,10.925,1
5.727359,-0.15,0.897,0.339,6.53,-23.498,11.657,1
5.734081,-0.083,0.9,0.32,1.77,-21.24,12.084,1
5.742153,-0.216,0.936,0.315,-6.469,-19.531,12.573,1
5.748704,-0.26,1.004,0.334,-6.835,-16.906,12.878,1
5.755405,-0.176,1.05,0.307,0.793,-15.747,12.512,1
5.763054,-0.037,1.007,0.256,5.004,-14.892,12.512,1
5.771309,-0.159,1.108,0.246,11.047,-13.793,11.474,1
5.777866,-0.222,1.117,0.228,19.042,-13.671,11.413,1
5.784833,-0.207,1.123,0.195,22.827,-12.817,10.681,1
5.791965,-0.233,1.131,0.168,20.874,-11.718,10.437,1
5.799952,-0.218,1.153,0.143,18.554,-12.512,10.253,1
5.808222,-0.224,1.169,0.158,16.418,-12.268,9.765,1
5.814494,-0.231,1.182,0.154,15.869,-11.535,10.07,1
5.822885,-0.239,1.209,0.157,16.906,-11.474,10.009,1
5.830601,-0.243,1.242,0.165,22.705,-10.559,10.009,1
5.83881,-0.182,1.256,0.184,33.325,-10.864,9.582,1
5.845331,-0.155,1.29,0.219,51.147,-11.352,10.253,1
5.852073,-0.195,1.322,0.265,78.002,-12.573,10.62,1
5.860143,-0.2,1.342,0.287,105.163,-13.671,11.474,1
5.86837,-0.235,1.374,0.296,117.797,-14.099,11.718,1
5.876758,-0.301,1.4,0.307,114.379,-13.244,11.352,1
5.883288,-0.362,1.421,0.316,96.557,-11.291,10.437,1
5.891524,-0.382,1.458,0.323,69.335,-9.826,8.605,1
5.899001,-0.443,1.5,0.339,40.771,-6.774,5.371,1
5.907403,-0.431,1.385,0.353,-19.775,-3.54,7.263,1
5.914493,-0.399,1.458,0.339,-50.842,2.136,0.183,1
5.922864,-0.313,1.592,0.395,-45.41,1.342,-6.225,1
5.929459,-0.266,1.606,0.359,-27.832,4.15,-11.474,1
5.937537,-0.242,1.626,0.324,-15.136,2.502,-17.761,1
5.94587,-0.208,1.633,0.299,-4.394,5.371,-23.559,1
5.952612,-0.154,1.611,0.237,-4.638,7.324,-29.846,1
5.960554,-0.133,1.584,0.208,-15.38,11.23,-35.827,1
5.968726,-0.091,1.559,0.158,-38.33,16.662,-42.541,1
5.977079,-0.093,1.554,0.134,-58.166,20.263,-47.607,1
5.983832,-0.103,1.54,0.099,-73.059,23.437,-52.49,1
5.992239,-0.107,1.517,0.061,-85.571,23.986,-56.64,1
5.999651,-0.115,1.491,0.04,-91.308,25.024,-59.875,1
6.007809,-0.141,1.498,-0.015,-89.05,23.62,-62.805,1
6.014644,-0.141,1.432,-0.058,-89.416,21.057,-65.612,1
6.022546,-0.116,1.415,-0.065,-87.402,19.897,-67.138,1
6.030561,-0.106,1.404,-0.107,-82.031,16.784,-68.725,1
6.037207,-0.14,1.396,-0.132,-76.599,14.343,-70.068,1
6.045009,-0.183,1.399,-0.171,-71.96,12.145,-71.105,1
6.053242,-0.104,1.387,-0.214,-69.824,10.131,-72.326,1
6.059982,-0.06,1.377,-0.259,-72.387,8.85,-73.425,1
6.067828,-0.053,1.377,-0.289,-75.439,7.446,-74.157,1
6.074872,-0.092,1.451,-0.294,-77.087,5.126,-75.256,1
6.082863,-0.039,1.436,-0.316,-71.716,2.746,-75.927,1
6.089591,-0.058,1.479,-0.307,-66.589,-1.281,-77.087,1
6.098698,-0.075,1.488,-0.323,-56.152,-4.272,-78.186,1
6.106876,-0.078,1.487,-0.331,-55.908,-7.934,-80.261,1
6.114745,-0.073,1.456,-0.323,-66.223,-10.375,-82.275,1
6.122789,-0.131,1.549,-0.307,-78.063,-10.803,-86.364,1
6.130988,-0.068,1.553,-0.307,-74.218,-13.732,-89.355,1
6.138995,-0.081,1.592,-0.284,-64.392,-16.845,-93.444,1
6.145829,-0.133,1.238,-0.377,-80.261,-18.554,-93.505,1
6.155409,-0.034,1.723,-0.203,-107.91,-8.728,-96.74,1
6.163345,-0.046,1.67,-0.316,-86.608,-23.315,-98.754,1
6.169841,-0.018,1.724,-0.194,-47.79,-18.92,-100.708,1
6.177331,-0.044,1.745,-0.354,-47.241,-23.742,-102.722,1
6.185292,-0.076,1.787,-0.288,-61.767,-23.742,-105.041,1
6.193332,-0.106,1.823,-0.355,-87.463,-21.301,-107.177,1
6.201703,-0.055,2.125,-0.352,-128.295,-18.859,-110.29,1
6.208745,-0.126,2.097,-0.448,-129.699,-27.587,-112.67,1
6.217503,-0.139,2.162,-0.465,-121.215,-28.93,-116.21,1
6.225043,-0.199,2.229,-0.576,-127.868,-34.179,-119.506,1
6.233275,-0.274,2.354,-0.613,-134.887,-39.367,-125.183,1
6.241353,-0.317,2.46,-0.668,-132.995,-45.104,-131.042,1
6.249299,-0.369,2.555,-0.671,-127.014,-52.49,-137.634,1
6.257197,-0.428,2.593,-0.667,-121.582,-59.509,-146.057,1
6.265568,-0.503,2.632,-0.638,-123.413,-66.406,-153.93,1
6.273484,-0.543,2.641,-0.583,-124.084,-73.608,-162.658,1
6.281427,-0.576,2.637,-0.526,-121.093,-80.444,-170.166,1
6.28822,-0.594,2.625,-0.461,-111.328,-87.524,-177.124,1
6.296301,-0.607,2.598,-0.412,-97.229,-94.848,-183.349,1
6.304296,-0.617,2.545,-0.365,-83.19,-101.928,-189.392,1
6.310913,-0.62,2.459,-0.331,-75.683,-107.849,-195.495,1
6.319176,-0.622,2.357,-0.301,-77.026,-112.792,-201.416,1
6.326928,-0.688,2.26,-0.259,-82.519,-116.882,-207.092,1
6.33387,-0.73,2.158,-0.194,-85.632,-121.52,-212.28,1
6.341842,-0.818,2.074,-0.116,-77.453,-126.403,-217.468,1
6.349728,-0.907,1.949,-0.065,-56.945,-131.835,-222.534,1
6.356412,-1.005,1.87,-0.006,-29.418,-137.329,-228.515,1
6.36358,-1.102,1.729,0.05,2.624,-142.7,-234.802,1
6.371319,-1.205,1.543,0.076,20.019,-145.812,-240.539,1
6.378142,-1.307,1.42,0.099,19.653,-146.667,-245.239,1
6.386552,-1.415,1.266,0.124,3.54,-148.01,-250.122,1
6.392908,-1.44,1.127,0.272,-13.793,-147.033,-253.845,1
6.401319,-1.489,0.962,0.325,-32.775,-144.47,-256.225,1
6.409189,-1.436,0.775,0.442,-58.166,-145.263,-257.751,1
6.417481,-1.394,0.637,0.597,-65.429,-141.601,-257.69,1
6.425454,-1.341,0.48,0.734,-58.532,-142.211,-256.469,1
6.432317,-1.09,0.256,0.954,-43.701,-136.413,-254.76,1
6.440156,-0.961,0.057,1.096,-38.208,-129.394,-251.464,1
6.448515,-0.77,-0.094,1.249,-39.794,-119.75,-247.497,1
6.456972,-0.572,-0.283,1.376,-51.025,-110.534,-241.577,1
6.464782,-0.375,-0.429,1.462,-78.674,-98.266,-232.604,1
6.472642,-0.208,-0.505,1.559,-108.337,-88.5,-224.121,1
6.480205,-0.071,-0.518,1.644,-129.394,-78.063,-214.416,1
6.488302,0.031,-0.527,1.684,-138.122,-70.251,-204.65,1
6.496217,0.168,-0.462,1.699,-135.009,-59.082,-193.969,1
6.502775,0.285,-0.422,1.656,-120.483,-53.344,-186.157,1
6.51086,0.375,-0.391,1.597,-100.219,-45.776,-179.382,1
6.51934,0.382,-0.339,1.502,-90.881,-39.794,-174.194,1
6.525878,0.334,-0.257,1.373,-91.003,-30.456,-169.616,1
6.5342,0.295,-0.175,1.209,-102.111,-22.949,-167.785,1
6.542422,0.254,-0.1,1.045,-118.835,-16.235,-167.48,1
6.550729,0.191,-0.031,0.868,-134.582,-11.23,-168.334,1
6.557347,0.1,0.015,0.699,-145.751,-7.69,-169.86,1
6.564097,-0.009,0.048,0.523,-155.334,-6.286,-171.813,1
6.57199,-0.148,0.057,0.353,-165.771,-6.042,-174.804,1
6.580389,-0.307,0.042,0.185,-178.344,-6.103,-177.795,1
6.587367,-0.46,0.0,-0.024,-191.162,-8.422,-180.969,1
6.596744,-0.613,-0.049,-0.187,-197.204,-13.488,-183.959,1
6.60517,-0.781,-0.133,-0.367,-192.871,-20.324,-185.729,1
6.612743,-0.957,-0.29,-0.587,-187.805,-28.869,-186.157,1
6.62136,-1.067,-0.448,-0.784,-184.936,-41.442,-184.448,1
6.629333,-1.111,-0.664,-0.988,-180.664,-54.687,-181.03,1
6.637508,-1.175,-0.851,-1.106,-168.395,-72.875,-174.438,1
6.646235,-1.314,-1.116,-1.209,-160.705,-89.233,-166.015,1
6.654367,-1.406,-1.318,-1.254,-156.677,-107.543,-154.113,1
6.66133,-1.599,-1.567,-1.244,-162.353,-124.206,-139.648,1
6.669079,-1.663,-1.781,-1.282,-150.146,-139.709,-125.061,1
6.676961,-1.814,-1.951,-1.302,-120.117,-156.86,-109.68,1
6.685607,-1.968,-2.3,-1.338,-118.347,-173.339,-91.186,1
6.693708,-2.015,-2.657,-1.423,-119.445,-189.758,-69.824,1
6.701703,-2.217,-2.902,-1.438,-153.381,-209.777,-38.818,1
6.709818,-2.281,-3.108,-1.42,-157.47,-226.623,-9.338,1
6.718091,-2.542,-3.354,-1.425,-177.978,-250.488,28.198,1
6.726259,-2.805,-3.476,-1.25,-158.935,-270.08,65.551,1
6.733305,-3.179,-3.712,-1.128,-131.408,-291.931,104.37,1
6.741153,-3.604,-3.81,-0.944,-121.704,-315.002,151.062,1
6.748929,-4.207,-3.836,-0.752,-125.183,-333.496,192.321,1
6.758973,-5.008,-3.841,-0.395,-136.596,-349.121,234.313,1
6.765575,-5.743,-3.878,-0.06,-144.958,-363.952,286.254,1
6.773502,-6.433,-3.918,0.328,-160.278,-370.727,334.228,1
6.780087,-7.149,-3.912,0.674,-173.583,-373.962,385.864,1
6.788184,-7.923,-3.802,1.167,-198.974,-369.873,439.941,1
6.794992,-8.816,-3.626,1.625,-185.668,-362.304,494.567,1
6.802915,-9.822,-3.604,2.12,-210.571,-346.679,549.255,1
6.810893,-10.643,-3.516,2.633,-282.226,-309.387,605.834,1
6.819416,-11.484,-3.275,3.126,-369.689,-257.019,664.184,1
6.827462,-12.331,-2.938,3.554,-436.706,-185.791,723.327,1
6.833928,-13.078,-2.507,3.842,-485.595,-104.309,779.357,1
6.842351,-13.843,-2.122,3.954,-522.888,10.07,839.66,1
6.850697,-14.933,-1.649,3.841,-532.836,113.708,883.422,1
6.85901,-15.999,-1.09,3.434,-548.217,226.013,920.959,1
6.865522,-15.999,-0.425,2.861,-568.969,339.355,949.951,1
6.873435,-15.999,0.381,2.242,-549.865,466.125,969.482,1
6.880183,-15.999,1.088,1.554,-507.019,545.288,974.487,1
6.88814,-15.999,1.559,1.049,-453.308,631.103,972.961,1
6.895374,-15.999,2.11,0.552,-407.348,705.078,966.918,1
6.903539,-15.999,2.589,0.125,-365.905,776.245,958.496,1
6.911351,-15.999,3.155,-0.392,-339.416,834.045,947.143,1
6.918313,-15.999,3.586,-0.862,-360.778,889.282,928.1,1
6.926389,-15.999,3.929,-1.219,-421.813,945.434,897.46,1
6.934215,-15.999,3.954,-1.527,-484.252,1014.16,860.656,1
6.941033,-15.999,4.119,-1.966,-553.039,1068.237,807.922,1
6.949357,-15.999,4.181,-2.602,-685.302,1142.456,733.215,1
6.956344,-15.999,4.369,-3.525,-855.59,1194.336,618.835,1
6.965306,-15.999,4.261,-4.332,-1006.835,1265.014,472.228,1
6.973255,-15.999,3.726,-5.821,-1283.203,1290.405,256.103,1
6.979808,-15.999,3.175,-6.047,-1420.959,1292.785,40.588,1
6.988435,-15.999,2.63,-5.895,-1364.44,1229.614,-169.311,1
6.995225,-15.999,1.476,-5.311,-1172.058,1137.634,-335.754,1
7.003351,-15.999,0.507,-5.071,-934.997,1026.123,-444.641,1
7.011648,-15.999,-0.098,-4.704,-674.011,903.259,-510.314,1
7.019643,-15.999,-0.625,-4.436,-421.874,807.8,-535.034,1
7.02754,-15.872,-1.24,-4.476,-254.821,716.125,-534.729,1
7.035282,-14.082,-1.744,-4.372,-212.402,656.921,-523.681,1
7.042035,-12.254,-2.1,-4.278,-230.285,604.98,-508.239,1
7.051738,-10.465,-2.305,-4.119,-286.865,555.114,-494.506,1
7.058209,-8.745,-2.407,-3.806,-325.378,493.286,-479.919,1
7.066593,-7.403,-2.445,-3.539,-316.223,440.795,-466.064,1
7.074752,-6.187,-2.387,-3.31,-279.724,385.375,-449.523,1
7.082789,-5.555,-2.273,-3.055,-234.619,335.632,-430.297,1
7.090874,-4.972,-2.218,-2.902,-224.792,284.118,-407.47,1
7.097722,-4.588,-2.085,-2.609,-246.276,247.436,-388.61,1
7.10591,-4.195,-1.941,-2.415,-263.183,213.867,-371.032,1
7.114412,-3.804,-1.72,-2.133,-250.976,173.767,-352.233,1
7.122252,-3.53,-1.583,-1.95,-218.688,144.348,-336.12,1
7.130965,-3.31,-1.486,-1.816,-185.302,116.882,-320.8,1
7.137639,-3.111,-1.405,-1.689,-152.038,93.811,-305.175,1
7.146182,-2.833,-1.338,-1.622,-107.666,66.406,-288.146,1
7.15403,-2.599,-1.278,-1.497,-65.917,46.142,-274.169,1
7.161809,-2.351,-1.235,-1.407,-32.714,30.151,-260.742,1
7.170422,-2.155,-1.175,-1.314,-17.761,16.479,-248.352,1
7.178009,-1.999,-1.118,-1.211,-16.906,5.554,-233.764,1
7.185949,-1.85,-1.068,-1.131,-20.446,-4.15,-221.74,1
7.19289,-1.7,-1.027,-1.012,-22.766,-11.474,-210.266,1
7.201136,-1.565,-1.01,-0.936,-28.564,-19.165,-196.228,1
7.210615,-1.459,-1.015,-0.864,-38.696,-23.925,-184.387,1
7.218531,-1.277,-1.011,-0.776,-51.269,-27.832,-172.546,1
7.226352,-1.118,-0.968,-0.701,-59.997,-32.043,-158.142,1
7.235639,-0.994,-0.948,-0.646,-65.49,-35.644,-144.165,1
7.243861,-0.855,-0.909,-0.588,-73.913,-36.987,-130.92,1
7.252307,-0.751,-0.858,-0.553,-83.801,-37.292,-119.201,1
7.26033,-0.725,-0.814,-0.525,-93.139,-37.109,-105.102,1
7.268227,-0.595,-0.763,-0.518,-87.768,-38.269,-93.261,1
7.276317,-0.472,-0.707,-0.482,-65.551,-40.466,-82.092,1
7.283457,-0.367,-0.673,-0.449,-32.531,-42.297,-69.458,1
7.292318,-0.277,-0.677,-0.438,-13.061,-42.785,-59.387,1
7.299034,-0.189,-0.667,-0.416,-4.699,-41.503,-49.682,1
7.307102,-0.14,-0.639,-0.4,-4.638,-39.367,-38.818,1
7.315484,-0.096,-0.604,-0.38,-8.422,-37.048,-30.395,1
7.323776,-0.059,-0.564,-0.372,-15.319,-34.118,-22.644,1
7.332088,0.011,-0.527,-0.38,-27.526,-30.822,-13.61,1
7.339706,0.084,-0.482,-0.403,-39.855,-27.954,-6.103,1
7.348095,0.137,-0.444,-0.412,-52.307,-25.695,1.159,1
7.354936,0.148,-0.393,-0.431,-64.086,-22.766,8.239,1
7.363531,0.136,-0.345,-0.446,-74.401,-20.263,14.526,1
7.371733,0.132,-0.294,-0.463,-80.444,-17.578,21.789,1
7.378438,0.11,-0.257,-0.483,-81.298,-16.418,27.343,1
7.386773,0.077,-0.241,-0.509,-81.298,-14.465,32.348,1
7.395132,0.092,-0.242,-0.531,-82.336,-13.305,37.17,1
7.403155,0.134,-0.237,-0.531,-80.505,-11.779,42.48,1
7.411317,0.182,-0.234,-0.543,-75.561,-10.864,46.936,1
7.417699,0.237,-0.244,-0.559,-70.312,-10.559,51.513,1
7.425928,0.262,-0.263,-0.577,-66.833,-10.131,56.213,1
7.433691,0.287,-0.291,-0.593,-66.345,-9.704,62.133,1
7.44222,0.314,-0.301,-0.613,-65.124,-9.155,67.443,1
7.449052,0.331,-0.315,-0.634,-61.828,-9.338,73.547,1
7.457392,0.346,-0.318,-0.654,-56.762,-8.911,79.528,1
7.463874,0.325,-0.324,-0.675,-52.856,-9.399,86.242,1
7.471656,0.394,-0.315,-0.674,-49.316,-8.666,92.346,1
7.478709,0.377,-0.324,-0.717,-52.917,-8.3,97.717,1
7.48676,0.286,-0.324,-0.714,-62.194,-7.08,103.759,1
7.494815,0.251,-0.296,-0.728,-70.373,-5.187,109.985,1
7.50137,0.259,-0.279,-0.757,-77.636,-4.821,115.905,1
7.510842,0.266,-0.255,-0.765,-81.054,-4.333,121.459,1
7.518301,0.25,-0.233,-0.781,-79.04,-5.798,127.197,1
7.52636,0.24,-0.223,-0.789,-70.617,-7.873,132.995,1
7.534448,0.185,-0.182,-0.787,-57.434,-11.352,138.671,1
7.541186,0.132,-0.165,-0.76,-35.827,-15.319,145.08,1
7.54955,0.092,-0.164,-0.742,-17.761,-19.165,150.146,1
7.557195,0.082,-0.182,-0.701,-3.784,-22.338,156.066,1
7.565555,0.02,-0.167,-0.662,-4.333,-23.925,162.78,1
7.574396,0.026,-0.113,-0.625,-0.427,-25.573,168.823,1
7.580841,0.012,-0.052,-0.621,5.371,-26.611,175.048,1
7.589261,-0.013,0.001,-0.604,11.779,-28.808,180.786,1
7.59766,-0.052,0.023,-0.604,13.122,-30.212,186.706,1
7.604131,-0.094,0.053,-0.599,4.516,-31.555,192.138,1
7.613139,-0.187,0.107,-0.6,-7.629,-31.738,196.96,1
7.621067,-0.281,0.157,-0.601,-21.423,-33.081,200.988,1
7.629415,-0.392,0.192,-0.574,-32.592,-34.118,205.261,1
7.635795,-0.506,0.223,-0.543,-33.752,-35.888,208.74,1
7.644295,-0.471,0.24,-0.499,-28.259,-37.475,212.707,1
7.652648,-0.411,0.277,-0.474,-16.113,-39.245,216.552,1
7.659626,-0.424,0.363,-0.481,2.258,-42.297,221.252,1
7.667594,-0.422,0.438,-0.487,17.7,-45.898,224.792,1
7.675928,-0.425,0.48,-0.476,26.428,-48.583,228.088,1
7.682625,-0.468,0.528,-0.455,24.841,-49.804,231.567,1
7.691384,-0.48,0.591,-0.465,12.817,-49.255,234.313,1
7.698572,-0.516,0.672,-0.454,-3.723,-48.217,236.694,1
7.706726,-0.566,0.792,-0.441,-18.615,-45.898,238.098,1
7.715083,-0.599,0.911,-0.422,-31.616,-44.006,239.196,1
7.721962,-0.596,1.035,-0.429,-44.433,-40.466,239.685,1
7.730481,-0.579,1.159,-0.433,-56.518,-38.146,238.952,1
7.737461,-0.594,1.269,-0.438,-66.833,-35.461,238.037,1
7.744952,-0.623,1.364,-0.44,-72.509,-33.081,235.9,1
7.752487,-0.58,1.435,-0.421,-78.43,-29.785,233.947,1
7.760867,-0.524,1.529,-0.456,-70.739,-28.503,231.079,1
7.768941,-0.543,1.583,-0.431,-48.645,-29.724,228.149,1
7.7754,-0.557,1.634,-0.418,-17.517,-29.602,225.341,1
7.783389,-0.586,1.674,-0.442,13.549,-33.203,221.008,1
7.791497,-0.573,1.706,-0.441,35.217,-33.996,216.125,1
7.798023,-0.553,1.77,-0.487,45.593,-35.522,210.754,1
7.805747,-0.532,1.825,-0.486,50.964,-36.743,204.406,1
7.814422,-0.473,1.843,-0.485,53.222,-36.56,198.669,1
7.824012,-0.39,1.863,-0.479,48.645,-36.315,192.504,1
7.830626,-0.309,1.891,-0.457,37.231,-34.24,184.753,1
7.838795,-0.287,1.892,-0.449,21.118,-33.02,178.955,1
7.845241,-0.226,1.918,-0.436,5.432,-29.907,170.288,1
7.853187,-0.232,1.899,-0.425,-6.103,-28.564,163.085,1
7.861696,-0.173,1.854,-0.423,-21.484,-26.062,156.921,1
7.869825,-0.066,1.949,-0.405,-33.386,-23.864,150.695,1
7.878174,-0.077,1.924,-0.432,-26.123,-26.184,145.08,1
7.884446,0.034,2.025,-0.369,-34.79,-20.263,142.15,1
7.892695,0.045,1.952,-0.563,-11.535,-27.648,136.657,1
7.898887,-0.109,1.893,-0.375,20.385,-31.249,128.112,1
7.907021,-0.05,1.774,-0.469,20.507,-28.015,122.619,1
7.913636,0.013,1.726,-0.476,2.319,-31.677,115.417,1
7.921851,-0.06,1.67,-0.403,-11.84,-26.489,109.985,1
7.929802,-0.026,1.645,-0.451,-25.146,-25.939,104.675,1
7.938117,-0.016,1.615,-0.402,-25.207,-25.512,99.853,1
7.945321,0.052,1.622,-0.398,-17.089,-24.169,96.679,1
7.952115,0.1,1.672,-0.425,-3.173,-25.756,93.749,1
7.960333,0.09,1.706,-0.449,14.038,-27.709,91.064,1
7.96678,0.11,1.692,-0.493,25.085,-30.09,88.867,1
7.974289,0.119,1.653,-0.521,26.55,-32.043,85.998,1
7.982513,0.096,1.618,-0.535,17.7,-32.775,83.068,1
7.991031,0.096,1.595,-0.541,6.652,-33.203,80.444,1
7.997035,0.061,1.578,-0.53,-3.173,-33.508,77.331,1
8.005411,0.054,1.537,-0.52,-8.911,-33.508,74.646,1
8.013644,0.01,1.5,-0.505,-12.39,-33.752,70.983,1
8.020479,-0.004,1.462,-0.485,-12.634,-33.386,67.626,1
8.028128,0.01,1.418,-0.463,-10.375,-33.386,63.964,1
8.036084,0.009,1.362,-0.432,-6.774,-32.958,60.607,1
8.044011,0.013,1.308,-0.407,-3.601,-32.714,57.312,1
8.050416,0.022,1.261,-0.392,0.183,-32.043,54.382,1
8.058395,0.041,1.208,-0.39,2.38,-30.822,51.818,1
8.065133,0.046,1.165,-0.403,0.305,-29.968,49.316,1
8.072784,0.071,1.143,-0.41,-0.976,-29.663,47.18,1
8.081062,0.109,1.111,-0.424,1.22,-29.785,46.203,1
8.08976,0.122,1.095,-0.43,8.666,-30.761,44.738,1
8.09624,0.128,1.057,-0.442,16.601,-31.616,43.884,1
8.103225,0.122,1.026,-0.46,25.451,-33.142,43.334,1
8.111501,0.092,1.0,-0.478,34.606,-34.057,42.663,1
8.118258,0.064,0.973,-0.493,42.236,-36.01,42.114,1
8.125616,0.01,0.952,-0.494,59.997,-35.827,40.649,1
8.133462,-0.007,0.908,-0.506,72.875,-37.963,39.306,1
8.141148,-0.061,0.86,-0.503,80.261,-38.33,38.452,1
8.149559,-0.086,0.79,-0.526,76.416,-37.841,37.658,1
8.156246,-0.088,0.745,-0.538,64.331,-37.475,36.926,1
8.165611,-0.094,0.7,-0.522,46.02,-36.621,36.254,1
8.172277,-0.104,0.66,-0.508,23.62,-35.217,36.071,1
8.180621,-0.12,0.643,-0.495,-0.183,-33.63,36.621,1
8.18852,-0.126,0.626,-0.471,-23.376,-32.592,37.292,1
8.1954,-0.134,0.639,-0.446,-40.954,-31.311,38.696,1
8.20354,-0.164,0.617,-0.421,-50.415,-31.127,40.161,1
8.210482,-0.18,0.613,-0.387,-50.964,-30.517,41.748,1
8.218854,-0.141,0.646,-0.428,-40.71,-28.747,43.823,1
8.227613,-0.19,0.643,-0.428,-28.747,-33.081,45.593,1
8.235486,-0.243,0.63,-0.376,-14.831,-31.616,47.912,1
8.243881,-0.232,0.641,-0.414,0.305,-34.423,49.682,1
8.250215,-0.292,0.637,-0.373,20.019,-35.949,51.452,1
8.258761,-0.279,0.633,-0.39,33.081,-37.109,53.039,1
8.26555,-0.274,0.625,-0.38,43.09,-39.306,54.321,1
8.273595,-0.267,0.608,-0.377,49.255,-39.611,55.847,1
8.282059,-0.264,0.592,-0.387,47.546,-40.954,57.556,1
8.289842,-0.294,0.587,-0.374,41.687,-40.222,59.387,1
8.296337,-0.291,0.591,-0.377,32.043,-40.1,61.34,1
8.304636,-0.298,0.595,-0.361,21.24,-39.489,63.049,1
8.311438,-0.294,0.607,-0.354,9.155,-38.146,64.636,1
8.31967,-0.303,0.619,-0.343,-2.075,-37.231,66.467,1
8.328164,-0.312,0.636,-0.333,-9.765,-35.644,67.687,1
8.334963,-0.317,0.647,-0.332,-12.39,-34.79,69.519,1
8.342957,-0.337,0.667,-0.325,-8.3,-34.484,70.983,1
8.351332,-0.35,0.68,-0.333,-0.61,-34.667,72.082,1
8.358337,-0.372,0.687,-0.329,9.582,-35.4,73.181,1
8.366582,-0.373,0.687,-0.335,20.568,-36.254,74.096,1
8.374479,-0.374,0.673,-0.33,30.883,-37.475,75.378,1
8.382916,-0.365,0.659,-0.324,34.729,-37.841,76.538,1
8.391277,-0.362,0.647,-0.327,33.081,-37.78,77.636,1
8.397796,-0.368,0.637,-0.32,26.916,-37.17,79.284,1
8.404755,-0.37,0.637,-0.315,20.996,-36.743,80.078,1
8.412633,-0.375,0.645,-0.309,15.686,-35.766,81.542,1
8.421376,-0.389,0.649,-0.298,12.573,-35.339,83.007,1
8.428439,-0.399,0.659,-0.288,13.122,-34.545,84.35,1
8.43493,-0.404,0.662,-0.285,16.784,-34.362,85.876,1
8.443034,-0.417,0.666,-0.287,21.484,-34.301,87.463,1
8.450684,-0.437,0.678,-0.287,25.512,-34.362,89.294,1
8.458934,-0.448,0.683,-0.288,28.503,-34.667,91.003,1
8.466772,-0.472,0.692,-0.29,30.517,-34.423,92.468,1
8.475126,-0.486,0.719,-0.284,34.729,-34.79,93.566,1
8.481841,-0.478,0.734,-0.27,42.053,-35.644,94.299,1
8.489314,-0.479,0.748,-0.265,51.635,-36.621,94.848,1
8.49639,-0.475,0.756,-0.258,61.584,-37.78,95.458,1
8.504231,-0.472,0.761,-0.251,69.152,-38.33,95.581,1
8.511376,-0.474,0.755,-0.25,72.753,-39.062,95.947,1
8.51943,-0.485,0.753,-0.252,71.655,-39.184,96.252,1
8.526242,-0.497,0.753,-0.253,66.955,-39.001,96.435,1
8.534262,-0.507,0.76,-0.25,57.312,-38.085,96.74,1
8.540903,-0.523,0.762,-0.244,45.471,-37.17,96.923,1
8.54909,-0.549,0.777,-0.237,33.63,-35.522,97.534,1
8.555983,-0.562,0.78,-0.23,20.874,-33.935,97.961,1
8.564186,-0.569,0.802,-0.211,8.361,-31.433,98.327,1
8.572624,-0.586,0.837,-0.209,1.586,-29.907,98.571,1
8.57955,-0.611,0.864,-0.195,2.014,-28.32,99.182,1
8.587844,-0.617,0.894,-0.193,7.629,-27.404,99.304,1
8.595648,-0.631,0.92,-0.186,18.249,-26.916,99.487,1
8.602039,-0.636,0.942,-0.191,33.142,-27.16,99.731,1
8.609365,-0.665,0.962,-0.2,50.354,-28.015,99.06,1
8.617806,-0.696,0.965,-0.209,65.612,-28.991,98.876,1
8.624496,-0.722,0.959,-0.22,74.951,-30.029,98.571,1
8.631915,-0.739,0.951,-0.225,75.622,-30.334,98.388,1
8.640239,-0.767,0.937,-0.232,67.016,-29.663,97.9,1
8.646721,-0.787,0.937,-0.234,52.551,-28.198,97.839,1
8.654712,-0.8,0.942,-0.229,39.55,-26.916,97.717,1
8.661379,-0.81,0.948,-0.226,25.207,-24.902,97.534,1
8.670061,-0.839,0.963,-0.225,14.831,-23.132,97.412,1
8.676689,-0.854,0.979,-0.222,9.948,-22.094,97.351,1
8.684972,-0.877,1.01,-0.216,13.549,-21.362,97.045,1
8.691317,-0.896,1.019,-0.221,23.193,-21.484,97.106,1
8.699179,-0.906,1.031,-0.218,39.55,-22.827,96.801,1
8.706084,-0.902,1.023,-0.218,59.631,-24.108,96.313,1
8.714567,-0.903,1.006,-0.228,81.726,-26.794,96.13,1
8.72272,-0.904,0.99,-0.233,95.886,-28.564,95.336,1
8.731004,-0.897,0.955,-0.242,101.989,-30.334,94.665,1
8.737163,-0.885,0.92,-0.246,98.449,-30.883,93.749,1
8.744978,-0.872,0.904,-0.246,86.669,-30.334,92.529,1
8.751955,-0.864,0.891,-0.243,70.373,-29.785,91.43,1
8.759795,-0.863,0.89,-0.245,53.161,-28.442,90.393,1
8.766758,-0.871,0.895,-0.24,38.696,-27.526,89.111,1
8.774626,-0.865,0.908,-0.226,30.578,-26.611,87.89,1
8.781563,-0.856,0.917,-0.216,28.32,-25.939,86.608,1
8.789366,-0.854,0.917,-0.215,30.395,-26.0,85.327,1
8.796132,-0.837,0.91,-0.207,36.56,-26.123,83.74,1
8.804327,-0.849,0.905,-0.201,45.776,-26.916,82.214,1
8.811274,-0.844,0.888,-0.195,58.715,-27.648,80.444,1
8.819615,-0.833,0.871,-0.195,72.875,-28.747,79.162,1
8.826833,-0.814,0.845,-0.19,86.181,-29.663,77.453,1
8.835574,-0.805,0.813,-0.188,94.787,-30.822,76.354,1
8.843346,-0.8,0.783,-0.189,95.336,-30.822,74.829,1
8.850207,-0.79,0.764,-0.194,89.294,-29.846,73.486,1
8.858645,-0.795,0.749,-0.186,78.857,-28.503,72.021,1
8.865575,-0.806,0.743,-0.182,64.758,-26.367,70.068,1
8.873813,-0.809,0.73,-0.182,52.795,-24.78,68.664,1
8.881326,-0.813,0.729,-0.17,43.212,-23.01,66.955,1
8.889388,-0.806,0.721,-0.167,35.644,-21.423,65.734,1
8.897883,-0.823,0.719,-0.163,31.188,-19.897,64.331,1
8.905443,-0.822,0.713,-0.163,32.226,-18.493,63.049,1
8.913465,-0.817,0.703,-0.164,36.071,-18.005,61.828,1
8.919973,-0.822,0.695,-0.17,41.32,-17.333,60.852,1
8.927921,-0.823,0.688,-0.184,47.485,-17.395,59.814,1
8.934953,-0.833,0.674,-0.185,52.917,-17.639,58.898,1
8.943252,-0.832,0.661,-0.196,55.053,-17.456,58.105,1
8.949636,-0.833,0.648,-0.199,54.504,-17.7,57.434,1
8.957621,-0.839,0.641,-0.201,51.696,-17.211,56.579,1
8.96546,-0.845,0.632,-0.208,47.241,-16.845,55.969,1
8.971941,-0.845,0.623,-0.212,41.381,-16.174,55.175,1
8.980174,-0.853,0.62,-0.213,35.522,-15.624,54.565,1
8.986736,-0.861,0.618,-0.212,30.761,-15.197,54.199,1
8.995428,-0.871,0.616,-0.211,25.878,-14.831,53.405,1
9.002345,-0.877,0.61,-0.208,21.85,-14.221,53.1,1
9.0094,-0.882,0.605,-0.205,17.7,-14.038,52.856,1
9.017716,-0.894,0.604,-0.2,16.296,-13.244,52.429,1
9.025493,-0.908,0.601,-0.202,17.272,-13.305,52.307,1
9.034365,-0.916,0.606,-0.196,19.104,-13.122,52.185,1
9.042317,-0.911,0.612,-0.197,23.254,-13.366,52.062,1
9.050652,-0.907,0.614,-0.196,30.151,-13.732,51.696,1
9.056788,-0.9,0.615,-0.203,36.071,-14.282,51.33,1
9.065152,-0.907,0.618,-0.209,41.381,-14.648,50.537,1
9.073056,-0.905,0.619,-0.204,45.471,-15.38,49.987,1
9.081527,-0.895,0.615,-0.202,49.621,-15.93,49.255,1
9.090022,-0.887,0.609,-0.202,52.795,-16.54,48.278,1
9.096561,-0.882,0.604,-0.194,54.504,-16.479,47.424,1
9.104346,-0.88,0.605,-0.192,55.114,-16.479,46.508,1
9.112641,-0.876,0.604,-0.197,53.649,-16.357,45.104,1
9.119824,-0.875,0.615,-0.194,52.551,-15.93,44.25,1
9.126802,-0.879,0.62,-0.202,50.048,-15.869,42.785,1
9.135161,-0.894,0.635,-0.197,47.424,-15.258,41.076,1
9.141808,-0.905,0.646,-0.2,45.104,-15.258,39.245,1
9.150004,-0.902,0.642,-0.198,43.884,-14.892,37.658,1
9.158005,-0.911,0.647,-0.189,42.968,-14.465,35.949,1
9.165141,-0.905,0.646,-0.191,42.175,-14.038,33.63,1
9.173318,-0.884,0.648,-0.181,41.076,-13.427,31.921,1
9.180023,-0.867,0.643,-0.187,39.733,-13.122,30.456,1
9.188069,-0.863,0.635,-0.182,36.376,-12.268,28.381,1
9.194693,-0.86,0.631,-0.178,31.86,-11.413,26.489,1
9.203941,-0.852,0.616,-0.179,27.099,-10.742,25.024,1
9.210483,-0.855,0.613,-0.179,22.155,-9.399,23.376,1
9.218716,-0.856,0.603,-0.179,18.127,-8.361,22.216,1
9.225655,-0.845,0.597,-0.169,15.319,-7.751,20.69,1
9.234014,-0.833,0.584,-0.171,13.061,-6.225,19.409,1
9.242537,-0.828,0.578,-0.177,11.352,-5.432,18.676,1
9.249524,-0.837,0.57,-0.172,8.605,-4.455,17.517,1
9.256336,-0.849,0.567,-0.176,6.347,-3.417,16.479,1
9.264781,-0.84,0.562,-0.177,4.272,-3.051,15.869,1
9.272654,-0.849,0.56,-0.176,3.662,-2.014,15.075,1
9.279611,-0.857,0.551,-0.175,3.234,-1.098,14.221,1
9.287243,-0.863,0.551,-0.172,3.295,-0.671,13.916,1
9.296012,-0.856,0.542,-0.175,3.356,0.305,13.305,1
9.302118,-0.848,0.535,-0.174,3.845,1.037,12.817,1
9.310531,-0.853,0.53,-0.174,4.577,1.831,12.451,1
9.317591,-0.859,0.528,-0.177,5.371,2.319,12.268,1
9.325622,-0.854,0.524,-0.177,5.432,2.99,12.023,1
9.333653,-0.855,0.52,-0.182,4.882,3.601,11.413,1
9.340663,-0.855,0.52,-0.183,4.516,4.394,11.108,1
9.348868,-0.852,0.515,-0.184,3.967,5.065,10.864,1
9.35648,-0.856,0.512,-0.185,2.624,6.042,10.375,1
9.364285,-0.855,0.506,-0.187,0.732,6.652,9.521,1
9.372702,-0.854,0.503,-0.188,-1.77,7.629,9.46,1
9.380916,-0.867,0.504,-0.193,-4.516,8.85,8.728,1
9.389169,-0.872,0.513,-0.193,-8.3,9.399,7.995,1
9.39603,-0.859,0.498,-0.19,-13.488,10.192,7.385,1
9.403592,-0.836,0.506,-0.18,-12.329,11.718,7.08,1
9.411801,-0.831,0.509,-0.192,-10.192,11.413,6.103,1
9.418394,-0.831,0.508,-0.174,-6.713,12.512,5.493,1
9.427732,-0.829,0.51,-0.189,-3.479,12.695,4.638,1
9.434246,-0.824,0.509,-0.181,-0.793,12.939,3.479,1
9.442186,-0.814,0.502,-0.188,0.671,13.916,2.807,1
9.449075,-0.808,0.491,-0.193,0.183,14.221,1.892,1
9.457251,-0.813,0.485,-0.19,-1.953,14.953,0.915,1
9.4644,-0.811,0.474,-0.194,-6.286,15.747,-0.183,1
9.472311,-0.815,0.465,-0.194,-10.009,16.662,-0.854,1
9.480269,-0.813,0.458,-0.198,-14.465,17.639,-1.525,1
9.486713,-0.821,0.447,-0.195,-19.592,18.798,-2.38,1
9.494554,-0.842,0.446,-0.205,-25.146,20.324,-2.868,1
9.502518,-0.857,0.443,-0.204,-29.418,20.874,-2.746,1
9.510356,-0.871,0.442,-0.205,-32.348,21.85,-3.601,1
9.517048,-0.877,0.442,-0.204,-33.203,22.705,-4.028,1
9.524838,-0.873,0.447,-0.204,-31.86,23.193,-4.577,1
9.532762,-0.858,0.439,-0.203,-29.479,23.559,-4.699,1
9.541129,-0.855,0.436,-0.205,-27.16,23.864,-5.187,1
9.549315,-0.846,0.438,-0.21,-25.085,24.108,-5.554,1
9.555437,-0.844,0.431,-0.215,-23.376,24.108,-5.981,1
9.563111,-0.84,0.431,-0.221,-22.277,24.353,-6.408,1
9.571342,-0.839,0.422,-0.223,-22.399,24.414,-6.835,1
9.578066,-0.837,0.416,-0.231,-24.047,24.78,-6.958,1
9.585664,-0.843,0.41,-0.237,-27.526,25.207,-7.507,1
9.593923,-0.853,0.409,-0.245,-31.555,25.268,-7.995,1
9.601741,-0.867,0.408,-0.244,-34.912,25.634,-8.117,1
9.610108,-0.878,0.404,-0.247,-36.804,25.451,-8.483,1
9.61676,-0.888,0.401,-0.246,-38.391,25.573,-8.3,1
9.624797,-0.892,0.398,-0.243,-39.367,25.207,-8.666,1
9.632647,-0.887,0.395,-0.246,-38.757,25.329,-8.605,1
9.639154,-0.899,0.389,-0.247,-38.024,25.146,-8.483,1
9.647316,-0.907,0.386,-0.255,-37.78,25.085,-8.239,1
9.654132,-0.899,0.38,-0.252,-37.841,24.78,-8.422,1
9.662634,-0.883,0.379,-0.25,-37.597,24.719,-8.361,1
9.669356,-0.867,0.372,-0.254,-37.536,24.353,-8.178,1
9.6772,-0.858,0.368,-0.257,-38.208,23.925,-8.361,1
9.684206,-0.851,0.364,-0.26,-40.039,23.559,-7.995,1
9.692482,-0.842,0.36,-0.262,-42.236,23.376,-8.422,1
9.70071,-0.837,0.358,-0.267,-45.043,22.766,-8.056,1
9.708574,-0.84,0.357,-0.267,-47.546,22.094,-8.3,1
9.716975,-0.851,0.354,-0.261,-49.56,21.85,-8.239,1
9.725174,-0.848,0.348,-0.263,-50.598,21.179,-7.934,1
9.731772,-0.877,0.354,-0.249,-48.095,20.202,-7.995,1
9.739672,-0.889,0.361,-0.255,-43.64,19.653,-7.934,1
9.746812,-0.895,0.359,-0.251,-39.062,18.859,-7.873,1
9.754452,-0.897,0.363,-0.256,-34.667,18.371,-7.934,1
9.762411,-0.892,0.356,-0.255,-31.066,17.639,-8.178,1
9.770239,-0.896,0.351,-0.26,-27.954,17.028,-7.995,1
9.778525,-0.889,0.349,-0.262,-26.0,16.113,-7.751,1
9.786988,-0.878,0.341,-0.262,-24.23,15.319,-7.751,1
9.793453,-0.873,0.335,-0.26,-22.888,14.648,-7.446,1
9.801956,-0.873,0.335,-0.264,-21.24,13.977,-7.202,1
9.810295,-0.885,0.333,-0.265,-19.287,13.305,-7.141,1
9.816866,-0.903,0.328,-0.269,-17.883,12.878,-6.896,1
9.824814,-0.928,0.322,-0.272,-16.54,12.573,-6.591,1
9.833305,-0.962,0.314,-0.287,-14.831,12.39,-6.591,1
9.841536,-0.994,0.287,-0.315,-12.817,12.634,-6.53,1
9.847831,-0.999,0.253,-0.344,-14.404,12.329,-6.774,1
9.855699,-0.961,0.263,-0.326,-18.798,12.023,-6.591,1
9.862526,-0.909,0.272,-0.328,-21.85,13.549,-5.737,1
9.870732,-0.906,0.291,-0.342,-20.996,12.329,-5.31,1
9.877122,-0.942,0.297,-0.338,-16.174,12.39,-4.882,1
9.88486,-0.949,0.288,-0.357,-11.718,11.352,-4.455,1
9.892617,-0.942,0.283,-0.357,-8.178,10.742,-3.967,1
9.900943,-0.92,0.273,-0.36,-6.591,10.437,-3.417,1
9.909328,-0.916,0.278,-0.363,-6.53,9.521,-2.685,1
9.91705,-0.914,0.28,-0.358,-7.08,9.155,-1.953,1
9.925371,-0.909,0.285,-0.352,-8.483,8.728,-1.098,1
9.933214,-0.899,0.284,-0.348,-9.826,8.117,-0.61,1
9.940291,-0.895,0.287,-0.342,-12.207,7.751,0.061,1
9.948024,-0.895,0.289,-0.333,-15.441,7.385,0.427,1
9.955932,-0.899,0.295,-0.324,-17.639,7.08,1.159,1
9.964163,-0.907,0.296,-0.321,-19.226,6.53,1.892,1
9.972517,-0.922,0.303,-0.313,-20.08,6.286,2.746,1
9.979404,-0.925,0.307,-0.306,-19.47,5.798,3.173,1
9.987087,-0.922,0.315,-0.296,-17.272,4.882,3.845,1
9.995199,-0.916,0.319,-0.297,-15.075,4.15,4.272,1
