timestamp_s,ax,ay,az,gx,gy,gz,label
0.006517,1.016,-0.155,0.156,-1.281,1.831,-3.356,1
0.014588,1.02,-0.161,0.157,-2.075,2.136,-2.563,1
0.023261,1.018,-0.168,0.16,-3.479,2.685,-2.197,1
0.03089,1.02,-0.166,0.155,-4.638,2.99,-1.77,1
0.039077,1.015,-0.168,0.159,-5.737,3.356,-1.403,1
0.047624,1.011,-0.169,0.16,-5.92,3.54,-0.793,1
0.055578,1.008,-0.16,0.151,-4.455,3.723,-0.244,1
0.063582,1.01,-0.159,0.149,-2.868,3.479,0.122,1
0.070289,1.01,-0.155,0.144,-1.342,3.112,0.549,1
0.07851,0.998,-0.152,0.14,0.366,2.929,1.159,1
0.086542,0.999,-0.145,0.139,1.831,2.685,1.464,1
0.093494,0.986,-0.143,0.138,2.746,2.624,1.708,1
0.101535,0.975,-0.142,0.134,3.295,2.258,2.258,1
0.108544,0.97,-0.136,0.135,2.319,2.441,2.38,1
0.11559,0.969,-0.138,0.13,0.976,2.38,2.868,1
0.123694,0.978,-0.134,0.131,-1.22,2.563,3.234,1
0.131879,0.988,-0.131,0.124,-2.624,2.807,3.601,1
0.138862,0.981,-0.128,0.125,-2.807,2.563,4.211,1
0.14787,0.985,-0.116,0.118,-2.258,2.441,4.089,1
0.155708,0.984,-0.113,0.113,-1.464,2.319,4.638,1
0.162753,0.98,-0.112,0.109,-1.281,2.136,4.76,1
0.170994,0.986,-0.111,0.104,-2.014,2.075,4.821,1
0.178192,0.987,-0.116,0.106,-3.356,1.831,5.004,1
0.186113,0.997,-0.116,0.107,-4.76,1.831,5.126,1
0.19435,1.0,-0.107,0.107,-5.249,1.953,5.371,1
0.203047,1.009,-0.103,0.11,-4.638,1.586,5.31,1
0.21014,1.012,-0.103,0.113,-2.99,1.22,5.676,1
0.217953,1.012,-0.1,0.109,-1.464,1.098,5.676,1
0.226447,1.023,-0.104,0.104,-0.854,0.915,6.103,1
0.232911,1.034,-0.106,0.103,-1.342,0.732,6.042,1
0.241199,1.042,-0.104,0.099,-2.441,0.915,6.469,1
0.248951,1.048,-0.094,0.092,-3.295,0.732,6.591,1
0.25767,1.048,-0.084,0.088,-3.295,0.244,6.53,1
0.265469,1.049,-0.079,0.088,-2.807,0.061,6.652,1
0.272302,1.052,-0.078,0.091,-1.647,-0.183,6.591,1
0.279506,1.055,-0.074,0.093,-1.342,-0.61,6.103,1
0.287752,1.059,-0.073,0.095,-1.342,-0.793,6.103,1
0.296218,1.067,-0.079,0.1,-1.403,-0.976,5.92,1
0.304772,1.082,-0.073,0.099,-1.281,-0.732,5.798,1
0.312981,1.095,-0.075,0.097,-1.037,-0.793,5.798,1
0.319903,1.112,-0.072,0.096,-0.671,-0.61,5.432,1
0.328001,1.126,-0.075,0.088,-0.488,-0.671,5.493,1
0.336753,1.138,-0.078,0.083,-1.098,-0.305,5.432,1
0.342947,1.155,-0.076,0.083,-2.197,0.305,5.065,1
0.351704,1.167,-0.072,0.081,-3.112,0.549,4.821,1
0.359458,1.183,-0.071,0.083,-3.479,0.732,4.455,1
0.366056,1.201,-0.075,0.087,-2.929,1.159,4.272,1
0.374574,1.203,-0.081,0.085,-2.258,1.708,3.845,1
0.381476,1.202,-0.087,0.089,-3.479,2.38,3.479,1
0.389673,1.189,-0.1,0.085,-7.08,3.234,3.112,1
0.396351,1.171,-0.106,0.081,-12.023,3.662,3.601,1
0.404694,1.284,-0.11,0.093,-16.845,5.432,3.906,1
0.411637,1.221,-0.102,0.076,-22.094,6.652,4.15,1
0.419713,1.176,-0.091,0.082,-26.611,7.141,3.967,1
0.426644,1.195,-0.09,0.075,-29.602,9.094,4.15,1
0.43506,1.197,-0.084,0.074,-33.386,9.887,4.394,1
0.442105,1.19,-0.085,0.079,-37.719,11.718,4.211,1
0.449939,1.18,-0.088,0.071,-43.701,13.122,3.54,1
0.458427,1.18,-0.102,0.08,-51.635,15.136,3.479,1
0.464981,1.203,-0.108,0.08,-58.898,16.845,2.929,1
0.474037,1.193,-0.108,0.093,-65.856,19.104,2.99,1
0.481147,1.181,-0.109,0.095,-70.312,20.69,2.99,1
0.487662,1.168,-0.111,0.105,-74.401,22.399,2.99,1
0.495826,1.162,-0.118,0.112,-77.514,23.925,3.662,1
0.504531,1.147,-0.127,0.115,-82.458,26.0,4.15,1
0.511546,1.133,-0.133,0.124,-86.486,28.137,4.455,1
0.519837,1.118,-0.139,0.132,-90.698,29.968,4.455,1
0.52682,1.12,-0.152,0.145,-95.031,31.555,4.699,1
0.535063,1.122,-0.174,0.16,-96.984,33.63,5.249,1
0.543337,1.114,-0.182,0.19,-95.214,35.705,6.347,1
0.550262,1.118,-0.188,0.205,-88.195,37.231,7.202,1
0.558858,1.134,-0.205,0.249,-77.636,38.391,8.605,1
0.565688,1.132,-0.221,0.307,-59.082,40.222,10.498,1
0.574334,1.137,-0.232,0.352,-30.883,41.748,13.061,1
0.580278,1.149,-0.25,0.36,-2.624,42.114,14.892,1
0.588583,1.114,-0.278,0.372,17.7,42.236,16.784,1
0.595297,1.038,-0.321,0.365,23.315,44.372,18.676,1
0.603642,0.973,-0.347,0.339,14.404,46.752,20.69,1
0.611495,0.944,-0.382,0.319,-10.314,49.072,22.705,1
0.618654,0.895,-0.375,0.303,-41.32,56.945,24.353,1
0.627258,0.837,-0.362,0.266,-76.782,59.509,25.573,1
0.635083,0.822,-0.323,0.264,-99.06,66.223,27.221,1
0.641677,0.803,-0.281,0.216,-110.778,67.749,28.259,1
0.649811,0.767,-0.242,0.211,-110.473,71.228,29.602,1
0.656356,0.755,-0.217,0.155,-107.055,72.204,30.761,1
0.664304,0.729,-0.189,0.143,-101.562,73.852,31.677,1
0.67092,0.711,-0.166,0.091,-95.52,74.829,32.958,1
0.679418,0.694,-0.138,0.06,-91.186,75.317,33.447,1
0.686183,0.688,-0.125,0.018,-88.867,76.232,34.301,1
0.694428,0.691,-0.105,-0.025,-88.134,76.965,35.217,1
0.701624,0.702,-0.072,-0.069,-88.439,77.27,36.193,1
0.710283,0.699,-0.036,-0.108,-88.195,76.538,36.743,1
0.718276,0.695,-0.008,-0.142,-85.266,75.744,37.841,1
0.726498,0.691,0.022,-0.172,-82.641,74.584,38.391,1
0.732973,0.705,0.036,-0.201,-81.176,73.547,38.879,1
0.741396,0.716,0.052,-0.23,-82.153,72.998,39.367,1
0.747592,0.73,0.076,-0.27,-84.472,72.265,40.039,1
0.755693,0.748,0.097,-0.294,-87.585,71.533,40.039,1
0.763423,0.766,0.144,-0.339,-88.012,69.824,40.588,1
0.77158,0.766,0.185,-0.376,-85.632,67.871,40.344,1
0.778814,0.761,0.212,-0.41,-81.359,65.246,39.916,1
0.786535,0.777,0.227,-0.44,-76.965,62.561,39.001,1
0.794817,0.791,0.236,-0.468,-72.143,59.143,37.902,1
0.802849,0.806,0.241,-0.487,-67.626,55.969,36.865,1
0.811392,0.825,0.246,-0.502,-61.645,52.124,35.949,1
0.818141,0.889,0.247,-0.493,-52.673,46.874,35.644,1
0.826363,0.918,0.25,-0.482,-39.428,42.846,35.095,1
0.835022,0.931,0.25,-0.471,-21.789,37.109,34.423,1
0.841991,0.88,0.242,-0.466,-5.737,32.653,34.179,1
0.849774,0.885,0.238,-0.435,6.164,28.503,34.545,1
0.858372,0.882,0.201,-0.458,3.967,25.573,35.095,1
0.865383,0.756,0.197,-0.429,-6.469,25.207,35.644,1
0.873641,0.967,0.072,-0.442,-34.606,25.085,37.231,1
0.880935,1.061,0.045,-0.514,-74.829,29.418,37.658,1
0.889112,0.963,0.103,-0.472,-121.398,29.052,37.902,1
0.896207,0.952,0.184,-0.509,-145.996,33.874,37.17,1
0.905107,0.937,0.274,-0.533,-153.991,30.09,34.606,1
0.912234,0.942,0.317,-0.532,-135.07,28.442,31.188,1
0.920846,0.966,0.346,-0.526,-106.994,23.681,28.869,1
0.927499,1.009,0.332,-0.551,-75.5,19.348,26.306,1
0.936256,1.028,0.343,-0.538,-48.828,14.648,23.864,1
0.943456,1.054,0.348,-0.529,-27.221,10.62,21.85,1
0.952205,1.077,0.392,-0.52,-5.554,6.835,18.432,1
0.958912,1.1,0.389,-0.532,5.737,1.892,15.502,1
0.967453,1.066,0.38,-0.51,9.704,0.488,13.122,1
0.97568,1.066,0.384,-0.498,4.028,-0.122,11.169,1
0.981994,1.104,0.4,-0.51,-9.277,0.366,9.399,1
0.989863,1.124,0.43,-0.501,-29.479,-0.183,7.019,1
0.998196,1.137,0.456,-0.496,-44.372,0.183,5.249,1
1.006757,1.145,0.494,-0.508,-56.091,-0.488,3.234,1
1.015064,1.153,0.52,-0.505,-64.453,-1.892,0.671,1
1.023624,1.145,0.551,-0.499,-68.298,-2.99,-2.38,1
1.030569,1.095,0.582,-0.476,-64.819,-5.065,-4.699,1
1.038987,1.111,0.584,-0.484,-56.64,-7.446,-7.69,1
1.047697,1.057,0.59,-0.416,-48.339,-10.192,-11.535,1
1.05554,1.067,0.564,-0.395,-42.419,-11.474,-14.709,1
1.062463,1.063,0.554,-0.33,-40.222,-12.329,-17.333,1
1.071561,1.053,0.526,-0.286,-39.855,-11.84,-19.653,1
1.079806,1.019,0.489,-0.215,-45.166,-11.596,-22.094,1
1.086487,0.98,0.443,-0.165,-53.344,-10.009,-23.62,1
1.095211,0.93,0.403,-0.109,-65.124,-8.544,-25.146,1
1.103436,0.869,0.352,-0.031,-77.636,-6.408,-26.245,1
1.110528,0.85,0.316,0.038,-87.707,-3.784,-26.489,1
1.11886,0.869,0.276,0.108,-85.693,-2.807,-25.756,1
1.127245,0.924,0.222,0.206,-67.687,-2.258,-24.658,1
1.134047,0.961,0.188,0.299,-40.344,-1.892,-23.376,1
1.141652,0.949,0.153,0.374,-4.821,-1.037,-21.606,1
1.148621,0.92,0.123,0.447,34.729,-0.305,-19.714,1
1.157323,0.81,0.078,0.498,65.124,2.136,-17.822,1
1.16394,0.815,0.025,0.52,85.205,6.958,-14.953,1
1.171365,0.857,-0.004,0.562,93.078,13.0,-11.657,1
1.179928,0.888,-0.027,0.609,92.895,22.216,-8.117,1
1.186933,0.937,-0.029,0.662,88.623,31.677,-4.516,1
1.194198,1.002,-0.016,0.718,89.172,43.151,-0.854,1
1.201793,1.047,0.01,0.742,97.351,52.246,1.647,1
1.210085,1.095,0.019,0.748,111.328,59.265,3.784,1
1.217335,1.14,0.019,0.729,134.033,65.551,6.591,1
1.224312,1.2,0.002,0.688,158.081,71.472,9.155,1
1.231048,1.223,-0.033,0.612,170.959,76.293,12.207,1
1.239463,1.243,-0.066,0.542,166.992,80.2,14.77,1
1.246586,1.274,-0.104,0.472,141.54,85.205,17.15,1
1.253164,1.33,-0.138,0.398,95.153,90.27,19.165,1
1.261057,1.374,-0.142,0.354,32.043,96.496,21.057,1
1.268581,1.395,-0.081,0.293,-36.132,104.309,21.667,1
1.275553,1.437,0.013,0.226,-89.904,111.511,20.202,1
1.282767,1.453,0.115,0.123,-125.915,117.248,16.662,1
1.290494,1.435,0.215,0.018,-144.042,120.361,12.573,1
1.297759,1.356,0.309,-0.132,-154.907,122.802,5.676,1
1.305757,1.295,0.391,-0.295,-158.203,123.107,-2.868,1
1.312886,1.229,0.438,-0.457,-149.23,122.253,-10.62,1
1.321043,1.157,0.469,-0.638,-131.103,119.812,-17.639,1
1.328724,0.993,0.496,-0.915,-117.492,116.882,-25.024,1
1.336964,0.826,0.512,-1.143,-121.826,112.792,-30.029,1
1.345374,0.673,0.537,-1.354,-137.939,108.398,-34.79,1
1.352124,0.566,0.593,-1.515,-153.198,102.355,-38.94,1
1.360044,0.463,0.661,-1.652,-159.667,95.275,-43.151,1
1.367703,0.387,0.726,-1.763,-155.517,84.716,-47.302,1
1.375805,0.328,0.748,-1.864,-148.742,73.059,-50.292,1
1.383522,0.301,0.743,-1.896,-135.864,60.241,-52.551,1
1.391829,0.335,0.701,-1.897,-114.807,47.729,-53.344,1
1.399696,0.415,0.66,-1.877,-92.102,35.583,-54.016,1
1.408399,0.45,0.617,-1.855,-77.087,24.475,-54.504,1
1.415081,0.524,0.588,-1.822,-69.213,12.939,-54.565,1
1.423553,0.548,0.562,-1.778,-65.246,2.929,-54.504,1
1.430364,0.592,0.519,-1.684,-67.871,-6.591,-54.382,1
1.438632,0.734,0.485,-1.555,-66.223,-13.977,-54.016,1
1.446737,0.8,0.437,-1.449,-63.659,-22.094,-53.344,1
1.454974,0.88,0.38,-1.313,-71.105,-29.052,-52.246,1
1.463384,0.911,0.334,-1.207,-87.158,-33.569,-51.635,1
1.472205,0.91,0.305,-1.085,-109.313,-37.963,-51.452,1
1.478986,0.894,0.3,-0.952,-119.079,-42.419,-52.062,1
1.487591,0.82,0.295,-0.838,-119.323,-46.508,-52.856,1
1.495745,0.866,0.258,-0.739,-111.389,-50.903,-54.199,1
1.503877,0.902,0.234,-0.662,-106.323,-57.006,-57.067,1
1.5121,0.858,0.225,-0.563,-102.478,-57.495,-60.424,1
1.520545,0.821,0.202,-0.532,-110.473,-59.57,-64.636,1
1.529359,0.804,0.189,-0.495,-130.065,-59.02,-70.251,1
1.536366,0.771,0.184,-0.5,-146.484,-59.875,-75.5,1
1.545166,0.712,0.156,-0.507,-157.653,-61.523,-81.97,1
1.551756,0.665,0.122,-0.545,-166.503,-64.147,-87.158,1
1.559338,0.586,0.079,-0.595,-175.476,-67.565,-91.918,1
1.567341,0.464,0.032,-0.657,-176.513,-73.12,-96.618,1
1.5758,0.322,-0.001,-0.689,-169.067,-80.2,-100.891,1
1.582397,0.156,-0.057,-0.747,-157.592,-89.111,-104.919,1
1.590218,-0.016,-0.12,-0.787,-150.756,-98.144,-107.849,1
1.5989,-0.207,-0.219,-0.823,-151.794,-107.421,-109.68,1
1.605918,-0.465,-0.344,-0.791,-180.541,-115.173,-110.656,1
1.614309,-0.587,-0.396,-0.791,-201.66,-123.229,-109.13,1
1.621623,-0.753,-0.474,-0.793,-212.036,-133.483,-105.529,1
1.630254,-0.867,-0.559,-0.808,-213.806,-146.85,-99.243,1
1.638194,-0.975,-0.645,-0.831,-209.472,-159.24,-90.881,1
1.644811,-1.055,-0.731,-0.875,-200.866,-172.79,-81.542,1
1.653834,-1.176,-0.804,-0.904,-178.1,-190.429,-72.082,1
1.660882,-1.433,-0.91,-0.906,-133.117,-210.51,-62.927,1
1.668865,-1.652,-1.042,-0.87,-72.998,-230.895,-52.917,1
1.677196,-1.832,-1.242,-0.86,-13.0,-253.784,-41.076,1
1.685823,-2.031,-1.44,-0.878,11.657,-272.766,-31.066,1
1.692787,-2.281,-1.646,-0.866,11.962,-289.428,-19.47,1
1.701102,-2.664,-1.815,-0.856,4.333,-307.373,-4.028,1
1.708964,-2.978,-1.979,-0.841,-10.62,-323.669,10.62,1
1.716902,-3.407,-2.208,-0.782,-34.667,-339.843,28.747,1
1.726525,-3.702,-2.407,-0.706,-49.743,-358.825,55.786,1
1.733184,-3.976,-2.631,-0.604,-37.292,-378.112,82.092,1
1.742048,-4.254,-2.923,-0.509,-15.869,-396.423,111.694,1
1.748626,-4.582,-3.261,-0.391,2.99,-419.25,150.024,1
1.75752,-4.95,-3.47,-0.235,25.146,-438.171,185.791,1
1.763717,-5.387,-3.662,-0.052,47.363,-457.946,223.022,1
1.772342,-5.958,-3.81,0.145,55.358,-473.449,262.084,1
1.780601,-6.637,-3.938,0.385,26.672,-485.9,303.71,1
1.788962,-7.558,-4.014,0.714,-31.005,-491.638,359.13,1
1.797348,-8.732,-3.976,1.114,-103.271,-488.403,421.997,1
1.805661,-9.736,-3.916,1.482,-195.068,-473.205,484.069,1
1.813746,-10.826,-3.731,2.01,-282.287,-448.73,553.772,1
1.820092,-12.048,-3.448,2.678,-334.167,-407.836,627.929,1
1.828935,-13.183,-3.237,3.238,-381.469,-347.228,715.881,1
1.837032,-14.308,-2.945,3.718,-412.475,-275.756,791.442,1
1.845523,-15.654,-2.56,4.097,-441.101,-192.504,864.318,1
1.851833,-15.996,-2.009,4.322,-470.458,-93.017,933.898,1
1.860076,-15.999,-1.436,4.359,-504.394,38.94,1006.103,1
1.868919,-15.999,-0.772,4.214,-526.184,164.672,1058.166,1
1.875897,-15.999,-0.082,3.761,-554.077,300.048,1097.778,1
1.884066,-15.999,0.728,3.074,-585.51,438.72,1123.474,1
1.890434,-15.999,1.69,2.376,-567.626,576.049,1133.728,1
1.899397,-15.999,2.481,1.464,-535.339,702.941,1130.554,1
1.906467,-15.999,3.276,0.618,-510.07,820.007,1114.624,1
1.915382,-15.999,4.233,-0.293,-467.712,938.354,1078.552,1
1.922002,-15.999,4.989,-0.581,-426.696,1030.456,1034.973,1
1.930014,-15.999,5.208,-1.088,-429.138,1115.661,985.412,1
1.93831,-15.999,5.135,-1.938,-512.146,1201.782,927.246,1
1.945046,-15.999,5.094,-2.252,-596.923,1288.635,857.604,1
1.952039,-15.999,5.337,-2.204,-686.462,1368.835,770.629,1
1.960233,-15.999,5.004,-2.486,-734.741,1446.533,673.156,1
1.967074,-15.999,4.62,-3.417,-829.406,1497.436,551.818,1
1.974177,-15.999,5.108,-3.671,-862.304,1533.996,399.414,1
1.982355,-15.999,4.261,-4.372,-848.205,1551.452,269.592,1
1.989471,-15.999,3.901,-5.187,-921.569,1542.053,106.75,1
1.996233,-15.999,3.573,-5.612,-1047.119,1520.507,-76.11,1
2.004108,-15.999,2.731,-5.791,-1184.753,1463.684,-273.376,1
2.01158,-15.999,2.325,-5.402,-1197.021,1366.088,-468.2,1
2.018962,-15.999,1.349,-4.919,-1132.812,1233.764,-630.554,1
2.027883,-15.999,0.491,-4.254,-1049.316,1092.041,-753.967,1
2.036699,-15.999,-0.35,-3.696,-912.963,922.668,-848.388,1
2.042763,-15.999,-1.002,-3.163,-780.578,781.738,-891.845,1
2.050959,-15.999,-1.598,-2.851,-646.179,661.01,-903.503,1
2.058081,-15.999,-2.028,-2.715,-516.845,550.415,-893.493,1
2.065718,-15.999,-2.324,-2.596,-390.441,460.449,-867.248,1
2.074484,-15.754,-2.655,-2.641,-290.344,382.446,-830.81,1
2.082859,-13.787,-2.919,-2.63,-231.384,320.495,-787.597,1
2.090055,-11.984,-3.042,-2.587,-224.731,258.789,-736.083,1
2.097953,-10.706,-2.993,-2.418,-242.187,213.256,-694.396,1
2.105899,-9.586,-2.91,-2.262,-266.052,172.485,-654.907,1
2.114576,-8.412,-2.916,-2.13,-307.189,127.014,-609.558,1
2.122949,-7.558,-2.799,-1.984,-325.744,87.524,-571.899,1
2.1312,-6.785,-2.637,-1.832,-312.072,41.687,-530.029,1
2.139523,-6.122,-2.545,-1.673,-283.874,6.225,-493.896,1
2.14803,-5.494,-2.463,-1.532,-248.046,-25.634,-457.641,1
2.156296,-4.879,-2.337,-1.329,-195.739,-56.335,-416.381,1
2.164434,-4.25,-2.209,-1.146,-141.418,-78.979,-378.295,1
2.17284,-3.761,-2.166,-1.023,-119.262,-92.651,-347.29,1
2.181221,-3.334,-2.067,-0.886,-112.487,-102.111,-312.316,1
2.18792,-3.076,-1.96,-0.801,-108.459,-108.459,-284.423,1
2.19718,-2.895,-1.87,-0.737,-106.079,-113.22,-258.056,1
2.206064,-2.722,-1.806,-0.69,-109.558,-118.225,-229.003,1
2.212726,-2.486,-1.718,-0.614,-110.717,-122.253,-201.11,1
2.221382,-2.307,-1.653,-0.549,-107.91,-124.572,-178.833,1
2.231047,-2.154,-1.54,-0.466,-91.979,-126.098,-153.808,1
2.237731,-1.962,-1.517,-0.455,-73.425,-127.685,-131.042,1
2.247323,-1.832,-1.487,-0.419,-67.199,-127.685,-112.792,1
2.255747,-1.713,-1.424,-0.373,-57.739,-126.647,-93.261,1
2.264291,-1.56,-1.373,-0.33,-44.555,-126.22,-78.308,1
2.272311,-1.391,-1.339,-0.288,-30.212,-123.718,-61.889,1
2.280884,-1.277,-1.281,-0.267,-21.423,-122.375,-49.255,1
2.287584,-1.174,-1.244,-0.239,-13.732,-119.812,-35.461,1
2.295661,-1.068,-1.222,-0.213,-11.169,-118.103,-24.475,1
2.304522,-0.937,-1.208,-0.189,-11.596,-115.295,-11.84,1
2.313069,-0.835,-1.181,-0.154,-9.338,-112.915,-1.586,1
2.319671,-0.742,-1.153,-0.12,-2.563,-110.534,8.422,1
2.327528,-0.663,-1.141,-0.095,4.943,-107.971,19.531,1
2.335873,-0.593,-1.144,-0.071,7.385,-104.614,28.381,1
2.343664,-0.51,-1.13,-0.056,5.493,-100.708,37.17,1
2.351656,-0.438,-1.102,-0.037,-0.122,-96.252,45.043,1
2.360388,-0.382,-1.081,-0.022,-9.46,-90.515,54.199,1
2.367202,-0.33,-1.058,-0.004,-17.15,-85.571,62.133,1
2.374424,-0.288,-1.031,-0.01,-22.277,-80.993,69.702,1
2.382497,-0.273,-1.012,0.02,-30.09,-75.683,76.538,1
2.390902,-0.251,-0.969,0.02,-36.56,-69.641,83.618,1
2.399483,-0.209,-0.914,0.026,-38.879,-64.086,90.82,1
2.406499,-0.169,-0.88,0.013,-41.687,-56.762,98.327,1
2.41477,-0.117,-0.842,-0.023,-49.56,-51.818,103.271,1
2.423104,-0.076,-0.804,-0.042,-66.772,-43.884,110.046,1
2.429756,-0.041,-0.76,-0.073,-83.984,-36.926,115.783,1
2.437727,-0.002,-0.713,-0.105,-100.769,-29.235,121.093,1
2.445923,-0.032,-0.612,-0.123,-110.9,-23.132,126.098,1
2.454139,0.08,-0.605,-0.17,-118.835,-16.052,130.981,1
2.462432,0.102,-0.565,-0.202,-129.394,-10.07,136.779,1
2.470922,0.176,-0.508,-0.232,-129.272,-4.699,142.028,1
2.477929,0.232,-0.454,-0.257,-119.14,-0.366,148.071,1
2.486254,0.297,-0.448,-0.308,-111.633,3.479,153.259,1
2.494518,0.294,-0.43,-0.348,-111.389,7.507,158.935,1
2.502482,0.356,-0.424,-0.39,-116.027,12.145,164.367,1
2.510734,0.39,-0.391,-0.44,-124.389,17.15,170.959,1
2.519224,0.421,-0.345,-0.483,-128.112,21.667,176.33,1
2.527321,0.479,-0.27,-0.548,-125.854,24.536,181.213,1
2.533963,0.556,-0.204,-0.612,-112.792,26.306,186.34,1
2.542525,0.593,-0.127,-0.692,-98.144,26.306,190.246,1
2.550742,0.673,-0.073,-0.759,-83.068,26.306,194.396,1
2.557508,0.688,-0.035,-0.835,-80.627,26.184,197.631,1
2.564667,0.708,0.011,-0.889,-84.228,27.16,201.538,1
2.573,0.71,0.103,-0.959,-87.951,28.564,204.711,1
2.579955,0.588,0.231,-1.009,-91.064,27.893,206.665,1
2.587778,0.483,0.365,-1.056,-85.51,28.381,207.702,1
2.594577,0.483,0.444,-1.126,-79.223,26.672,207.458,1
2.603278,0.431,0.546,-1.176,-71.533,23.742,206.726,1
2.609782,0.415,0.652,-1.242,-64.392,21.728,206.115,1
2.616751,0.366,0.761,-1.351,-62.866,17.089,204.223,1
2.625057,0.31,0.858,-1.403,-67.504,12.329,202.209,1
2.632217,0.325,0.912,-1.487,-82.641,9.765,199.951,1
2.640295,0.259,0.979,-1.551,-104.248,6.408,197.753,1
2.647384,0.193,1.078,-1.584,-128.967,3.662,194.519,1
2.656039,0.222,1.124,-1.65,-146.057,0.61,190.429,1
2.662977,0.209,1.187,-1.694,-148.925,-4.211,187.011,1
2.671166,0.198,1.215,-1.714,-136.901,-10.375,183.715,1
2.677718,0.189,1.249,-1.719,-113.098,-18.249,179.626,1
2.686039,0.273,1.152,-1.683,-92.712,-27.587,176.269,1
2.692491,0.326,1.038,-1.617,-89.233,-33.691,173.095,1
2.70067,0.337,0.94,-1.551,-101.44,-37.17,171.081,1
2.707421,0.36,0.873,-1.457,-123.413,-39.55,168.579,1
2.716024,0.393,0.852,-1.377,-138.671,-41.32,166.809,1
2.722848,0.426,0.833,-1.319,-135.681,-44.433,165.893,1
2.731074,0.448,0.825,-1.253,-120.117,-48.645,165.283,1
2.737896,0.456,0.785,-1.211,-107.971,-51.696,165.283,1
2.746077,0.398,0.766,-1.18,-103.454,-54.626,165.161,1
2.754783,0.32,0.77,-1.121,-106.567,-57.861,164.733,1
2.761767,0.262,0.784,-1.047,-105.59,-59.448,164.184,1
2.769602,0.232,0.803,-0.995,-100.769,-61.157,163.574,1
2.776478,0.211,0.823,-0.943,-93.872,-62.927,163.024,1
2.784772,0.199,0.846,-0.899,-89.66,-64.331,162.353,1
2.791748,0.194,0.893,-0.898,-88.073,-64.941,161.743,1
2.799974,0.203,0.94,-0.893,-89.477,-66.345,160.644,1
2.808665,0.227,0.997,-0.888,-90.82,-66.833,159.79,1
2.815693,0.238,1.059,-0.898,-91.613,-68.603,157.958,1
2.825292,0.242,1.089,-0.868,-91.064,-70.312,156.372,1
2.832304,0.243,1.104,-0.833,-90.759,-72.082,153.808,1
2.840452,0.266,1.111,-0.79,-88.928,-72.875,152.099,1
2.84767,0.297,1.163,-0.779,-85.571,-73.12,150.329,1
2.856886,0.287,1.212,-0.791,-83.251,-74.523,147.583,1
2.865239,0.276,1.236,-0.794,-85.754,-75.378,144.409,1
2.872234,0.288,1.259,-0.811,-92.468,-76.11,140.502,1
2.880485,0.287,1.286,-0.801,-96.557,-76.782,136.901,1
2.888438,0.28,1.299,-0.787,-96.557,-77.88,133.239,1
2.896777,0.275,1.301,-0.761,-93.994,-78.979,129.455,1
2.903514,0.311,1.285,-0.725,-89.843,-79.467,125.793,1
2.912312,0.338,1.268,-0.705,-82.702,-80.749,122.192,1
2.919829,0.39,1.344,-0.683,-68.969,-81.542,118.103,1
2.926602,0.349,1.365,-0.671,-53.771,-85.205,113.586,1
2.935377,0.33,1.339,-0.645,-45.41,-85.815,109.436,1
2.94232,0.337,1.307,-0.637,-48.645,-86.12,104.858,1
2.951103,0.302,1.275,-0.608,-55.419,-86.669,100.463,1
2.95808,0.287,1.233,-0.569,-62.011,-85.388,95.52,1
2.966394,0.297,1.192,-0.528,-68.237,-84.594,91.247,1
2.973249,0.351,1.203,-0.466,-67.932,-82.824,86.73,1
2.98155,0.394,1.248,-0.449,-54.138,-82.824,83.618,1
2.989802,0.413,1.277,-0.451,-38.635,-83.496,80.261,1
2.998239,0.433,1.275,-0.488,-33.447,-83.679,77.575,1
3.004864,0.446,1.265,-0.516,-40.161,-83.007,74.523,1
3.012924,0.454,1.255,-0.546,-59.204,-81.298,70.8,1
3.021708,0.458,1.248,-0.569,-75.134,-79.65,67.382,1
3.028398,0.457,1.236,-0.569,-83.618,-78.674,63.903,1
3.036759,0.432,1.202,-0.563,-83.129,-78.369,60.607,1
3.044754,0.433,1.175,-0.538,-76.049,-78.735,57.006,1
3.053437,0.447,1.168,-0.512,-68.542,-78.491,54.443,1
3.059998,0.444,1.168,-0.511,-61.34,-78.979,52.124,1
3.068691,0.436,1.173,-0.492,-56.823,-79.528,49.499,1
3.075449,0.422,1.167,-0.473,-52.856,-79.711,47.18,1
3.084097,0.408,1.156,-0.45,-49.804,-79.589,44.738,1
3.091153,0.388,1.133,-0.416,-48.95,-79.345,41.87,1
3.099789,0.358,1.116,-0.382,-51.574,-78.186,39.611,1
3.106734,0.352,1.084,-0.356,-56.701,-76.782,36.743,1
3.115323,0.346,1.059,-0.328,-62.561,-74.584,34.606,1
3.122223,0.35,1.037,-0.313,-68.969,-72.387,31.677,1
3.12981,0.361,1.007,-0.3,-73.12,-70.678,29.785,1
3.137782,0.364,0.971,-0.287,-75.134,-68.542,27.832,1
3.146239,0.373,0.951,-0.281,-76.11,-66.711,25.939,1
3.153668,0.403,0.93,-0.258,-74.707,-65.429,24.841,1
3.161486,0.434,0.917,-0.239,-70.678,-63.781,23.925,1
3.170185,0.459,0.892,-0.22,-66.284,-62.072,23.132,1
3.17684,0.48,0.882,-0.206,-63.537,-60.241,22.888,1
3.185811,0.501,0.876,-0.206,-61.401,-58.349,22.766,1
3.194105,0.538,0.874,-0.206,-59.02,-56.457,22.583,1
3.202473,0.557,0.865,-0.217,-60.729,-54.138,22.766,1
3.209458,0.608,0.85,-0.23,-67.138,-51.635,22.949,1
3.21822,0.642,0.85,-0.248,-76.049,-48.461,22.521,1
3.225156,0.65,0.846,-0.258,-82.458,-45.715,21.972,1
3.233689,0.662,0.845,-0.274,-87.768,-43.029,21.545,1
3.240646,0.679,0.83,-0.28,-93.261,-40.954,20.874,1
3.248549,0.692,0.816,-0.286,-98.937,-38.269,20.324,1
3.256946,0.719,0.797,-0.29,-104.614,-36.071,20.324,1
3.265095,0.779,0.822,-0.291,-101.928,-34.24,20.019,1
3.272837,0.797,0.829,-0.28,-90.698,-33.874,19.653,1
3.281559,0.823,0.804,-0.277,-77.453,-33.081,19.531,1
3.288216,0.826,0.778,-0.277,-72.509,-32.104,19.104,1
3.296261,0.822,0.757,-0.27,-71.594,-30.822,18.737,1
3.304107,0.82,0.739,-0.261,-72.753,-29.357,18.371,1
3.311096,0.833,0.721,-0.257,-72.814,-27.648,17.761,1
3.31982,0.858,0.719,-0.256,-72.021,-26.367,17.761,1
3.327899,0.888,0.715,-0.261,-69.763,-25.329,17.944,1
3.334888,0.935,0.728,-0.278,-65.979,-25.085,18.188,1
3.342684,0.975,0.727,-0.287,-63.598,-25.085,18.859,1
3.350915,0.988,0.735,-0.297,-61.34,-26.0,19.592,1
3.35815,1.008,0.757,-0.304,-57.922,-26.611,20.141,1
3.367707,1.016,0.748,-0.302,-58.837,-28.137,20.08,1
3.376213,0.979,0.737,-0.292,-62.499,-28.991,20.141,1
3.383277,0.968,0.732,-0.276,-64.514,-29.968,20.263,1
3.390491,0.959,0.723,-0.264,-64.147,-30.639,19.897,1
3.39861,0.949,0.715,-0.259,-63.598,-31.311,19.409,1
3.405863,0.934,0.71,-0.26,-61.035,-32.165,18.798,1
3.413803,0.925,0.709,-0.264,-56.701,-33.02,18.188,1
3.422132,0.909,0.705,-0.277,-51.696,-34.118,17.028,1
3.429143,0.893,0.71,-0.28,-46.813,-35.644,15.808,1
3.437516,0.863,0.71,-0.273,-44.311,-36.621,15.197,1
3.44608,0.855,0.702,-0.268,-43.273,-38.024,14.099,1
3.4531,0.84,0.695,-0.262,-44.677,-39.062,13.122,1
3.460967,0.814,0.679,-0.254,-47.363,-39.978,12.329,1
3.469118,0.811,0.664,-0.239,-49.865,-40.344,11.169,1
3.476621,0.795,0.644,-0.233,-52.368,-40.344,9.826,1
3.485003,0.805,0.661,-0.219,-54.809,-40.344,9.033,1
3.493628,0.819,0.64,-0.251,-50.781,-41.503,7.69,1
3.500615,0.814,0.617,-0.229,-44.921,-41.625,6.347,1
3.50897,0.832,0.595,-0.272,-42.114,-42.053,5.371,1
3.517764,0.828,0.585,-0.281,-40.466,-42.846,4.272,1
3.525378,0.823,0.566,-0.305,-42.48,-42.358,3.234,1
3.532403,0.811,0.56,-0.323,-48.339,-42.114,2.075,1
3.541117,0.825,0.545,-0.332,-55.297,-41.87,1.281,1
3.549532,0.818,0.53,-0.332,-60.852,-41.564,0.671,1
3.556156,0.84,0.538,-0.327,-61.645,-41.992,0.183,1
3.564356,0.84,0.564,-0.319,-53.283,-42.053,0.061,1
3.572319,0.866,0.559,-0.319,-36.376,-44.921,-0.061,1
3.579288,0.862,0.558,-0.311,-23.376,-45.471,0.488,1
3.588022,0.861,0.547,-0.318,-16.784,-47.302,0.732,1
3.594992,0.877,0.545,-0.287,-13.061,-47.851,0.793,1
3.603361,0.855,0.537,-0.3,-14.709,-48.095,1.281,1
3.61185,0.824,0.525,-0.3,-19.775,-47.607,1.098,1
3.618382,0.814,0.519,-0.312,-30.029,-46.997,1.098,1
3.62705,0.794,0.517,-0.32,-40.527,-45.959,0.976,1
3.633713,0.78,0.521,-0.349,-50.659,-45.288,0.061,1
3.642445,0.774,0.532,-0.365,-55.847,-44.921,-0.427,1
3.65086,0.778,0.526,-0.372,-58.959,-45.471,-0.732,1
3.659607,0.803,0.516,-0.387,-58.654,-45.715,-1.342,1
3.66629,0.816,0.526,-0.372,-54.748,-46.997,-1.77,1
3.675011,0.816,0.536,-0.362,-46.691,-47.607,-1.953,1
3.683454,0.814,0.548,-0.346,-36.01,-49.011,-2.563,1
3.689996,0.809,0.545,-0.338,-25.146,-49.865,-3.051,1
3.697296,0.811,0.542,-0.33,-17.517,-50.659,-3.845,1
3.705715,0.823,0.541,-0.327,-14.404,-50.659,-4.394,1
3.713949,0.824,0.552,-0.33,-13.793,-50.842,-5.004,1
3.722241,0.816,0.552,-0.327,-16.296,-51.086,-5.737,1
3.730789,0.818,0.565,-0.326,-18.92,-50.903,-6.53,1
3.739526,0.868,0.569,-0.324,-19.775,-51.33,-7.446,1
3.746456,0.873,0.579,-0.331,-19.592,-51.208,-8.3,1
3.755156,0.864,0.589,-0.355,-22.827,-51.94,-9.521,1
3.76202,0.859,0.582,-0.353,-27.832,-52.795,-10.986,1
3.770227,0.862,0.582,-0.343,-32.653,-52.795,-11.962,1
3.778394,0.858,0.592,-0.331,-35.705,-53.405,-12.878,1
3.786717,0.868,0.6,-0.307,-33.508,-54.321,-14.343,1
3.793773,0.853,0.605,-0.289,-28.015,-54.809,-15.441,1
3.80289,0.844,0.611,-0.27,-22.216,-55.419,-16.54,1
3.809754,0.825,0.605,-0.265,-17.822,-56.03,-18.066,1
3.818415,0.825,0.595,-0.248,-17.333,-55.541,-19.653,1
3.827028,0.827,0.575,-0.247,-23.071,-55.114,-21.606,1
3.834945,0.835,0.563,-0.232,-33.142,-53.955,-22.46,1
3.842058,0.843,0.56,-0.22,-46.386,-52.673,-23.742,1
3.850366,0.846,0.565,-0.21,-55.725,-51.757,-25.207,1
3.859012,0.746,0.561,-0.183,-59.997,-51.757,-26.062,1
3.865692,0.829,0.556,-0.152,-57.983,-52.001,-26.245,1
3.875217,0.844,0.536,-0.138,-49.133,-52.856,-27.16,1
3.883539,0.834,0.5,-0.095,-39.184,-52.856,-28.076,1
3.891994,0.848,0.46,-0.069,-28.137,-52.49,-28.686,1
3.898968,0.867,0.427,-0.044,-19.653,-51.757,-28.991,1
3.907322,0.854,0.389,-0.026,-12.573,-50.598,-29.602,1
3.915637,0.842,0.36,-0.004,-9.765,-48.95,-29.724,1
3.922826,0.824,0.328,0.009,-8.728,-46.752,-30.456,1
3.931085,0.834,0.282,-0.005,-10.681,-43.945,-31.127,1
3.937905,0.862,0.248,0.001,-19.226,-41.137,-31.616,1
3.948109,0.895,0.214,0.002,-29.602,-37.841,-31.799,1
3.954589,0.916,0.177,0.007,-43.334,-35.461,-31.738,1
3.962766,0.916,0.136,0.03,-54.138,-33.081,-30.761,1
3.971341,0.873,0.1,0.031,-65.246,-30.578,-29.785,1
3.979754,0.846,0.069,0.061,-76.293,-28.625,-28.503,1
3.986268,0.897,0.047,0.055,-80.993,-26.306,-26.672,1
3.994667,0.922,0.044,0.053,-80.871,-26.306,-25.451,1
4.003456,0.851,0.026,0.045,-78.491,-25.634,-24.23,1
4.011818,0.882,0.005,0.041,-81.787,-25.695,-22.46,1
4.018819,0.892,-0.003,0.048,-84.594,-23.498,-21.911,1
4.027506,0.836,0.016,0.034,-90.698,-22.766,-22.46,1
4.034524,0.796,-0.011,0.056,-99.304,-21.484,-21.85,1
4.043193,0.872,-0.048,0.054,-113.464,-18.859,-18.676,1
4.051683,0.865,-0.042,0.088,-117.553,-14.404,-12.023,1
4.060328,0.71,0.002,0.077,-102.966,-12.878,-6.774,1
4.068696,0.691,0.052,0.076,-72.082,-12.451,-1.892,1
4.07581,0.937,0.043,0.069,-47.241,-10.498,0.183,1
4.084022,1.026,0.03,0.025,-28.625,-8.117,4.333,1
4.092825,1.096,0.005,-0.001,-21.545,-9.582,7.019,1
4.099715,1.091,-0.018,-0.023,-21.179,-6.042,10.07,1
4.107965,1.156,-0.021,-0.064,-31.86,-6.896,13.854,1
4.116402,1.197,-0.008,-0.071,-46.447,-4.455,16.357,1
4.12472,1.191,0.01,-0.096,-65.979,-3.967,19.348,1
4.133121,1.102,0.054,-0.083,-82.519,0.366,23.315,1
4.13933,1.074,0.11,-0.108,-91.43,2.563,26.916,1
4.147984,1.063,0.195,-0.145,-92.468,5.126,28.93,1
4.155788,1.063,0.287,-0.211,-85.021,4.455,29.113,1
4.162921,1.02,0.417,-0.256,-65.917,3.601,27.709,1
4.171102,0.956,0.53,-0.351,-31.311,-1.22,25.329,1
4.179671,0.925,0.595,-0.384,-0.793,-5.981,22.644,1
4.188018,0.962,0.638,-0.459,12.878,-9.643,18.493,1
4.195832,0.966,0.676,-0.467,4.516,-12.023,13.916,1
4.202375,0.916,0.731,-0.453,-13.916,-11.474,10.192,1
4.211125,0.891,0.793,-0.447,-34.484,-12.268,6.286,1
4.217854,0.876,0.861,-0.424,-47.668,-12.634,1.77,1
4.226661,0.86,0.898,-0.416,-50.842,-15.136,-3.112,1
4.234673,0.862,0.831,-0.372,-50.476,-17.028,-6.713,1
4.241731,0.948,0.911,-0.378,-40.283,-17.7,-12.573,1
4.251435,0.91,0.881,-0.338,-33.142,-23.193,-16.967,1
4.25977,0.972,0.758,-0.252,-54.321,-19.409,-16.723,1
4.266916,1.04,0.609,-0.357,-81.787,-25.756,-20.507,1
4.274728,1.066,0.718,-0.198,-74.523,-18.554,-24.841,1
4.282497,0.919,0.478,-0.201,-97.9,-25.817,-22.216,1
4.291205,1.102,0.541,-0.209,-107.971,-16.235,-23.193,1
4.299933,1.039,0.563,-0.135,-112.182,-22.766,-27.77,1
4.307001,0.993,0.484,-0.076,-95.825,-19.287,-27.832,1
4.315448,1.017,0.467,-0.073,-80.139,-22.888,-28.625,1
4.322635,1.013,0.434,-0.031,-60.302,-21.667,-29.541,1
4.330387,0.992,0.387,-0.024,-46.447,-23.742,-30.517,1
4.337308,0.968,0.357,0.008,-38.085,-21.667,-31.005,1
4.344518,0.961,0.343,0.002,-40.71,-21.179,-32.104,1
4.352369,0.936,0.328,0.032,-47.241,-18.554,-32.714,1
4.359384,0.906,0.312,0.035,-58.166,-16.723,-32.958,1
4.366459,0.904,0.312,0.058,-77.087,-13.61,-32.897,1
4.374243,0.917,0.312,0.067,-100.402,-10.437,-33.02,1
4.382608,0.936,0.335,0.082,-119.628,-7.263,-33.081,1
4.389362,0.95,0.378,0.11,-129.943,-4.211,-33.874,1
4.396206,0.96,0.437,0.12,-122.741,-2.563,-35.156,1
4.404545,0.95,0.464,0.121,-107.116,-3.417,-37.109,1
4.411614,0.947,0.471,0.121,-89.721,-4.15,-39.794,1
4.418634,0.961,0.459,0.087,-73.547,-5.31,-43.273,1
4.426352,0.93,0.415,0.101,-62.683,-6.225,-46.203,1
4.435101,0.936,0.367,0.091,-58.776,-4.76,-48.095,1
4.442939,0.929,0.326,0.082,-59.875,-3.906,-49.682,1
4.451782,0.889,0.299,0.064,-56.396,-2.38,-50.842,1
4.45831,0.859,0.275,0.039,-49.865,-2.746,-51.574,1
4.466498,0.837,0.239,0.004,-45.593,-2.502,-51.452,1
4.474525,0.817,0.21,-0.029,-44.921,-3.173,-51.208,1
4.481442,0.823,0.192,-0.052,-42.663,-3.356,-50.842,1
4.489422,0.833,0.169,-0.072,-38.635,-4.699,-49.987,1
4.498075,0.866,0.145,-0.071,-38.146,-4.272,-49.011,1
4.505185,0.893,0.132,-0.081,-41.32,-4.272,-47.424,1
4.513538,0.919,0.135,-0.071,-43.151,-4.76,-46.02,1
4.520266,0.95,0.151,-0.041,-35.827,-6.225,-44.738,1
4.53017,0.991,0.153,0.001,-16.052,-8.056,-43.395,1
4.536596,1.022,0.115,0.046,0.793,-9.46,-41.931,1
4.545268,1.044,0.085,0.071,10.131,-9.216,-40.161,1
4.553607,1.07,0.058,0.093,10.375,-7.446,-37.902,1
4.560623,1.096,0.046,0.105,2.197,-4.943,-35.4,1
4.56953,1.13,0.046,0.122,-8.605,-2.441,-33.63,1
4.576551,1.171,0.077,0.144,-17.211,1.159,-32.104,1
4.584991,1.2,0.126,0.146,-24.169,4.76,-31.311,1
4.592838,1.244,0.171,0.149,-26.245,7.934,-31.677,1
4.601233,1.248,0.219,0.136,-26.55,10.253,-32.775,1
4.608147,1.283,0.263,0.133,-24.414,13.305,-34.484,1
4.616492,1.321,0.303,0.092,-26.489,15.563,-36.56,1
4.623127,1.339,0.332,0.042,-40.466,18.859,-39.733,1
4.6324,1.345,0.383,-0.018,-64.819,22.521,-43.212,1
4.640379,1.368,0.467,-0.1,-89.599,25.024,-48.767,1
4.648875,1.403,0.539,-0.149,-98.388,25.634,-53.466,1
4.655512,1.411,0.608,-0.194,-100.585,25.878,-59.387,1
4.663573,1.408,0.662,-0.256,-100.769,24.597,-65.551,1
4.672273,1.376,0.717,-0.311,-99.365,23.01,-71.96,1
4.680014,1.322,0.748,-0.382,-99.182,21.24,-78.491,1
4.688272,1.259,0.772,-0.462,-102.966,19.226,-86.12,1
4.694887,1.184,0.798,-0.551,-107.421,15.686,-92.651,1
4.703553,1.091,0.823,-0.636,-109.191,11.596,-99.365,1
4.710723,0.973,0.842,-0.721,-108.337,5.798,-105.895,1
4.719435,0.878,0.84,-0.78,-104.675,-1.892,-113.952,1
4.726114,0.791,0.821,-0.817,-103.332,-8.117,-120.666,1
4.733954,0.69,0.79,-0.849,-106.689,-14.587,-126.892,1
4.740808,0.59,0.745,-0.871,-111.45,-21.606,-133.178,1
4.748916,0.499,0.675,-0.887,-113.281,-29.052,-139.038,1
4.757019,0.418,0.584,-0.891,-115.417,-36.804,-144.042,1
4.765034,0.355,0.495,-0.876,-118.286,-44.738,-148.376,1
4.77339,0.273,0.394,-0.843,-117.187,-54.077,-152.038,1
4.7822,0.191,0.31,-0.816,-115.478,-62.072,-154.846,1
4.788843,0.101,0.214,-0.781,-114.44,-71.533,-157.714,1
4.797276,0.004,0.128,-0.733,-110.046,-80.017,-159.729,1
4.805635,-0.092,0.019,-0.71,-101.867,-88.5,-160.949,1
4.813607,-0.233,-0.133,-0.694,-95.336,-98.205,-161.621,1
4.821948,-0.354,-0.307,-0.688,-100.28,-105.651,-160.888,1
4.830603,-0.545,-0.343,-0.637,-108.093,-113.281,-159.79,1
4.83907,-0.799,-0.425,-0.66,-105.59,-123.413,-160.156,1
4.847886,-0.95,-0.56,-0.641,-102.416,-133.544,-157.836,1
4.855849,-1.316,-0.809,-0.686,-109.863,-145.69,-155.395,1
4.863052,-1.497,-1.053,-0.671,-144.47,-150.451,-150.024,1
4.872679,-1.739,-1.276,-0.647,-209.655,-155.395,-140.258,1
4.880997,-1.926,-1.462,-0.605,-261.413,-161.743,-127.502,1
4.889482,-2.127,-1.656,-0.514,-278.808,-175.109,-108.154,1
4.896529,-2.043,-1.888,-0.473,-258.117,-183.593,-86.547,1
4.905446,-2.082,-2.162,-0.435,-221.374,-204.956,-60.546,1
4.912466,-2.03,-2.329,-0.309,-175.476,-211.242,-34.362,1
4.922647,-2.215,-2.598,-0.338,-146.789,-232.177,-2.075,1
4.931437,-2.438,-2.831,-0.234,-131.164,-238.586,27.587,1
4.937985,-2.583,-2.977,-0.205,-116.21,-254.333,63.354,1
4.947066,-2.979,-2.965,-0.092,-85.998,-263.183,100.402,1
4.954008,-3.044,-3.191,-0.088,-76.904,-275.329,135.375,1
4.962762,-3.463,-3.355,-0.035,-84.533,-279.052,172.973,1
4.971018,-3.882,-3.446,0.018,-105.712,-287.902,219.848,1
4.978088,-4.479,-3.52,0.128,-113.891,-290.344,263.549,1
4.986651,-4.995,-3.516,0.244,-107.604,-298.645,315.429,1
4.993917,-5.661,-3.49,0.408,-89.66,-302.246,361.022,1
5.001875,-6.343,-3.448,0.532,-93.566,-305.786,407.043,1
5.010105,-7.252,-3.311,0.728,-106.079,-304.26,454.833,1
5.017309,-8.058,-3.121,0.915,-138.0,-295.471,513.366,1
5.026874,-8.965,-2.906,1.094,-166.992,-282.348,565.734,1
5.035537,-10.072,-2.682,1.305,-221.374,-255.493,630.126,1
5.043985,-11.076,-2.428,1.517,-279.418,-221.435,688.842,1
5.051026,-12.425,-2.023,1.756,-349.243,-167.602,759.094,1
5.059463,-13.906,-1.471,2.02,-387.451,-110.717,818.237,1
5.067732,-15.31,-0.977,2.185,-405.7,-35.583,883.056,1
5.076418,-15.999,-0.454,2.299,-406.433,35.644,934.326,1
5.084743,-15.999,0.165,2.338,-408.813,113.708,980.712,1
5.091993,-15.999,0.748,2.273,-418.395,213.317,1027.893,1
5.098759,-15.999,1.367,2.241,-432.495,307.983,1060.302,1
5.106958,-15.999,1.983,2.115,-448.242,408.813,1082.824,1
5.113854,-15.999,2.575,1.957,-464.172,517.822,1093.994,1
5.121598,-15.999,3.108,1.592,-489.379,633.667,1094.787,1
5.129777,-15.999,3.713,1.164,-513.793,746.093,1080.627,1
5.139955,-15.999,4.321,0.58,-539.123,883.483,1047.79,1
5.146965,-15.999,4.732,0.0,-577.453,995.544,1005.248,1
5.155202,-15.999,4.709,-0.53,-646.545,1116.76,951.599,1
5.163125,-15.999,4.661,-1.212,-773.986,1242.492,859.863,1
5.170131,-15.999,4.437,-1.608,-848.754,1361.694,757.812,1
5.178124,-15.999,4.248,-2.599,-933.471,1452.209,633.483,1
5.185152,-15.999,4.619,-2.696,-908.142,1508.3,488.769,1
5.193427,-15.999,4.203,-2.96,-886.047,1540.649,340.881,1
5.20208,-15.999,4.102,-3.109,-848.815,1534.912,169.25,1
5.208558,-15.999,3.774,-3.279,-718.2,1506.774,36.376,1
5.216734,-15.999,3.351,-3.641,-644.226,1460.754,-72.448,1
5.225532,-15.999,2.843,-4.123,-688.293,1418.884,-175.781,1
5.23401,-15.999,2.205,-4.453,-840.27,1344.848,-314.331,1
5.242232,-15.999,1.956,-4.228,-936.462,1261.352,-445.556,1
5.249457,-15.999,1.555,-4.136,-947.082,1132.263,-589.721,1
5.257338,-15.999,1.039,-3.439,-882.08,999.938,-689.514,1
5.265616,-15.999,0.566,-3.243,-758.239,861.206,-764.038,1
5.273747,-15.999,0.28,-3.104,-639.221,727.6,-803.161,1
5.28213,-15.999,-0.12,-2.817,-519.958,629.333,-816.772,1
5.290856,-15.999,-0.564,-2.854,-433.41,513.427,-815.856,1
5.297542,-15.964,-1.053,-2.712,-400.451,438.964,-802.673,1
5.306167,-14.158,-1.395,-2.561,-401.977,366.394,-782.775,1
5.314949,-12.237,-1.603,-2.223,-415.344,292.236,-752.136,1
5.321985,-10.553,-1.581,-1.976,-401.794,229.492,-722.839,1
5.330662,-9.533,-1.572,-1.825,-371.276,159.179,-686.34,1
5.340707,-8.6,-1.488,-1.623,-334.594,103.881,-653.259,1
5.347965,-7.55,-1.304,-1.32,-269.104,40.588,-608.581,1
5.35662,-6.946,-1.125,-1.093,-206.542,4.028,-577.026,1
5.365387,-6.268,-1.131,-0.995,-176.879,-30.639,-539.001,1
5.374156,-5.733,-0.958,-0.717,-146.667,-56.091,-503.295,1
5.382479,-5.268,-0.846,-0.568,-99.853,-75.683,-471.374,1
5.390842,-4.855,-0.848,-0.456,-69.824,-86.914,-445.678,1
5.399504,-4.343,-0.87,-0.365,-55.297,-93.505,-416.748,1
5.406286,-4.041,-0.86,-0.297,-54.748,-97.778,-393.554,1
5.414478,-3.726,-0.891,-0.236,-57.006,-99.182,-371.032,1
5.422892,-3.435,-0.917,-0.198,-64.331,-100.83,-345.397,1
5.431538,-3.201,-0.957,-0.172,-73.669,-100.463,-323.486,1
5.439555,-3.004,-0.995,-0.173,-88.562,-100.097,-298.645,1
5.447398,-2.845,-1.018,-0.167,-102.172,-99.487,-278.259,1
5.455874,-2.707,-1.032,-0.161,-112.365,-98.754,-255.432,1
5.464262,-2.588,-1.03,-0.15,-105.163,-98.51,-236.267,1
5.472476,-2.429,-1.029,-0.142,-72.937,-99.304,-215.026,1
5.48114,-2.251,-1.041,-0.13,-31.555,-100.585,-198.608,1
5.488236,-2.033,-1.093,-0.141,10.559,-99.853,-180.786,1
5.496191,-1.889,-1.142,-0.158,24.658,-97.045,-166.748,1
5.505455,-1.773,-1.203,-0.193,12.695,-91.979,-151.245,1
5.514196,-1.656,-1.242,-0.22,-7.568,-87.951,-138.427,1
5.520837,-1.531,-1.247,-0.246,-25.573,-85.327,-124.572,1
5.528944,-1.481,-1.256,-0.25,-28.076,-84.777,-112.792,1
5.536831,-1.389,-1.275,-0.251,-16.662,-85.693,-101.196,1
5.543811,-1.313,-1.296,-0.212,9.033,-87.89,-90.82,1
5.551537,-1.255,-1.359,-0.17,39.489,-88.684,-80.078,1
5.559998,-1.14,-1.408,-0.136,61.706,-87.829,-70.434,1
5.56691,-1.029,-1.5,-0.074,70.861,-85.021,-60.729,1
5.575681,-0.885,-1.567,-0.051,63.659,-78.796,-50.659,1
5.582518,-0.744,-1.627,-0.017,42.968,-71.533,-38.391,1
5.591186,-0.612,-1.661,0.013,27.587,-63.72,-27.832,1
5.597817,-0.475,-1.7,0.019,11.413,-56.945,-16.479,1
5.606287,-0.351,-1.73,0.049,-3.662,-49.56,-5.249,1
5.613408,-0.244,-1.717,0.058,-15.136,-42.48,6.591,1
5.621391,-0.167,-1.69,0.063,-22.521,-36.132,17.578,1
5.629775,-0.107,-1.678,0.049,-31.188,-28.503,30.151,1
5.638051,-0.057,-1.665,0.041,-39.55,-22.46,40.222,1
5.645069,-0.008,-1.641,0.033,-44.25,-16.052,50.292,1
5.653771,0.016,-1.607,0.026,-44.677,-10.559,60.058,1
5.660401,0.034,-1.584,-0.009,-47.424,-4.089,69.213,1
5.668799,0.04,-1.576,-0.065,-61.218,4.455,80.017,1
5.677078,0.035,-1.541,-0.11,-78.491,12.634,88.439,1
5.68573,0.019,-1.476,-0.161,-92.346,20.751,96.435,1
5.69271,0.007,-1.397,-0.218,-100.585,27.77,104.309,1
5.700884,0.006,-1.328,-0.285,-106.506,34.851,111.389,1
5.707923,-0.005,-1.247,-0.354,-113.22,41.198,118.164,1
5.716101,-0.007,-1.176,-0.414,-119.75,47.363,125.793,1
5.724362,-0.005,-1.106,-0.471,-118.652,51.818,132.446,1
5.732857,0.03,-1.028,-0.521,-108.398,55.053,140.258,1
5.739158,0.036,-0.958,-0.576,-99.182,58.41,146.789,1
5.746578,0.033,-0.879,-0.651,-94.36,60.913,153.015,1
5.754777,0.018,-0.809,-0.721,-91.491,62.866,159.118,1
5.762788,0.021,-0.753,-0.783,-89.782,64.697,164.916,1
5.771513,0.018,-0.694,-0.825,-88.562,66.65,170.776,1
5.778325,-0.001,-0.626,-0.877,-88.012,68.42,176.086,1
5.78534,-0.018,-0.574,-0.922,-89.599,70.068,181.152,1
5.794417,-0.034,-0.526,-0.979,-95.092,72.387,185.974,1
5.803017,-0.059,-0.481,-1.016,-106.506,74.035,191.284,1
5.810098,-0.032,-0.428,-1.05,-116.699,76.293,196.411,1
5.818775,0.009,-0.372,-1.074,-121.643,77.453,199.707,1
5.825515,0.057,-0.33,-1.108,-124.389,79.711,203.186,1
5.834181,0.029,-0.25,-1.161,-125.915,79.895,206.115,1
5.841173,0.035,-0.192,-1.205,-123.168,79.772,208.435,1
5.849574,0.109,-0.132,-1.243,-114.318,77.819,210.388,1
5.856324,0.075,-0.074,-1.26,-102.05,76.171,212.768,1
5.865072,0.066,-0.027,-1.28,-94.177,74.34,214.66,1
5.872069,0.045,0.024,-1.298,-88.562,72.265,216.125,1
5.880797,-0.005,0.131,-1.296,-78.552,69.641,217.346,1
5.887627,0.121,0.157,-1.346,-65.246,66.467,217.956,1
5.896432,0.081,0.204,-1.375,-58.532,61.706,217.834,1
5.903129,0.069,0.254,-1.395,-52.551,57.128,217.346,1
5.911456,0.112,0.288,-1.397,-48.217,51.513,216.43,1
5.917933,0.121,0.314,-1.374,-43.273,47.241,215.332,1
5.926526,0.129,0.317,-1.363,-41.809,42.419,214.599,1
5.935023,0.038,0.343,-1.315,-43.579,38.085,213.867,1
5.943981,0.044,0.331,-1.286,-44.738,34.362,213.439,1
5.950749,0.009,0.353,-1.248,-44.799,30.822,213.012,1
5.959519,0.007,0.365,-1.228,-38.269,27.343,213.195,1
5.966079,-0.037,0.388,-1.201,-24.902,21.301,213.378,1
5.974771,-0.055,0.353,-1.189,-16.418,17.211,213.684,1
5.982867,-0.075,0.337,-1.177,-15.991,13.061,214.294,1
5.991738,-0.062,0.343,-1.166,-14.831,9.216,215.087,1
5.998902,-0.072,0.35,-1.162,-13.061,5.004,216.003,1
6.006011,-0.075,0.361,-1.147,-15.747,0.976,217.346,1
6.01488,-0.119,0.375,-1.128,-22.094,-1.892,217.834,1
6.023246,-0.181,0.398,-1.086,-27.709,-5.065,219.177,1
6.03023,-0.2,0.424,-1.048,-25.329,-8.544,220.947,1
6.039269,-0.223,0.439,-1.012,-15.441,-12.817,222.045,1
6.047044,-0.217,0.446,-0.973,-3.601,-17.211,224.426,1
6.055576,-0.231,0.47,-0.955,10.742,-22.521,226.684,1
6.06243,-0.264,0.516,-0.948,18.859,-27.038,228.149,1
6.071028,-0.322,0.544,-0.947,18.249,-31.555,229.125,1
6.079513,-0.354,0.587,-0.928,12.878,-35.766,229.858,1
6.088235,-0.377,0.644,-0.907,12.451,-39.245,230.102,1
6.095467,-0.337,0.688,-0.893,14.587,-44.006,230.651,1
6.104156,-0.329,0.763,-0.894,14.709,-46.936,230.407,1
6.111341,-0.312,0.85,-0.879,13.122,-51.513,230.407,1
6.119775,-0.277,0.949,-0.888,12.084,-54.199,230.224,1
6.126938,-0.239,1.081,-0.914,13.244,-58.349,229.614,1
6.134246,-0.22,1.208,-0.926,20.385,-63.11,228.698,1
6.142963,-0.218,1.334,-0.95,30.212,-68.664,226.928,1
6.149658,-0.239,1.437,-0.957,39.123,-74.523,224.365,1
6.157888,-0.244,1.535,-0.994,40.283,-77.941,221.984,1
6.165806,-0.243,1.612,-0.988,33.386,-81.848,216.613,1
6.174035,-0.213,1.675,-0.993,22.033,-83.312,211.547,1
6.182698,-0.204,1.772,-0.983,8.605,-84.533,206.298,1
6.191422,-0.154,1.875,-0.973,-0.427,-85.754,199.34,1
6.199445,-0.151,1.983,-0.947,-0.549,-88.378,190.856,1
6.207275,-0.145,2.055,-0.927,2.929,-91.369,183.288,1
6.215576,-0.118,2.113,-0.895,7.812,-95.153,174.072,1
6.222622,-0.095,2.159,-0.85,15.563,-98.449,165.71,1
6.231462,-0.062,2.181,-0.816,24.963,-102.539,157.226,1
6.239315,-0.023,2.178,-0.766,30.456,-105.285,148.62,1
6.247333,0.019,2.158,-0.72,27.16,-106.567,138.671,1
6.254424,0.053,2.123,-0.691,15.93,-106.75,129.943,1
6.262026,0.117,2.086,-0.648,4.76,-106.384,121.887,1
6.27072,0.215,2.043,-0.609,-1.159,-105.957,114.135,1
6.279485,0.262,1.993,-0.587,-1.159,-106.201,105.773,1
6.286469,0.315,1.936,-0.553,1.159,-105.59,98.999,1
6.294815,0.384,1.848,-0.539,-1.464,-105.285,92.59,1
6.303178,0.477,1.758,-0.521,-8.422,-103.393,86.547,1
6.310764,0.527,1.702,-0.511,-12.573,-102.539,81.909,1
6.319436,0.553,1.652,-0.5,-15.319,-101.074,77.636,1
6.326293,0.595,1.588,-0.503,-26.0,-99.365,73.059,1
6.333238,0.594,1.549,-0.504,-35.827,-98.083,70.373,1
6.341339,0.586,1.511,-0.499,-46.936,-96.435,66.711,1
6.34859,0.622,1.471,-0.508,-54.992,-95.336,63.598,1
6.357525,0.576,1.46,-0.494,-57.617,-95.092,60.546,1
6.365878,0.526,1.426,-0.476,-54.87,-94.543,57.312,1
6.374075,0.496,1.385,-0.481,-50.109,-95.214,53.71,1
6.381159,0.432,1.327,-0.455,-50.476,-95.153,50.781,1
6.389975,0.374,1.283,-0.458,-53.71,-94.421,48.034,1
6.396592,0.351,1.262,-0.448,-59.509,-94.604,44.189,1
6.404392,0.33,1.25,-0.413,-58.959,-94.177,41.503,1
6.413138,0.363,1.252,-0.408,-53.833,-94.726,38.452,1
6.421018,0.321,1.26,-0.363,-46.691,-96.069,35.461,1
6.427994,0.31,1.245,-0.361,-41.32,-96.435,32.348,1
6.436905,0.279,1.219,-0.339,-39.672,-97.778,29.113,1
6.443955,0.275,1.176,-0.325,-41.931,-97.534,26.123,1
6.450677,0.262,1.149,-0.304,-47.424,-97.229,23.498,1
6.459384,0.274,1.099,-0.29,-53.71,-96.313,21.301,1
6.467954,0.293,1.072,-0.277,-61.035,-95.336,19.409,1
6.474933,0.27,1.058,-0.263,-63.11,-93.933,18.432,1
6.483771,0.357,1.041,-0.245,-62.072,-94.116,18.066,1
6.490737,0.396,1.022,-0.227,-57.922,-93.139,18.066,1
6.498992,0.43,1.033,-0.225,-51.513,-93.261,18.188,1
6.505964,0.437,1.029,-0.211,-42.541,-93.505,18.554,1
6.514858,0.447,1.013,-0.207,-32.714,-94.299,18.92,1
6.523074,0.457,1.004,-0.197,-24.597,-95.214,19.226,1
6.529611,0.468,0.982,-0.184,-19.653,-96.13,19.226,1
6.538469,0.469,0.964,-0.163,-16.113,-96.557,19.592,1
6.545174,0.486,0.946,-0.161,-13.61,-96.923,19.653,1
6.553079,0.505,0.949,-0.171,-12.084,-97.595,19.775,1
6.56144,0.5,0.946,-0.191,-12.817,-97.29,19.47,1
6.570302,0.496,0.943,-0.21,-18.676,-97.29,18.798,1
6.576678,0.477,0.937,-0.218,-26.367,-96.557,17.944,1
6.584866,0.459,0.934,-0.216,-34.118,-96.313,16.906,1
6.593156,0.458,0.935,-0.219,-39.733,-95.275,15.869,1
6.600349,0.466,0.934,-0.215,-43.823,-94.909,14.892,1
6.608779,0.479,0.937,-0.208,-45.654,-94.421,13.793,1
6.615412,0.512,0.92,-0.206,-46.447,-94.421,13.488,1
6.624064,0.568,0.99,-0.172,-49.743,-93.811,13.366,1
6.631022,0.552,0.987,-0.176,-38.146,-95.336,11.535,1
6.638916,0.526,0.969,-0.137,-25.634,-94.848,10.437,1
6.645871,0.565,0.945,-0.168,-22.949,-95.214,9.582,1
6.654348,0.582,0.935,-0.164,-25.939,-94.726,8.422,1
6.661454,0.595,0.927,-0.165,-31.616,-93.627,7.751,1
6.669753,0.596,0.941,-0.171,-37.109,-93.2,6.958,1
6.676571,0.615,0.95,-0.173,-39.184,-92.895,6.469,1
6.684987,0.614,0.958,-0.178,-39.123,-92.712,5.737,1
6.693223,0.615,0.961,-0.188,-41.931,-92.468,5.31,1
6.70185,0.615,0.976,-0.209,-43.029,-92.468,3.417,1
6.708951,0.583,0.967,-0.198,-45.654,-91.857,2.319,1
6.715672,0.584,0.958,-0.213,-50.781,-91.43,1.403,1
6.723974,0.6,0.957,-0.202,-56.213,-91.064,0.244,1
6.732175,0.578,0.957,-0.212,-61.889,-90.209,-0.549,1
6.740555,0.557,0.902,-0.239,-77.148,-89.416,-0.854,1
6.748389,0.627,0.968,-0.246,-84.655,-86.608,-2.685,1
6.757078,0.567,0.988,-0.238,-88.562,-89.172,-4.028,1
6.763804,0.553,0.987,-0.248,-88.134,-86.486,-4.699,1
6.772478,0.568,0.986,-0.287,-90.698,-88.073,-5.92,1
6.779568,0.569,1.023,-0.267,-92.895,-86.181,-6.713,1
6.787878,0.572,1.004,-0.306,-87.829,-88.562,-8.911,1
6.796519,0.563,0.981,-0.262,-80.322,-87.341,-10.498,1
6.80342,0.579,0.932,-0.303,-82.031,-87.28,-11.596,1
6.813216,0.518,0.932,-0.276,-100.463,-84.96,-11.352,1
6.82008,0.64,0.92,-0.334,-107.604,-85.327,-13.793,1
6.828685,0.588,0.917,-0.273,-109.863,-84.716,-14.648,1
6.835275,0.511,0.977,-0.281,-122.924,-82.092,-13.671,1
6.843446,0.556,0.96,-0.321,-122.863,-84.777,-14.892,1
6.852183,0.504,0.849,-0.258,-121.459,-85.083,-12.878,1
6.860875,0.523,0.939,-0.349,-108.642,-84.167,-14.221,1
6.867843,0.532,0.861,-0.311,-90.698,-90.454,-14.526,1
6.874578,0.542,0.921,-0.319,-68.115,-88.134,-15.38,1
6.882782,0.554,0.842,-0.375,-53.161,-95.275,-16.418,1
6.891203,0.528,0.791,-0.324,-39.062,-93.688,-15.502,1
6.899454,0.563,0.775,-0.374,-29.174,-96.74,-16.052,1
6.907443,0.568,0.668,-0.327,-28.259,-97.961,-15.624,1
6.914486,0.593,0.657,-0.351,-39.245,-95.214,-15.808,1
6.923098,0.539,0.615,-0.302,-60.607,-94.787,-15.014,1
6.931818,0.591,0.576,-0.361,-87.89,-91.125,-12.817,1
6.940352,0.64,0.573,-0.35,-105.102,-90.698,-11.23,1
6.947403,0.664,0.565,-0.353,-103.088,-92.407,-7.934,1
6.955686,0.681,0.565,-0.296,-80.81,-94.848,-6.53,1
6.963953,0.612,0.465,-0.323,-57.8,-97.229,-4.089,1
6.972429,0.619,0.399,-0.325,-47.363,-98.876,-1.525,1
6.981234,0.534,0.362,-0.318,-40.649,-99.121,0.671,1
6.98818,0.529,0.378,-0.297,-31.982,-99.487,2.807,1
6.996818,0.545,0.39,-0.265,-25.085,-98.754,3.601,1
7.003884,0.554,0.365,-0.251,-27.709,-99.243,5.615,1
7.010719,0.534,0.404,-0.186,-38.757,-94.909,7.995,1
7.019479,0.584,0.421,-0.192,-57.434,-92.895,9.521,1
7.028253,0.593,0.477,-0.142,-75.378,-88.5,12.268,1
7.035215,0.55,0.527,-0.14,-92.163,-86.12,14.343,1
7.042176,0.524,0.554,-0.055,-104.553,-82.519,17.517,1
7.049858,0.52,0.679,-0.099,-105.651,-80.627,19.042,1
7.058064,0.461,0.751,-0.014,-97.534,-81.42,19.592,1
7.065131,0.456,0.816,0.001,-81.665,-77.941,20.202,1
7.072229,0.479,0.873,0.039,-74.279,-78.857,19.836,1
7.080479,0.504,0.923,0.06,-65.979,-75.317,19.165,1
7.087187,0.513,0.965,0.072,-63.232,-75.256,17.822,1
7.094927,0.514,0.994,0.122,-63.537,-71.777,16.296,1
7.102789,0.543,1.023,0.13,-69.152,-69.091,14.831,1
7.109426,0.573,1.044,0.151,-77.087,-66.223,13.061,1
7.116363,0.579,1.07,0.158,-85.51,-62.927,12.207,1
7.125112,0.602,1.098,0.141,-92.712,-60.485,10.375,1
7.131597,0.615,1.138,0.137,-92.285,-59.448,8.239,1
7.138252,0.615,1.168,0.131,-85.144,-58.898,5.676,1
7.14613,0.628,1.18,0.126,-78.186,-58.898,3.662,1
7.153153,0.633,1.196,0.124,-71.166,-59.02,0.61,1
7.160402,0.637,1.197,0.125,-66.833,-58.654,-2.502,1
7.168565,0.654,1.189,0.123,-65.856,-58.044,-6.042,1
7.175207,0.671,1.176,0.119,-65.673,-57.373,-8.972,1
7.182097,0.674,1.154,0.121,-65.185,-57.128,-12.268,1
7.190102,0.686,1.125,0.12,-62.866,-56.701,-15.686,1
7.197013,0.695,1.087,0.109,-57.128,-56.945,-18.493,1
7.204163,0.691,1.05,0.093,-50.109,-57.556,-21.362,1
7.212499,0.676,1.009,0.08,-40.405,-58.166,-23.803,1
7.21946,0.684,0.974,0.062,-29.602,-59.753,-26.245,1
7.229074,0.671,0.937,0.053,-18.005,-61.706,-28.381,1
7.235737,0.673,0.892,0.043,-10.192,-62.683,-30.456,1
7.244402,0.673,0.854,0.029,-8.666,-63.537,-32.47,1
7.25144,0.689,0.813,0.012,-12.695,-63.781,-34.545,1
7.25923,0.716,0.785,0.004,-21.789,-64.208,-36.499,1
7.267584,0.725,0.78,0.022,-30.029,-64.147,-38.085,1
7.275867,0.753,0.784,0.041,-34.79,-64.514,-39.794,1
7.282748,0.766,0.784,0.081,-35.583,-64.453,-41.564,1
7.29146,0.766,0.768,0.093,-37.353,-63.842,-42.907,1
7.298528,0.771,0.753,0.108,-43.151,-63.232,-44.494,1
7.30684,0.785,0.749,0.122,-46.874,-62.499,-45.654,1
7.313981,0.792,0.745,0.135,-50.048,-61.828,-46.691,1
7.322315,0.806,0.742,0.145,-50.354,-60.424,-47.851,1
7.329324,0.825,0.735,0.141,-50.537,-60.119,-48.95,1
7.337179,0.839,0.724,0.147,-50.354,-59.631,-50.476,1
7.345167,0.848,0.711,0.16,-50.109,-59.265,-51.696,1
7.353273,0.86,0.7,0.175,-50.598,-58.349,-52.307,1
7.361554,0.876,0.697,0.199,-51.94,-57.189,-53.649,1
7.370301,0.881,0.693,0.216,-51.025,-56.64,-54.26,1
7.377103,0.894,0.684,0.237,-49.926,-54.992,-55.175,1
7.383979,0.919,0.669,0.243,-51.696,-53.466,-56.091,1
7.39223,0.931,0.657,0.247,-54.992,-51.208,-56.945,1
7.400906,0.937,0.643,0.228,-59.509,-49.133,-57.678,1
7.407908,0.977,0.637,0.218,-61.889,-47.485,-58.532,1
7.415835,0.953,0.624,0.226,-61.523,-46.997,-59.509,1
7.423834,0.952,0.612,0.236,-56.335,-45.41,-60.18,1
7.432092,0.908,0.59,0.251,-48.767,-45.043,-61.584,1
7.439087,0.89,0.541,0.249,-45.227,-42.48,-62.133,1
7.447333,0.923,0.5,0.212,-49.133,-40.466,-62.927,1
7.455993,0.903,0.462,0.193,-60.424,-37.109,-63.659,1
7.463017,0.909,0.439,0.169,-73.73,-35.217,-63.842,1
7.471459,0.922,0.434,0.175,-84.228,-33.203,-63.842,1
7.480479,0.919,0.425,0.186,-91.064,-31.738,-63.964,1
7.487444,0.921,0.424,0.208,-91.735,-30.517,-63.72,1
7.496226,0.929,0.416,0.21,-85.876,-29.479,-63.72,1
7.503048,0.955,0.391,0.205,-81.176,-28.625,-63.72,1
7.511727,0.969,0.364,0.195,-77.514,-28.015,-63.781,1
7.518396,0.978,0.353,0.207,-75.866,-26.367,-63.659,1
7.527053,0.998,0.352,0.192,-74.218,-25.329,-63.293,1
7.533661,0.989,0.368,0.199,-68.054,-24.902,-63.11,1
7.542312,0.965,0.37,0.2,-60.119,-24.291,-63.476,1
7.548967,0.958,0.36,0.201,-53.588,-24.047,-63.659,1
7.5572,0.942,0.345,0.219,-49.499,-23.498,-63.842,1
7.565236,0.921,0.337,0.23,-47.668,-22.766,-63.781,1
7.571815,0.905,0.324,0.24,-46.569,-21.789,-63.964,1
7.580502,0.902,0.309,0.248,-43.334,-20.629,-65.246,1
7.58922,0.907,0.3,0.232,-38.879,-19.226,-65.368,1
7.595995,0.927,0.292,0.217,-32.714,-19.409,-65.124,1
7.604706,0.941,0.286,0.209,-23.01,-18.615,-65.368,1
7.613472,0.958,0.28,0.179,-13.427,-18.188,-65.246,1
7.619993,0.961,0.268,0.158,-11.962,-17.395,-65.185,1
7.628107,0.955,0.258,0.139,-17.272,-16.357,-65.612,1
7.636111,0.937,0.254,0.143,-23.437,-15.624,-66.101,1
7.64484,0.923,0.25,0.15,-27.16,-14.465,-66.955,1
7.651486,0.913,0.244,0.158,-27.648,-13.61,-67.565,1
7.66018,0.9,0.227,0.161,-26.489,-13.305,-68.298,1
7.66848,0.902,0.202,0.162,-24.963,-12.695,-68.969,1
7.675123,0.887,0.174,0.161,-25.268,-12.023,-69.519,1
7.683557,0.888,0.141,0.151,-28.381,-11.352,-69.58,1
7.692256,0.881,0.11,0.156,-31.86,-10.498,-69.824,1
7.699146,0.891,0.09,0.153,-31.494,-9.582,-69.763,1
7.707467,0.913,0.08,0.142,-27.526,-8.789,-69.213,1
7.714494,0.928,0.062,0.11,-24.353,-8.605,-68.725,1
7.722945,0.937,0.044,0.097,-23.071,-8.544,-68.725,1
7.729921,0.941,0.028,0.082,-22.888,-8.911,-68.603,1
7.738389,0.948,0.02,0.083,-21.972,-8.85,-68.786,1
7.746747,0.931,0.003,0.08,-20.507,-9.338,-68.481,1
7.753311,0.919,-0.016,0.086,-18.493,-9.521,-68.054,1
7.762789,0.917,-0.037,0.087,-18.127,-9.582,-67.382,1
7.769881,0.905,-0.053,0.084,-18.493,-9.521,-66.65,1
7.778206,0.89,-0.063,0.082,-18.493,-9.948,-65.795,1
7.785381,0.885,-0.073,0.081,-16.601,-9.948,-64.697,1
7.79361,0.885,-0.08,0.075,-14.465,-9.826,-63.842,1
7.801928,0.882,-0.086,0.07,-10.07,-10.437,-63.049,1
7.80892,0.881,-0.094,0.069,-6.896,-10.986,-62.438,1
7.817302,0.882,-0.101,0.074,-4.272,-11.169,-61.828,1
7.825524,0.878,-0.114,0.08,-2.38,-11.291,-61.34,1
7.832584,0.891,-0.125,0.092,-1.403,-11.047,-60.791,1
7.840343,0.883,-0.135,0.1,-1.708,-10.498,-60.119,1
7.848663,0.878,-0.148,0.107,-4.943,-9.399,-59.448,1
7.855632,0.877,-0.155,0.111,-11.718,-8.666,-58.837,1
7.863984,0.885,-0.168,0.122,-17.089,-7.812,-58.044,1
7.870938,0.882,-0.156,0.125,-20.812,-7.385,-56.762,1
7.87976,0.899,-0.153,0.134,-20.996,-7.812,-55.786,1
7.887771,0.899,-0.145,0.157,-16.54,-7.69,-54.687,1
7.895505,0.901,-0.14,0.162,-12.573,-7.751,-54.199,1
7.903249,0.904,-0.142,0.174,-9.948,-6.958,-53.405,1
7.911171,0.907,-0.143,0.174,-9.704,-6.286,-52.856,1
7.920734,0.916,-0.135,0.185,-10.62,-5.371,-52.429,1
7.927875,0.927,-0.131,0.178,-11.84,-4.272,-52.246,1
7.935517,0.926,-0.135,0.18,-13.183,-3.356,-52.062,1
7.944317,0.928,-0.137,0.184,-13.427,-2.624,-51.513,1
7.952382,0.936,-0.142,0.182,-13.305,-1.708,-51.33,1
7.961115,0.941,-0.145,0.184,-12.756,-0.976,-51.269,1
7.969353,0.945,-0.146,0.183,-12.084,-0.183,-51.208,1
7.975866,0.947,-0.162,0.182,-12.39,0.549,-50.964,1
7.984694,0.948,-0.174,0.182,-12.939,0.854,-51.208,1
7.991305,0.966,-0.19,0.184,-12.939,1.403,-50.72,1
7.999313,0.977,-0.204,0.187,-12.695,2.624,-50.048,1
8.008103,0.978,-0.208,0.182,-12.207,3.601,-49.621,1
8.015122,0.979,-0.213,0.172,-11.169,4.15,-48.889,1
8.023888,0.979,-0.218,0.162,-10.742,4.516,-48.339,1
8.030975,0.978,-0.229,0.153,-11.108,5.065,-47.607,1
8.039596,0.988,-0.238,0.136,-12.756,5.554,-46.997,1
8.046566,1.004,-0.251,0.113,-17.333,6.103,-46.081,1
8.05494,1.027,-0.256,0.089,-22.277,6.286,-45.288,1
8.063241,1.046,-0.258,0.075,-26.611,6.774,-45.227,1
8.071592,1.054,-0.257,0.06,-31.066,6.958,-44.677,1
8.078219,1.05,-0.255,0.042,-33.874,7.263,-44.677,1
8.086594,1.032,-0.255,0.014,-37.841,6.774,-44.799,1
8.09452,1.017,-0.259,-0.004,-42.358,6.286,-44.738,1
8.101663,1.01,-0.27,-0.029,-47.546,5.737,-44.982,1
8.110148,1.002,-0.285,-0.036,-53.405,4.821,-45.227,1
8.117198,0.991,-0.298,-0.049,-58.593,4.394,-45.166,1
8.125255,0.981,-0.319,-0.065,-64.941,3.295,-44.86,1
8.133122,0.975,-0.332,-0.077,-72.814,2.38,-44.86,1
8.140209,0.963,-0.352,-0.09,-81.115,1.464,-44.555,1
8.148332,0.942,-0.375,-0.106,-91.125,0.122,-44.433,1
8.156647,0.905,-0.397,-0.132,-102.416,-1.159,-44.067,1
8.165763,0.88,-0.411,-0.153,-115.478,-3.479,-42.968,1
8.173631,0.88,-0.397,-0.175,-119.628,-6.164,-41.87,1
8.180405,0.863,-0.379,-0.196,-114.685,-10.864,-41.137,1
8.188844,0.804,-0.384,-0.215,-105.773,-15.563,-39.978,1
8.195364,0.773,-0.4,-0.255,-98.693,-21.606,-38.696,1
8.203331,0.735,-0.397,-0.282,-91.552,-26.306,-37.841,1
8.211656,0.661,-0.415,-0.328,-84.228,-32.958,-37.719,1
8.219863,0.56,-0.462,-0.364,-76.171,-38.818,-37.902,1
8.228299,0.561,-0.559,-0.433,-74.951,-45.227,-38.452,1
8.237027,0.533,-0.655,-0.48,-80.566,-50.842,-38.146,1
8.243967,0.486,-0.761,-0.546,-85.388,-57.189,-36.682,1
8.252241,0.458,-0.814,-0.568,-80.078,-65.917,-33.996,1
8.260232,0.406,-0.918,-0.592,-72.57,-74.035,-29.968,1
8.268955,0.402,-0.997,-0.609,-66.65,-84.594,-23.986,1
8.277326,0.336,-1.082,-0.584,-58.227,-94.055,-16.967,1
8.285953,0.297,-1.15,-0.569,-44.616,-105.285,-7.629,1
8.292981,0.243,-1.191,-0.528,-28.747,-114.562,1.525,1
8.302941,0.127,-1.226,-0.507,-13.61,-125.122,12.573,1
8.309487,-0.048,-1.227,-0.476,-13.244,-134.46,23.132,1
8.318193,-0.259,-1.203,-0.444,-19.042,-141.723,31.555,1
8.327105,-0.395,-1.178,-0.406,-18.798,-149.597,39.306,1
8.333685,-0.524,-1.167,-0.362,-9.643,-159.179,48.828,1
8.342548,-0.637,-1.178,-0.321,-3.479,-167.48,56.64,1
8.351498,-0.803,-1.204,-0.277,-5.249,-176.147,66.406,1
8.357966,-0.916,-1.227,-0.222,-11.23,-183.349,75.012,1
8.366669,-1.055,-1.243,-0.159,-15.624,-190.002,84.472,1
8.375101,-1.208,-1.255,-0.073,-15.38,-197.143,94.238,1
8.382225,-1.378,-1.261,0.011,-8.056,-205.139,106.201,1
8.390038,-1.568,-1.263,0.08,-1.159,-211.181,116.699,1
8.398355,-1.762,-1.26,0.166,4.821,-216.735,127.258,1
8.407077,-1.966,-1.273,0.221,11.657,-223.632,139.953,1
8.413588,-2.196,-1.309,0.321,9.094,-228.454,151.428,1
8.421834,-2.447,-1.34,0.409,-5.737,-231.14,165.039,1
8.430134,-2.769,-1.36,0.562,-31.433,-231.689,182.067,1
8.438881,-3.079,-1.385,0.691,-50.109,-230.957,198.608,1
8.445916,-3.283,-1.439,0.832,-58.593,-229.064,216.613,1
8.454009,-3.544,-1.537,0.999,-64.453,-225.952,236.816,1
8.462521,-3.887,-1.618,1.15,-74.584,-219.726,262.817,1
8.469322,-4.271,-1.708,1.302,-87.28,-212.646,286.865,1
8.478193,-4.778,-1.843,1.545,-99.67,-203.369,313.415,1
8.486819,-5.313,-1.978,1.763,-123.718,-186.767,348.022,1
8.493997,-5.968,-2.129,2.031,-153.015,-166.625,381.225,1
8.502313,-6.628,-2.237,2.265,-207.458,-134.643,424.133,1
8.511138,-7.352,-2.256,2.528,-259.216,-98.449,463.928,1
8.518022,-8.221,-2.274,2.875,-296.264,-56.457,505.981,1
8.526863,-9.006,-2.292,3.212,-323.608,3.662,557.556,1
8.533476,-9.796,-2.282,3.573,-334.594,62.072,601.928,1
8.541733,-10.652,-2.321,3.964,-354.248,131.103,646.057,1
8.549973,-11.832,-2.23,4.438,-363.525,213.745,689.269,1
8.557791,-13.209,-2.033,4.666,-371.337,321.716,735.046,1
8.565933,-14.938,-1.76,4.768,-400.207,426.025,768.127,1
8.574218,-15.999,-1.253,4.614,-439.941,542.053,793.579,1
8.581073,-15.999,-0.405,4.154,-460.937,680.664,808.044,1
8.589342,-15.999,0.378,3.52,-466.674,797.241,807.25,1
8.597953,-15.999,1.174,2.858,-458.984,905.395,794.677,1
8.605125,-15.999,1.953,1.805,-442.626,1014.77,767.211,1
8.612958,-15.999,2.578,1.324,-411.437,1092.285,735.229,1
8.62128,-15.999,3.029,0.893,-374.694,1161.621,702.331,1
8.629272,-15.999,3.431,0.461,-367.248,1222.229,665.954,1
8.635929,-15.999,3.51,-0.269,-377.807,1276.123,625.549,1
8.644376,-15.999,3.773,-0.878,-359.374,1318.603,583.496,1
8.651584,-15.999,4.2,-0.964,-318.664,1349.853,542.297,1
8.659869,-15.999,4.367,-1.355,-333.679,1385.497,498.657,1
8.666851,-15.999,4.215,-1.783,-439.331,1420.226,430.48,1
8.675175,-15.999,4.499,-2.157,-541.687,1453.124,345.153,1
8.6835,-15.999,4.311,-2.94,-642.211,1463.684,236.877,1
8.690206,-15.999,3.8,-3.657,-784.484,1463.317,109.252,1
8.698178,-15.999,3.44,-4.204,-937.377,1432.067,-44.616,1
8.706495,-15.999,2.684,-4.277,-1059.387,1378.723,-215.148,1
8.71359,-15.999,1.75,-4.471,-1091.613,1288.94,-404.541,1
8.722617,-15.999,0.926,-4.39,-1128.112,1175.598,-548.034,1
8.729324,-15.999,0.428,-3.732,-1094.665,1047.79,-665.649,1
8.738169,-15.999,0.19,-3.106,-950.805,905.395,-749.267,1
8.747011,-15.999,-0.262,-2.74,-759.399,749.816,-802.368,1
8.755198,-15.999,-0.74,-2.63,-648.742,630.554,-820.068,1
8.761893,-15.999,-1.101,-2.346,-595.031,527.648,-824.34,1
8.77035,-15.508,-1.24,-2.146,-545.593,417.602,-812.011,1
8.77909,-13.585,-1.44,-1.945,-468.322,331.359,-793.334,1
8.787839,-12.238,-1.694,-1.898,-408.996,249.45,-760.925,1
8.794992,-10.697,-1.898,-1.724,-390.014,178.955,-722.9,1
8.803226,-9.503,-1.953,-1.576,-380.737,125.793,-687.377,1
8.81197,-8.143,-1.916,-1.288,-359.863,75.256,-650.329,1
8.818952,-7.084,-1.859,-1.06,-310.18,26.062,-605.346,1
8.827367,-6.239,-1.812,-0.881,-268.31,-11.474,-566.528,1
8.836099,-5.572,-1.784,-0.712,-249.389,-43.457,-521.057,1
8.844938,-5.121,-1.697,-0.629,-256.53,-68.054,-483.581,1
8.851827,-4.795,-1.582,-0.446,-255.432,-93.749,-440.917,1
8.861979,-4.469,-1.515,-0.369,-240.722,-112.426,-404.846,1
8.87029,-4.128,-1.459,-0.236,-206.726,-131.835,-364.624,1
8.878351,-3.859,-1.407,-0.137,-157.958,-144.836,-326.599,1
8.886999,-3.533,-1.414,-0.073,-117.492,-151.428,-297.302,1
8.896011,-3.395,-1.409,-0.011,-97.106,-151.428,-265.38,1
8.903077,-3.238,-1.369,0.011,-100.219,-147.216,-236.694,1
8.911183,-3.041,-1.315,0.042,-110.717,-141.174,-213.5,1
8.919837,-2.821,-1.244,0.042,-116.455,-136.413,-190.795,1
8.927484,-2.645,-1.183,0.045,-109.497,-132.507,-166.015,1
8.936118,-2.452,-1.146,0.033,-96.191,-129.455,-146.301,1
8.944514,-2.324,-1.096,0.009,-79.04,-126.525,-125.427,1
8.953397,-2.206,-1.055,0.0,-62.805,-124.084,-110.168,1
8.961634,-2.042,-1.018,0.0,-47.302,-120.3,-94.604,1
8.968738,-1.912,-0.983,-0.011,-35.034,-115.6,-80.688,1
8.977005,-1.78,-0.964,-0.018,-30.822,-111.45,-70.251,1
8.984028,-1.668,-0.95,-0.023,-31.982,-107.116,-60.607,1
8.992415,-1.514,-0.959,-0.007,-37.536,-101.44,-50.109,1
9.000837,-1.389,-0.987,-0.007,-48.278,-96.008,-41.076,1
9.009531,-1.268,-1.001,-0.003,-61.523,-90.881,-32.165,1
9.016218,-1.134,-1.007,0.002,-70.19,-85.693,-22.216,1
9.024823,-1.025,-1.015,0.015,-70.068,-81.298,-13.793,1
9.033108,-0.933,-1.026,0.013,-65.612,-77.636,-5.126,1
9.041777,-0.791,-1.05,0.008,-57.128,-73.425,4.516,1
9.048752,-0.68,-1.069,0.019,-52.673,-69.396,12.451,1
9.057488,-0.537,-1.095,0.005,-49.499,-64.392,21.423,1
9.066267,-0.398,-1.116,0.001,-48.95,-59.509,29.418,1
9.074299,-0.311,-1.086,-0.019,-47.668,-54.077,37.963,1
9.082174,-0.178,-1.116,-0.051,-44.982,-50.598,44.86,1
9.090506,-0.044,-1.14,-0.045,-53.833,-44.067,53.466,1
9.098417,0.052,-1.133,-0.074,-66.772,-38.33,61.462,1
9.106727,0.136,-1.132,-0.085,-83.374,-32.836,69.213,1
9.113413,0.244,-1.088,-0.104,-95.275,-26.0,78.491,1
9.122164,0.371,-1.064,-0.092,-95.52,-21.972,86.914,1
9.130738,0.47,-1.036,-0.085,-89.355,-16.845,95.52,1
9.137445,0.545,-0.992,-0.094,-80.017,-12.817,103.759,1
9.146923,0.586,-0.944,-0.096,-68.237,-6.652,113.098,1
9.155093,0.637,-0.9,-0.127,-62.988,-2.014,120.727,1
9.162259,0.628,-0.838,-0.15,-63.598,5.065,128.723,1
9.170148,0.613,-0.76,-0.183,-67.993,10.681,134.887,1
9.178434,0.592,-0.67,-0.218,-71.166,16.235,139.892,1
9.186615,0.565,-0.583,-0.265,-75.683,21.911,144.897,1
9.195401,0.566,-0.533,-0.302,-82.031,27.16,148.62,1
9.201996,0.551,-0.459,-0.334,-90.27,32.653,152.404,1
9.210308,0.523,-0.415,-0.362,-95.031,37.78,155.334,1
9.217387,0.51,-0.377,-0.39,-98.999,42.236,157.836,1
9.227273,0.503,-0.327,-0.414,-98.022,47.363,160.522,1
9.233768,0.529,-0.273,-0.462,-93.078,49.987,162.658,1
9.242277,0.509,-0.22,-0.465,-82.885,51.879,164.306,1
9.250095,0.496,-0.173,-0.492,-70.617,52.917,165.71,1
9.256967,0.479,-0.127,-0.505,-57.495,53.649,166.748,1
9.264841,0.455,-0.063,-0.549,-45.532,53.71,167.724,1
9.272698,0.457,-0.02,-0.563,-34.79,53.222,167.968,1
9.279848,0.476,0.019,-0.583,-23.437,52.551,168.029,1
9.289942,0.404,0.062,-0.6,-15.808,51.33,168.212,1
9.29629,0.417,0.098,-0.615,-10.62,50.964,168.823,1
9.306243,0.421,0.133,-0.669,-13.366,50.17,168.762,1
9.313314,0.446,0.163,-0.683,-20.446,49.987,168.518,1
9.3199,0.452,0.189,-0.729,-27.648,49.804,168.457,1
9.328257,0.429,0.213,-0.768,-34.057,49.255,168.029,1
9.335259,0.427,0.234,-0.794,-39.123,48.034,167.724,1
9.343928,0.415,0.259,-0.832,-42.175,47.546,167.419,1
9.350814,0.427,0.301,-0.877,-45.715,45.471,166.809,1
9.359047,0.423,0.335,-0.912,-49.438,43.64,165.893,1
9.365935,0.468,0.368,-0.94,-51.757,41.198,164.733,1
9.374432,0.479,0.387,-0.964,-50.354,38.879,163.391,1
9.381049,0.425,0.417,-0.961,-47.119,34.973,162.109,1
9.389373,0.458,0.421,-1.035,-40.466,33.508,160.766,1
9.397247,0.429,0.444,-1.029,-37.414,28.137,158.813,1
9.40544,0.413,0.425,-1.083,-37.17,26.977,157.409,1
9.414085,0.347,0.437,-1.077,-41.992,23.498,155.639,1
9.421146,0.388,0.476,-1.056,-39.855,21.667,153.991,1
9.429341,0.347,0.485,-1.025,-44.067,15.93,151.611,1
9.436493,0.318,0.444,-1.108,-51.208,16.906,150.329,1
9.444677,0.372,0.445,-1.069,-61.706,15.563,147.949,1
9.451477,0.372,0.482,-1.09,-70.617,14.282,146.057,1
9.459324,0.382,0.486,-1.056,-79.406,11.535,143.798,1
9.468483,0.376,0.497,-1.071,-83.007,11.962,142.578,1
9.475952,0.426,0.481,-1.091,-80.078,9.826,141.113,1
9.482534,0.478,0.475,-1.081,-73.913,8.361,139.587,1
9.490312,0.548,0.488,-1.062,-68.237,5.92,138.854,1
9.498417,0.614,0.505,-1.068,-64.514,3.662,138.0,1
9.506445,0.669,0.512,-1.064,-65.49,1.892,137.207,1
9.514704,0.669,0.525,-1.058,-71.472,1.464,136.657,1
9.521019,0.7,0.545,-1.048,-80.932,1.953,135.742,1
9.528551,0.774,0.565,-1.025,-91.979,3.723,134.521,1
9.53628,0.716,0.621,-1.009,-103.454,2.807,132.873,1
9.54466,0.687,0.64,-1.037,-107.788,6.164,131.347,1
9.552916,0.601,0.7,-1.029,-110.595,4.943,128.295,1
9.559977,0.603,0.723,-1.046,-102.905,5.187,125.549,1
9.568217,0.607,0.749,-1.08,-89.904,3.662,122.558,1
9.57542,0.565,0.761,-1.129,-78.613,1.708,119.445,1
9.584119,0.595,0.76,-1.148,-72.875,-0.915,115.783,1
9.59092,0.631,0.731,-1.213,-75.256,-0.427,112.426,1
9.599569,0.591,0.733,-1.196,-85.815,-2.441,109.008,1
9.606356,0.629,0.726,-1.229,-94.604,-0.732,106.445,1
9.614937,0.621,0.741,-1.219,-101.135,-2.99,102.661,1
9.623074,0.628,0.758,-1.197,-96.557,-3.845,100.097,1
9.629634,0.556,0.771,-1.206,-86.242,-7.385,97.656,1
9.637854,0.654,0.781,-1.147,-70.922,-9.399,95.52,1
9.646506,0.704,0.75,-1.204,-65.612,-12.939,92.712,1
9.653162,0.747,0.742,-1.165,-65.307,-15.136,90.209,1
9.661502,0.796,0.762,-1.202,-64.208,-17.822,88.5,1
9.668473,0.832,0.803,-1.188,-55.725,-21.667,86.181,1
9.676982,0.835,0.812,-1.183,-45.471,-24.78,84.35,1
9.684013,0.84,0.83,-1.189,-38.269,-29.113,82.214,1
9.691516,0.817,0.838,-1.187,-35.095,-32.348,79.956,1
9.699817,0.794,0.852,-1.186,-36.254,-35.888,77.514,1
9.707969,0.759,0.867,-1.167,-37.536,-39.733,75.5,1
9.715955,0.715,0.875,-1.142,-36.376,-43.395,72.448,1
9.722644,0.676,0.871,-1.101,-34.912,-47.851,68.847,1
9.730856,0.657,0.873,-1.065,-34.362,-51.208,66.04,1
9.739039,0.626,0.87,-1.05,-33.569,-55.114,62.927,1
9.746682,0.598,0.871,-0.99,-33.325,-59.631,59.448,1
9.755471,0.635,0.862,-0.933,-28.808,-63.11,56.03,1
9.763366,0.625,0.817,-0.824,-24.536,-65.917,53.527,1
9.77012,0.732,0.806,-0.785,-20.141,-67.687,51.391,1
9.778734,0.729,0.798,-0.709,-13.488,-70.19,48.889,1
9.785824,0.766,0.792,-0.676,-7.568,-70.19,46.813,1
9.794282,0.797,0.781,-0.647,-4.394,-71.838,43.64,1
9.80096,0.818,0.779,-0.622,-4.577,-71.533,40.588,1
9.809342,0.828,0.77,-0.61,-6.53,-72.509,36.926,1
9.821129,0.832,0.753,-0.566,-7.507,-72.387,34.24,1
9.828403,0.863,0.726,-0.545,-9.277,-72.631,30.517,1
9.836673,0.87,0.668,-0.495,-12.939,-72.021,27.832,1
9.843618,0.926,0.657,-0.458,-15.624,-71.533,25.695,1
9.851606,0.93,0.63,-0.416,-15.014,-71.228,23.559,1
9.859536,0.924,0.589,-0.383,-15.808,-69.702,22.46,1
9.866072,0.941,0.566,-0.367,-22.216,-68.603,20.935,1
9.874105,0.937,0.554,-0.342,-30.7,-66.711,19.897,1
9.882465,0.926,0.534,-0.318,-39.489,-64.819,18.92,1
9.889144,0.926,0.527,-0.293,-46.569,-62.988,18.249,1
9.899081,0.911,0.516,-0.275,-50.598,-61.096,17.639,1
9.90764,0.894,0.508,-0.259,-52.246,-59.143,16.906,1
9.914693,0.882,0.497,-0.24,-51.879,-57.495,16.296,1
9.921145,0.868,0.484,-0.222,-50.17,-56.213,15.808,1
9.930825,0.845,0.464,-0.207,-48.828,-54.809,15.319,1
9.938276,0.824,0.444,-0.186,-46.936,-52.856,14.77,1
9.946942,0.813,0.426,-0.173,-44.982,-51.269,14.343,1
9.953701,0.806,0.407,-0.166,-44.25,-49.316,14.038,1
9.962422,0.782,0.398,-0.169,-44.555,-47.485,13.854,1
9.970425,0.759,0.395,-0.17,-46.264,-44.86,13.488,1
9.978739,0.734,0.397,-0.179,-47.302,-42.785,12.817,1
9.985417,0.705,0.4,-0.185,-45.776,-41.503,12.145,1
9.993748,0.683,0.397,-0.19,-39.794,-39.916,11.169,1
