timestamp_s,ax,ay,az,gx,gy,gz,label
0.005956,0.663,0.654,0.374,0.122,-0.305,0.244,1
0.014357,0.669,0.654,0.38,0.061,-0.305,0.366,1
0.020663,0.666,0.654,0.384,0.122,-0.488,0.549,1
0.028743,0.667,0.654,0.377,-0.305,-0.488,0.61,1
0.035316,0.667,0.653,0.382,-0.366,-0.305,0.488,1
0.043791,0.667,0.658,0.388,-0.244,-0.305,0.427,1
0.050444,0.666,0.654,0.384,0.061,-0.488,0.61,1
0.059099,0.665,0.656,0.39,0.183,-0.427,0.671,1
0.065812,0.668,0.654,0.382,0.427,-0.366,0.671,1
0.072603,0.667,0.654,0.386,0.244,-0.244,0.732,1
0.080832,0.665,0.649,0.385,0.427,-0.427,0.671,1
0.087663,0.669,0.655,0.385,0.549,-0.244,0.793,1
0.095697,0.666,0.652,0.385,0.183,-0.244,0.671,1
0.102033,0.667,0.652,0.383,-0.427,-0.427,1.037,1
0.1103,0.665,0.658,0.381,-0.427,-0.549,0.793,1
0.117135,0.672,0.662,0.384,-0.427,-0.549,0.793,1
0.125697,0.675,0.659,0.384,0.061,-0.488,0.976,1
0.132201,0.669,0.657,0.385,0.244,-0.61,0.915,1
0.139721,0.668,0.658,0.385,0.488,-0.366,0.854,1
0.147986,0.668,0.657,0.379,0.488,-0.61,0.793,1
0.154673,0.668,0.655,0.384,0.854,-0.61,0.976,1
0.161571,0.671,0.656,0.388,0.244,-0.427,0.793,1
0.170018,0.673,0.661,0.383,0.366,-0.549,0.732,1
0.17809,0.668,0.663,0.38,-0.122,-0.61,0.976,1
0.184265,0.669,0.664,0.383,0.122,-0.671,0.732,1
0.19257,0.667,0.667,0.38,0.061,-0.549,0.732,1
0.199362,0.666,0.667,0.386,0.305,-0.915,0.854,1
0.207491,0.668,0.673,0.391,0.549,-0.854,0.854,1
0.213767,0.667,0.667,0.398,0.976,-0.61,0.549,1
0.221806,0.676,0.671,0.397,1.281,-0.976,0.61,1
0.2286,0.668,0.67,0.401,2.624,-0.732,0.427,1
0.236741,0.674,0.667,0.396,2.624,-0.61,0.244,1
0.243588,0.671,0.672,0.396,2.319,-0.427,0.366,1
0.251595,0.669,0.678,0.394,2.136,-0.305,0.305,1
0.258363,0.667,0.679,0.397,2.319,-0.549,0.0,1
0.266499,0.673,0.684,0.399,2.075,-0.61,-0.122,1
0.273438,0.675,0.681,0.396,2.075,-0.183,-0.244,1
0.281407,0.67,0.684,0.395,1.708,-0.305,-0.305,1
0.289497,0.668,0.678,0.394,1.586,0.0,-0.488,1
0.296222,0.667,0.683,0.394,1.525,-0.305,-0.915,1
0.303006,0.672,0.674,0.393,1.464,-0.305,-0.732,1
0.311267,0.672,0.673,0.39,1.647,0.061,-0.732,1
0.317667,0.671,0.671,0.389,1.708,0.183,-1.159,1
0.325828,0.671,0.668,0.384,1.281,0.0,-1.22,1
0.332639,0.669,0.664,0.382,1.647,-0.122,-1.098,1
0.340804,0.675,0.658,0.382,1.647,-0.061,-1.159,1
0.348955,0.671,0.652,0.384,1.464,-0.061,-1.464,1
0.355458,0.667,0.647,0.385,1.159,-0.366,-1.281,1
0.363503,0.671,0.641,0.388,0.61,-0.488,-0.976,1
0.371716,0.67,0.64,0.387,0.427,-0.427,-1.098,1
0.379006,0.667,0.638,0.39,0.183,-0.122,-0.793,1
0.387109,0.665,0.634,0.391,-0.183,-0.244,-0.549,1
0.393539,0.665,0.635,0.386,-0.183,-0.366,-0.488,1
0.401739,0.664,0.633,0.386,0.0,-0.183,-0.366,1
0.409744,0.667,0.638,0.386,0.305,-0.305,-0.183,1
0.416129,0.675,0.636,0.388,0.549,-0.366,-0.183,1
0.424356,0.671,0.636,0.384,0.488,-0.488,-0.305,1
0.43108,0.668,0.638,0.384,0.122,-0.305,0.183,1
0.437946,0.666,0.639,0.386,0.427,-0.244,0.122,1
0.446229,0.669,0.638,0.384,0.305,-0.549,0.061,1
0.452886,0.667,0.637,0.382,0.244,-0.488,0.305,1
0.461043,0.666,0.639,0.38,0.122,-0.671,0.427,1
0.469258,0.667,0.639,0.385,0.0,-0.549,0.488,1
0.476055,0.666,0.64,0.383,-0.61,-0.366,0.549,1
0.484004,0.668,0.641,0.384,-0.183,-0.427,0.732,1
0.490402,0.664,0.643,0.383,-0.366,-0.549,0.793,1
0.499008,0.66,0.644,0.381,-0.488,-0.549,1.098,1
0.505578,0.662,0.646,0.382,-0.244,-0.549,0.976,1
0.513751,0.652,0.649,0.38,-0.122,-0.549,0.976,1
0.520492,0.657,0.652,0.389,0.427,-0.793,1.098,1
0.528715,0.66,0.648,0.39,0.854,-0.793,0.854,1
0.535163,0.661,0.643,0.389,1.098,-0.732,1.098,1
0.542811,0.656,0.642,0.391,1.464,-0.732,1.159,1
0.549691,0.659,0.638,0.391,0.915,-0.793,1.342,1
0.556665,0.663,0.642,0.391,0.61,-0.732,1.525,1
0.564228,0.67,0.642,0.383,0.244,-0.793,1.77,1
0.571042,0.67,0.645,0.386,-0.305,-0.793,1.586,1
0.579248,0.669,0.646,0.384,-0.244,-0.854,1.892,1
0.586235,0.671,0.652,0.383,-0.427,-0.732,1.77,1
0.593077,0.668,0.652,0.381,-0.61,-1.037,1.892,1
0.601042,0.665,0.655,0.384,-0.305,-0.915,1.77,1
0.609267,0.666,0.656,0.385,-0.366,-1.159,1.953,1
0.617022,0.666,0.66,0.385,-0.244,-1.22,2.075,1
0.624378,0.673,0.665,0.384,0.061,-1.342,1.892,1
0.63148,0.675,0.659,0.384,-0.061,-1.281,1.708,1
0.638193,0.672,0.668,0.387,-0.122,-1.22,1.77,1
0.645844,0.672,0.667,0.381,-0.427,-1.342,1.525,1
0.654056,0.674,0.669,0.382,-0.366,-1.342,1.464,1
0.660989,0.669,0.675,0.386,0.122,-1.525,1.403,1
0.668884,0.668,0.673,0.39,0.366,-1.77,1.22,1
0.675667,0.669,0.666,0.391,0.549,-1.708,1.159,1
0.683377,0.666,0.67,0.393,0.488,-1.586,1.037,1
0.691499,0.662,0.667,0.396,0.244,-1.525,1.037,1
0.697964,0.662,0.668,0.398,-0.061,-1.708,1.098,1
0.706498,0.666,0.666,0.399,-0.366,-1.403,0.854,1
0.714239,0.665,0.67,0.403,-0.671,-1.403,0.793,1
0.720697,0.662,0.678,0.404,-0.366,-1.22,0.732,1
0.728754,0.666,0.681,0.407,-0.427,-1.22,0.854,1
0.736751,0.667,0.679,0.404,0.122,-1.159,0.732,1
0.744951,0.663,0.674,0.403,0.793,-0.976,0.488,1
0.751719,0.663,0.675,0.401,1.159,-1.159,0.244,1
0.759956,0.663,0.671,0.401,1.037,-1.098,0.488,1
0.768844,0.658,0.672,0.401,0.793,-0.793,0.305,1
0.775126,0.664,0.67,0.399,0.427,-0.854,0.122,1
0.782729,0.661,0.67,0.397,0.305,-0.915,0.0,1
0.791781,0.662,0.666,0.398,0.183,-0.793,0.0,1
0.79911,0.659,0.666,0.393,0.488,-0.915,0.061,1
0.80619,0.663,0.67,0.395,0.0,-0.915,-0.183,1
0.814914,0.666,0.664,0.395,0.366,-0.793,-0.122,1
0.823201,0.662,0.666,0.394,0.671,-0.976,-0.061,1
0.829579,0.664,0.667,0.389,0.61,-0.732,-0.305,1
0.837789,0.663,0.664,0.389,0.488,-0.793,-0.244,1
0.845209,0.664,0.66,0.387,0.854,-0.915,-0.305,1
0.854473,0.665,0.662,0.387,0.976,-1.159,-0.305,1
0.862734,0.662,0.66,0.383,0.732,-1.098,-0.366,1
0.869227,0.661,0.656,0.383,0.732,-1.098,-0.122,1
0.876639,0.666,0.654,0.388,0.732,-1.22,-0.305,1
0.885864,0.662,0.652,0.386,0.427,-1.342,-0.244,1
0.892761,0.661,0.655,0.39,0.366,-1.281,0.0,1
0.900155,0.658,0.651,0.395,0.305,-1.281,0.0,1
0.909069,0.667,0.653,0.399,-0.061,-1.159,-0.061,1
0.916435,0.664,0.652,0.398,0.427,-1.281,0.244,1
0.925334,0.662,0.647,0.404,0.122,-1.22,0.061,1
0.932218,0.656,0.654,0.404,0.366,-1.22,0.305,1
0.941082,0.662,0.657,0.402,0.61,-1.037,-0.061,1
0.948418,0.653,0.655,0.398,1.159,-1.22,0.305,1
0.956528,0.654,0.65,0.398,1.098,-1.281,0.305,1
0.963336,0.657,0.652,0.397,1.037,-1.159,0.488,1
0.970638,0.658,0.653,0.395,0.488,-1.159,0.488,1
0.978121,0.654,0.655,0.396,0.183,-1.098,0.427,1
0.986193,0.661,0.659,0.4,-0.183,-1.037,0.549,1
0.995456,0.662,0.655,0.398,-0.244,-0.976,0.61,1
1.002554,0.658,0.66,0.398,-0.488,-0.915,0.671,1
1.011094,0.66,0.664,0.396,-0.183,-1.098,0.671,1
1.017637,0.657,0.663,0.392,0.061,-0.976,0.61,1
1.025473,0.657,0.665,0.392,0.366,-1.342,0.488,1
1.033445,0.658,0.666,0.393,0.305,-1.159,0.488,1
1.040254,0.663,0.666,0.392,0.366,-1.342,0.366,1
1.048877,0.66,0.67,0.392,0.61,-1.342,0.244,1
1.05529,0.66,0.667,0.393,0.976,-1.464,0.366,1
1.063866,0.66,0.666,0.394,0.671,-1.403,0.427,1
1.071221,0.662,0.662,0.394,0.732,-1.464,0.244,1
1.078863,0.66,0.66,0.395,0.61,-1.586,0.122,1
1.085557,0.665,0.654,0.392,0.488,-1.342,0.183,1
1.093273,0.662,0.656,0.395,0.183,-1.586,0.305,1
1.101504,0.656,0.655,0.395,0.0,-1.464,0.427,1
1.109505,0.658,0.657,0.397,-0.427,-1.525,0.366,1
1.116536,0.664,0.659,0.403,-0.793,-1.525,0.305,1
1.124026,0.657,0.662,0.402,-0.61,-1.342,0.488,1
1.131756,0.656,0.666,0.405,-0.366,-1.464,0.732,1
1.140179,0.656,0.662,0.407,-0.122,-1.525,0.671,1
1.148578,0.659,0.661,0.405,0.183,-1.464,0.427,1
1.15517,0.657,0.661,0.406,0.305,-1.281,0.305,1
1.16424,0.657,0.667,0.406,0.0,-1.525,0.366,1
1.172132,0.663,0.666,0.405,-0.183,-1.525,0.244,1
1.178845,0.659,0.662,0.406,0.061,-1.342,0.183,1
1.186769,0.664,0.66,0.403,0.366,-1.281,-0.061,1
1.194232,0.662,0.665,0.402,0.0,-1.403,0.0,1
1.203003,0.657,0.663,0.403,-0.061,-1.403,0.305,1
1.210443,0.658,0.665,0.401,-0.427,-1.281,0.122,1
1.21883,0.653,0.667,0.408,-0.366,-1.342,0.244,1
1.22559,0.655,0.667,0.409,0.061,-1.098,0.183,1
1.234283,0.656,0.663,0.408,0.244,-1.159,0.122,1
1.241969,0.654,0.663,0.412,0.366,-1.281,0.244,1
1.248977,0.651,0.662,0.414,0.427,-0.854,0.0,1
1.256704,0.651,0.66,0.415,0.854,-0.915,0.183,1
1.264035,0.649,0.657,0.413,0.915,-0.671,0.122,1
1.272652,0.653,0.656,0.407,0.61,-0.671,0.183,1
1.280382,0.656,0.653,0.412,0.366,-0.61,0.244,1
1.288775,0.651,0.654,0.406,0.061,-0.61,0.244,1
1.295775,0.655,0.652,0.406,0.244,-0.671,0.366,1
1.303936,0.653,0.65,0.408,0.183,-0.61,0.488,1
1.312243,0.654,0.652,0.405,0.549,-0.549,0.549,1
1.318898,0.656,0.65,0.406,0.793,-0.671,0.671,1
1.327105,0.655,0.65,0.407,0.488,-0.549,0.793,1
1.335579,0.66,0.65,0.41,0.061,-0.366,0.793,1
1.342762,0.662,0.653,0.412,0.122,-0.488,0.671,1
1.350088,0.663,0.655,0.409,-0.061,-0.61,1.037,1
1.359304,0.661,0.655,0.407,-0.061,-0.427,0.976,1
1.366187,0.661,0.658,0.405,0.0,-0.488,1.22,1
1.374738,0.66,0.66,0.401,0.122,-0.427,1.037,1
1.382824,0.66,0.661,0.401,0.549,-0.549,0.915,1
1.388945,0.66,0.66,0.399,0.305,-0.488,1.037,1
1.39678,0.655,0.657,0.402,0.0,-0.427,0.854,1
1.403754,0.654,0.664,0.399,0.061,-0.793,1.22,1
1.412358,0.653,0.663,0.407,0.122,-0.549,0.915,1
1.420426,0.654,0.665,0.411,0.061,-0.549,1.037,1
1.427201,0.654,0.666,0.413,0.0,-0.488,0.976,1
1.435722,0.649,0.668,0.415,0.0,-0.61,1.159,1
1.443418,0.652,0.674,0.416,0.0,-0.427,0.915,1
1.451362,0.655,0.668,0.415,0.0,-0.244,0.915,1
1.459424,0.654,0.672,0.415,0.061,-0.183,0.671,1
1.466311,0.651,0.675,0.414,0.427,-0.061,0.854,1
1.473519,0.653,0.673,0.412,0.305,-0.061,0.549,1
1.481168,0.654,0.672,0.406,0.366,0.0,0.427,1
1.489056,0.651,0.67,0.406,0.549,0.0,0.183,1
1.497659,0.652,0.669,0.409,0.671,0.122,0.305,1
1.504454,0.651,0.668,0.406,0.305,0.0,0.488,1
1.512493,0.651,0.667,0.406,-0.183,0.0,0.488,1
1.520199,0.648,0.666,0.411,-0.061,0.0,0.244,1
1.528464,0.648,0.666,0.413,0.061,0.061,0.305,1
1.536367,0.654,0.666,0.408,0.183,0.122,0.366,1
1.543871,0.652,0.664,0.412,0.244,0.427,0.366,1
1.551573,0.652,0.668,0.409,0.061,0.183,0.549,1
1.559465,0.651,0.667,0.406,0.305,0.244,0.366,1
1.566149,0.65,0.663,0.399,0.488,0.427,0.427,1
1.57321,0.654,0.666,0.403,0.061,0.366,0.488,1
1.581556,0.649,0.668,0.4,0.122,0.366,0.305,1
1.590235,0.655,0.657,0.396,0.427,0.305,0.244,1
1.596817,0.652,0.664,0.398,0.244,0.061,0.366,1
1.605161,0.651,0.659,0.395,0.183,0.183,0.305,1
1.612542,0.655,0.659,0.394,0.0,0.061,0.366,1
1.620526,0.657,0.657,0.395,0.061,0.305,0.366,1
1.627424,0.656,0.658,0.396,0.061,0.183,0.244,1
1.635746,0.656,0.661,0.395,0.61,0.061,0.366,1
1.642806,0.656,0.659,0.397,0.549,0.061,0.61,1
1.650338,0.657,0.658,0.395,0.366,0.061,0.61,1
1.658838,0.657,0.661,0.389,0.244,-0.061,0.61,1
1.66596,0.655,0.666,0.39,0.122,-0.122,0.549,1
1.674776,0.653,0.662,0.39,0.366,-0.244,0.488,1
1.682426,0.652,0.66,0.39,0.671,-0.488,0.549,1
1.690675,0.649,0.658,0.393,0.305,-0.488,0.793,1
1.697532,0.65,0.656,0.399,0.427,-0.427,0.793,1
1.706274,0.647,0.655,0.398,0.61,-0.549,0.854,1
1.713145,0.645,0.653,0.397,0.305,-0.488,0.793,1
1.720806,0.647,0.653,0.402,0.061,-0.61,1.037,1
1.728151,0.649,0.656,0.398,-0.305,-0.366,1.22,1
1.735402,0.65,0.661,0.402,-0.366,-0.488,1.098,1
1.744245,0.65,0.663,0.403,-0.488,-0.427,1.22,1
1.751262,0.647,0.666,0.402,-0.061,-0.488,1.098,1
1.759484,0.653,0.663,0.399,0.427,-0.61,1.098,1
1.76596,0.658,0.66,0.399,0.549,-0.488,1.098,1
1.773784,0.656,0.659,0.405,0.549,-0.427,1.159,1
1.782695,0.655,0.654,0.405,0.305,-0.732,1.159,1
1.789422,0.657,0.655,0.407,0.183,-0.427,1.403,1
1.79838,0.657,0.658,0.409,0.183,-0.61,1.342,1
1.805028,0.654,0.658,0.413,0.366,-0.427,1.77,1
1.814255,0.656,0.661,0.416,0.976,-0.366,1.525,1
1.820232,0.653,0.659,0.418,1.098,-0.671,1.77,1
1.829726,0.658,0.654,0.418,1.831,-0.427,1.647,1
1.836277,0.659,0.644,0.431,2.502,-0.427,1.647,1
1.844009,0.656,0.644,0.442,2.929,-0.305,1.586,1
1.852729,0.657,0.635,0.458,3.54,-0.732,1.77,1
1.861978,0.653,0.634,0.479,4.699,-0.732,2.197,1
1.868253,0.649,0.632,0.513,6.896,-0.61,2.197,1
1.875756,0.637,0.627,0.554,9.338,-0.549,2.38,1
1.884193,0.627,0.617,0.595,10.559,0.427,2.685,1
1.891535,0.621,0.604,0.639,10.559,1.281,2.99,1
1.89841,0.616,0.593,0.69,10.864,2.563,3.356,1
1.907042,0.608,0.579,0.745,12.39,4.211,3.845,1
1.914597,0.605,0.569,0.792,14.404,5.981,4.638,1
1.921841,0.609,0.546,0.833,16.235,8.117,5.371,1
1.930614,0.611,0.524,0.864,16.784,10.559,6.042,1
1.937435,0.597,0.511,0.902,15.747,14.038,7.263,1
1.94442,0.597,0.498,0.932,15.319,16.967,8.361,1
1.95237,0.593,0.484,0.95,15.075,19.653,9.155,1
1.9601,0.593,0.476,0.976,15.747,22.583,10.498,1
1.968055,0.581,0.47,0.998,17.028,25.817,11.901,1
1.974873,0.57,0.464,1.017,19.042,28.869,13.122,1
1.981797,0.567,0.452,1.046,21.789,32.226,14.404,1
1.989996,0.565,0.434,1.068,24.169,35.583,15.624,1
1.997087,0.55,0.429,1.09,24.658,38.94,17.456,1
2.006172,0.549,0.407,1.106,25.512,42.846,19.165,1
2.01301,0.547,0.407,1.118,25.085,46.813,21.057,1
2.020573,0.541,0.413,1.141,25.512,50.964,22.827,1
2.028933,0.538,0.419,1.156,26.733,55.114,24.658,1
2.035824,0.522,0.427,1.172,28.503,58.959,26.367,1
2.044198,0.504,0.433,1.189,31.311,63.232,28.015,1
2.0512,0.49,0.438,1.2,35.034,67.26,29.968,1
2.05878,0.478,0.442,1.198,38.513,72.448,32.165,1
2.06738,0.462,0.446,1.19,40.344,76.965,33.874,1
2.074547,0.456,0.459,1.187,42.724,81.298,35.766,1
2.081168,0.446,0.472,1.167,46.02,84.777,37.109,1
2.089359,0.426,0.499,1.156,52.856,88.317,39.123,1
2.096188,0.402,0.533,1.15,64.086,91.613,40.649,1
2.105378,0.383,0.554,1.136,79.711,94.421,42.785,1
2.112638,0.363,0.565,1.124,95.092,97.29,45.532,1
2.120162,0.343,0.575,1.118,103.149,100.097,48.095,1
2.127843,0.333,0.6,1.11,106.14,103.21,50.17,1
2.136345,0.314,0.619,1.104,104.614,107.177,52.246,1
2.143967,0.289,0.645,1.091,100.219,111.572,53.833,1
2.153907,0.269,0.663,1.063,93.444,115.905,55.603,1
2.161194,0.229,0.706,1.019,80.505,122.863,57.556,1
2.16977,0.203,0.747,0.991,71.899,127.258,58.166,1
2.177279,0.165,0.772,0.948,67.016,130.737,58.227,1
2.184691,0.132,0.82,0.9,63.72,134.094,58.654,1
2.191574,0.112,0.857,0.853,61.218,138.061,58.532,1
2.20033,0.106,0.892,0.8,59.57,140.747,58.532,1
2.207319,0.101,0.928,0.757,59.936,143.005,57.8,1
2.214686,0.1,0.948,0.698,61.279,145.08,57.312,1
2.222337,0.11,0.971,0.647,61.828,146.301,56.945,1
2.230998,0.111,0.997,0.598,61.279,148.315,56.64,1
2.237981,0.11,1.023,0.544,58.227,149.353,56.03,1
2.245673,0.112,1.053,0.494,55.114,150.512,55.297,1
2.253076,0.116,1.079,0.458,55.847,151.306,54.138,1
2.261034,0.117,1.11,0.397,58.959,151.611,53.1,1
2.268245,0.109,1.129,0.344,61.706,151.306,52.001,1
2.27587,0.127,1.151,0.291,64.025,150.939,50.598,1
2.28344,0.126,1.157,0.276,64.758,149.963,49.011,1
2.29123,0.124,1.154,0.24,62.255,149.902,47.302,1
2.299202,0.124,1.164,0.215,57.922,149.658,45.837,1
2.306572,0.135,1.182,0.183,54.565,149.719,44.189,1
2.314463,0.145,1.195,0.156,51.94,149.536,42.053,1
2.32296,0.155,1.208,0.121,48.828,148.803,39.978,1
2.330187,0.145,1.221,0.106,46.386,147.827,38.085,1
2.3383,0.155,1.219,0.08,44.006,147.705,35.949,1
2.34505,0.168,1.225,0.058,41.259,147.46,33.691,1
2.353692,0.179,1.229,0.02,38.757,146.728,31.555,1
2.36034,0.188,1.243,-0.02,36.132,145.568,29.174,1
2.368314,0.205,1.239,-0.032,36.132,143.981,26.916,1
2.377,0.235,1.223,-0.052,35.705,142.883,24.597,1
2.383277,0.246,1.202,-0.067,32.714,141.723,22.338,1
2.391684,0.262,1.178,-0.076,29.235,140.747,20.263,1
2.398518,0.283,1.166,-0.089,24.78,140.258,18.066,1
2.406692,0.297,1.139,-0.104,20.08,139.404,16.052,1
2.415413,0.297,1.127,-0.125,13.61,138.61,13.427,1
2.422273,0.301,1.112,-0.125,12.207,137.512,11.474,1
2.430613,0.296,1.111,-0.129,15.014,137.207,9.033,1
2.437461,0.293,1.087,-0.167,18.981,135.986,7.263,1
2.445905,0.296,1.062,-0.196,22.583,134.521,5.859,1
2.453438,0.293,1.035,-0.213,24.475,132.446,4.333,1
2.460913,0.288,1.012,-0.227,24.169,130.798,3.54,1
2.469664,0.275,0.992,-0.229,23.925,130.065,2.563,1
2.476595,0.277,0.981,-0.24,24.78,128.601,1.831,1
2.484223,0.283,0.975,-0.256,27.099,127.502,0.732,1
2.493144,0.285,0.961,-0.285,28.198,125.976,-0.122,1
2.499957,0.293,0.943,-0.314,28.503,124.206,-0.915,1
2.508736,0.302,0.928,-0.334,29.418,122.314,-1.708,1
2.5164,0.313,0.912,-0.354,29.296,120.056,-2.197,1
2.524816,0.321,0.893,-0.373,28.32,118.469,-2.685,1
2.531894,0.321,0.885,-0.381,27.099,116.271,-2.929,1
2.539948,0.333,0.876,-0.403,25.268,114.135,-3.295,1
2.547445,0.352,0.879,-0.428,25.634,112.121,-3.54,1
2.557164,0.363,0.879,-0.45,26.855,109.68,-3.784,1
2.563065,0.391,0.872,-0.475,26.916,107.666,-4.089,1
2.57194,0.414,0.868,-0.501,25.634,104.675,-4.211,1
2.581239,0.426,0.864,-0.523,24.719,102.416,-4.394,1
2.588383,0.433,0.865,-0.544,24.047,100.097,-4.882,1
2.5951,0.447,0.865,-0.57,23.986,97.534,-5.126,1
2.601877,0.456,0.863,-0.58,24.536,94.909,-5.859,1
2.610197,0.475,0.848,-0.591,24.475,92.224,-6.286,1
2.619474,0.476,0.841,-0.605,24.23,89.477,-6.713,1
2.626213,0.482,0.833,-0.615,24.047,86.73,-7.08,1
2.635351,0.495,0.818,-0.628,25.573,83.679,-7.385,1
2.642178,0.486,0.818,-0.648,26.855,80.627,-7.568,1
2.650556,0.497,0.798,-0.657,28.015,77.575,-7.629,1
2.659599,0.497,0.788,-0.657,28.442,74.462,-7.69,1
2.667037,0.506,0.778,-0.671,27.709,71.289,-7.385,1
2.673811,0.52,0.768,-0.675,27.526,68.115,-7.08,1
2.683267,0.527,0.766,-0.686,29.052,65.307,-6.896,1
2.689712,0.525,0.749,-0.712,29.357,62.133,-6.713,1
2.699295,0.523,0.74,-0.733,27.526,58.166,-6.042,1
2.705666,0.546,0.73,-0.741,26.0,55.053,-5.737,1
2.713385,0.55,0.722,-0.753,24.23,51.879,-5.249,1
2.722434,0.558,0.714,-0.748,23.254,48.278,-4.882,1
2.731183,0.57,0.699,-0.739,23.254,44.555,-4.394,1
2.738697,0.575,0.689,-0.733,22.888,41.137,-4.089,1
2.746008,0.594,0.676,-0.722,23.071,38.085,-3.356,1
2.754593,0.588,0.674,-0.711,22.644,34.24,-2.502,1
2.761185,0.583,0.669,-0.703,21.728,31.249,-2.014,1
2.768939,0.597,0.666,-0.682,20.019,28.198,-1.342,1
2.778157,0.596,0.661,-0.662,18.676,25.207,-0.549,1
2.784952,0.589,0.659,-0.634,15.502,22.399,0.305,1
2.792285,0.6,0.657,-0.614,12.39,20.141,1.098,1
2.800973,0.616,0.653,-0.598,9.765,17.639,1.953,1
2.809134,0.62,0.645,-0.582,6.652,15.136,2.746,1
2.815892,0.605,0.636,-0.559,1.831,12.939,3.479,1
2.825355,0.626,0.627,-0.529,-16.601,11.596,4.089,1
2.832306,0.616,0.637,-0.473,-26.245,11.047,4.882,1
2.839591,0.614,0.639,-0.441,-27.038,10.192,5.554,1
2.847558,0.607,0.653,-0.396,-25.329,9.277,6.652,1
2.856943,0.61,0.66,-0.361,-21.484,8.911,7.385,1
2.864115,0.594,0.659,-0.341,-20.69,8.789,8.178,1
2.871175,0.571,0.671,-0.326,-20.263,8.483,8.544,1
2.880229,0.577,0.669,-0.303,-21.728,8.85,8.972,1
2.88874,0.589,0.675,-0.298,-23.986,9.216,9.582,1
2.896209,0.591,0.69,-0.296,-24.841,8.728,9.826,1
2.903284,0.598,0.707,-0.297,-24.047,8.422,9.887,1
2.912242,0.604,0.723,-0.294,-21.728,7.507,10.192,1
2.919114,0.59,0.726,-0.276,-19.714,7.019,9.948,1
2.928149,0.611,0.726,-0.284,-19.47,6.958,10.07,1
2.935161,0.621,0.735,-0.276,-19.287,6.347,10.375,1
2.944311,0.61,0.745,-0.282,-18.005,6.591,10.498,1
2.952362,0.619,0.753,-0.291,-17.15,6.164,10.681,1
2.959387,0.627,0.762,-0.301,-16.906,6.103,10.498,1
2.966944,0.638,0.773,-0.318,-16.113,5.31,10.437,1
2.975234,0.65,0.789,-0.322,-14.892,4.699,9.948,1
2.982955,0.633,0.798,-0.318,-10.803,3.295,9.46,1
2.991517,0.663,0.788,-0.308,-11.047,3.173,9.033,1
2.999126,0.646,0.802,-0.307,-11.901,2.685,8.85,1
3.007407,0.643,0.812,-0.297,-13.061,2.624,8.3,1
3.0152,0.654,0.824,-0.294,-13.0,2.258,7.812,1
3.024071,0.658,0.829,-0.295,-12.084,2.136,7.263,1
3.031115,0.644,0.846,-0.296,-9.216,1.708,6.469,1
3.038579,0.655,0.847,-0.303,-5.798,1.159,6.103,1
3.049339,0.657,0.859,-0.306,-1.586,0.244,5.187,1
3.057948,0.645,0.857,-0.307,1.342,-0.549,4.272,1
3.065855,0.654,0.856,-0.31,1.708,-1.037,3.417,1
3.074099,0.645,0.852,-0.305,1.647,-1.586,2.624,1
3.082717,0.65,0.85,-0.305,1.159,-1.831,1.953,1
3.089476,0.646,0.849,-0.305,0.671,-2.014,1.342,1
3.096595,0.643,0.855,-0.312,1.708,-2.441,0.61,1
3.105023,0.645,0.863,-0.314,3.662,-3.173,-0.061,1
3.111861,0.642,0.867,-0.316,5.432,-3.662,-0.61,1
3.118942,0.646,0.874,-0.323,6.652,-4.15,-1.281,1
3.12746,0.645,0.88,-0.33,6.958,-4.577,-2.014,1
3.135967,0.639,0.882,-0.323,6.286,-4.821,-2.441,1
3.142572,0.645,0.884,-0.32,4.76,-5.004,-3.295,1
3.151757,0.643,0.88,-0.309,3.051,-5.065,-4.211,1
3.1591,0.637,0.876,-0.3,1.708,-5.249,-4.821,1
3.166392,0.623,0.874,-0.287,1.342,-5.676,-5.31,1
3.175175,0.62,0.861,-0.271,2.075,-5.554,-6.225,1
3.1822,0.615,0.851,-0.268,2.807,-5.493,-6.652,1
3.190388,0.603,0.836,-0.265,2.258,-5.432,-7.507,1
3.198422,0.604,0.831,-0.256,1.525,-5.554,-8.117,1
3.207802,0.605,0.815,-0.248,1.403,-5.676,-8.3,1
3.215152,0.607,0.794,-0.239,1.159,-5.676,-8.789,1
3.223352,0.617,0.786,-0.222,0.793,-5.554,-8.911,1
3.23259,0.611,0.769,-0.212,0.549,-5.249,-8.911,1
3.240187,0.612,0.756,-0.211,0.427,-4.943,-8.789,1
3.248605,0.61,0.752,-0.214,0.305,-4.516,-8.666,1
3.255991,0.613,0.742,-0.211,0.061,-4.272,-8.789,1
3.263244,0.613,0.739,-0.208,0.549,-4.15,-8.3,1
3.27247,0.614,0.729,-0.204,0.488,-3.845,-8.3,1
3.279264,0.61,0.722,-0.204,0.427,-3.662,-8.117,1
3.28839,0.61,0.717,-0.197,0.244,-3.417,-7.629,1
3.295338,0.615,0.708,-0.193,-0.671,-2.807,-7.568,1
3.304642,0.618,0.702,-0.193,-1.647,-2.38,-7.385,1
3.311957,0.61,0.704,-0.194,-2.197,-2.014,-7.141,1
3.321306,0.613,0.706,-0.202,-2.746,-1.403,-6.591,1
3.32836,0.619,0.707,-0.212,-3.173,-0.976,-6.347,1
3.337125,0.62,0.705,-0.208,-2.99,-0.915,-5.92,1
3.34634,0.625,0.708,-0.224,-2.746,-0.549,-5.981,1
3.354272,0.629,0.708,-0.231,-2.38,-0.305,-5.371,1
3.362213,0.629,0.712,-0.238,-1.464,-0.366,-5.31,1
3.37103,0.637,0.702,-0.244,-0.671,-0.732,-4.943,1
3.378395,0.636,0.693,-0.242,0.061,-0.793,-4.882,1
3.387509,0.634,0.683,-0.236,0.122,-0.61,-4.882,1
3.394887,0.637,0.678,-0.236,0.366,-0.732,-4.333,1
3.403131,0.636,0.668,-0.233,0.488,-0.732,-3.784,1
3.411278,0.637,0.667,-0.232,1.403,-0.732,-3.112,1
3.418395,0.633,0.662,-0.238,1.464,-0.488,-2.624,1
3.427204,0.635,0.666,-0.241,1.403,-0.549,-2.319,1
3.434615,0.632,0.666,-0.25,1.037,-0.671,-1.77,1
3.443746,0.632,0.667,-0.25,0.61,-0.61,-1.159,1
3.45143,0.627,0.667,-0.255,0.366,-0.732,-0.61,1
3.460252,0.632,0.671,-0.253,0.244,-0.976,-0.183,1
3.467346,0.638,0.672,-0.247,0.183,-1.098,-0.061,1
3.476651,0.64,0.675,-0.242,0.793,-1.22,0.549,1
3.48404,0.645,0.667,-0.24,1.098,-1.342,0.854,1
3.491894,0.644,0.678,-0.234,1.281,-1.159,1.342,1
3.499531,0.638,0.682,-0.238,0.976,-0.976,1.464,1
3.508719,0.641,0.688,-0.236,0.366,-1.037,2.014,1
3.516535,0.641,0.694,-0.237,0.427,-0.976,2.38,1
3.525431,0.645,0.701,-0.246,0.61,-0.793,2.38,1
3.533336,0.643,0.712,-0.247,0.732,-0.976,2.929,1
3.54047,0.643,0.719,-0.254,1.037,-1.098,2.807,1
3.549485,0.644,0.719,-0.254,1.22,-1.403,2.929,1
3.556995,0.645,0.72,-0.25,0.976,-1.281,2.868,1
3.565139,0.642,0.724,-0.247,0.976,-1.464,2.929,1
3.572383,0.64,0.725,-0.244,0.549,-1.281,3.051,1
3.581228,0.635,0.732,-0.238,0.427,-1.403,2.99,1
3.588722,0.64,0.732,-0.233,0.061,-1.464,3.234,1
3.597676,0.637,0.738,-0.231,0.183,-1.403,3.295,1
3.604889,0.635,0.744,-0.24,-0.122,-1.159,3.356,1
3.611943,0.636,0.747,-0.239,-0.488,-1.281,3.417,1
3.620048,0.637,0.749,-0.24,-0.488,-1.159,3.112,1
3.628314,0.639,0.755,-0.238,-0.183,-1.281,3.051,1
3.637208,0.645,0.758,-0.24,0.732,-1.464,2.685,1
3.644479,0.641,0.767,-0.233,1.892,-1.586,2.868,1
3.652562,0.642,0.763,-0.227,2.38,-1.586,2.624,1
3.660011,0.643,0.766,-0.219,1.831,-1.403,2.624,1
3.668477,0.64,0.77,-0.219,1.464,-1.281,2.441,1
3.675761,0.642,0.772,-0.213,1.037,-0.915,2.136,1
3.683248,0.642,0.772,-0.212,0.488,-0.61,2.014,1
3.69102,0.65,0.772,-0.213,0.61,-0.61,1.892,1
3.699804,0.646,0.771,-0.216,1.159,-0.366,1.586,1
3.707614,0.648,0.765,-0.219,1.464,-0.122,1.159,1
3.716392,0.649,0.76,-0.215,1.098,0.0,0.732,1
3.723798,0.649,0.755,-0.21,0.61,0.244,0.732,1
3.730572,0.654,0.755,-0.201,0.732,0.488,0.915,1
3.738136,0.641,0.752,-0.201,0.183,0.671,0.732,1
3.747105,0.64,0.75,-0.198,0.061,1.037,0.793,1
3.754426,0.635,0.751,-0.201,-0.183,1.281,0.61,1
3.762858,0.631,0.758,-0.202,-0.122,1.892,0.732,1
3.769437,0.631,0.757,-0.2,0.122,2.014,0.671,1
3.778573,0.626,0.762,-0.204,0.854,2.136,0.427,1
3.786013,0.628,0.761,-0.216,1.525,2.319,0.305,1
3.79485,0.63,0.757,-0.218,2.075,2.563,0.061,1
3.800829,0.633,0.75,-0.228,2.502,2.868,0.122,1
3.80861,0.633,0.745,-0.227,2.38,2.685,0.122,1
3.817688,0.637,0.738,-0.231,2.319,2.624,0.122,1
3.824725,0.635,0.731,-0.228,1.647,2.685,-0.183,1
3.833807,0.638,0.726,-0.225,1.037,2.807,0.061,1
3.841261,0.634,0.721,-0.22,0.061,3.234,0.427,1
3.848576,0.629,0.722,-0.226,-0.671,3.234,0.488,1
3.856001,0.625,0.728,-0.227,-1.037,3.417,0.793,1
3.865081,0.628,0.73,-0.23,-0.122,3.601,0.854,1
3.872021,0.619,0.731,-0.234,0.793,3.417,1.159,1
3.879746,0.623,0.731,-0.237,2.197,3.234,1.098,1
3.888717,0.625,0.733,-0.234,2.807,3.356,1.22,1
3.896462,0.622,0.733,-0.239,3.417,3.173,1.159,1
3.903123,0.62,0.73,-0.24,3.784,3.417,1.281,1
3.911307,0.62,0.731,-0.238,3.234,3.479,1.403,1
3.918092,0.616,0.731,-0.244,2.258,3.479,1.77,1
3.927464,0.621,0.727,-0.251,0.732,3.601,1.77,1
3.934771,0.625,0.731,-0.26,0.0,3.54,1.647,1
3.942008,0.623,0.729,-0.27,0.366,3.417,1.525,1
3.949582,0.627,0.732,-0.268,1.525,3.173,1.77,1
3.95728,0.63,0.725,-0.27,1.892,2.868,1.953,1
3.966774,0.634,0.719,-0.276,1.953,2.563,2.197,1
3.974277,0.633,0.728,-0.27,1.464,2.319,2.563,1
3.98164,0.628,0.73,-0.267,1.159,2.136,2.746,1
3.990793,0.625,0.735,-0.262,1.525,2.075,3.051,1
3.997414,0.626,0.744,-0.258,2.258,1.77,3.112,1
4.005641,0.623,0.747,-0.254,2.38,1.77,3.173,1
4.013293,0.622,0.749,-0.261,2.319,1.831,3.173,1
4.02111,0.615,0.753,-0.263,1.464,1.892,3.234,1
4.027833,0.619,0.76,-0.27,1.098,1.77,3.479,1
4.03621,0.618,0.759,-0.281,0.915,1.525,3.051,1
4.044741,0.617,0.763,-0.287,0.915,1.22,2.929,1
4.050964,0.619,0.762,-0.295,0.915,0.854,2.624,1
4.059881,0.624,0.759,-0.288,0.854,0.549,2.38,1
4.067623,0.625,0.755,-0.288,1.342,0.061,2.38,1
4.073953,0.627,0.754,-0.285,1.647,-0.427,2.441,1
4.082277,0.63,0.757,-0.278,1.403,-0.671,2.441,1
4.090309,0.627,0.76,-0.27,1.342,-0.732,2.563,1
4.096915,0.624,0.764,-0.264,1.342,-0.732,2.502,1
4.10479,0.621,0.767,-0.265,1.464,-0.671,2.258,1
4.112962,0.618,0.766,-0.266,1.281,-0.915,2.563,1
4.122266,0.622,0.767,-0.264,1.464,-0.854,2.319,1
4.128715,0.622,0.764,-0.271,1.098,-1.281,2.136,1
4.136597,0.627,0.761,-0.271,0.854,-1.22,2.075,1
4.144551,0.625,0.758,-0.272,0.427,-1.586,2.075,1
4.152416,0.62,0.755,-0.266,0.244,-1.708,2.197,1
4.161367,0.618,0.76,-0.266,-0.183,-1.892,2.136,1
4.168525,0.625,0.763,-0.264,-0.488,-1.892,2.075,1
4.176502,0.622,0.767,-0.269,-0.915,-1.831,2.075,1
4.1858,0.625,0.77,-0.271,-1.403,-1.831,2.197,1
4.192563,0.621,0.774,-0.267,-1.525,-2.197,1.892,1
4.200449,0.629,0.775,-0.266,-1.525,-2.014,2.014,1
4.209078,0.636,0.773,-0.27,-1.22,-2.197,1.586,1
4.216885,0.633,0.781,-0.268,-0.854,-2.563,1.342,1
4.225584,0.625,0.78,-0.264,-0.732,-2.807,1.22,1
4.232541,0.625,0.779,-0.267,-1.098,-2.624,1.037,1
4.241349,0.619,0.779,-0.262,-1.281,-2.929,0.793,1
4.248049,0.616,0.776,-0.254,-1.281,-3.173,0.671,1
4.256586,0.611,0.779,-0.249,-1.159,-3.112,0.61,1
4.265028,0.61,0.779,-0.245,-0.549,-3.234,0.305,1
4.272254,0.61,0.775,-0.238,0.183,-3.417,0.305,1
4.28159,0.609,0.772,-0.23,1.342,-3.417,0.244,1
4.288349,0.609,0.765,-0.225,1.403,-3.295,0.244,1
4.296698,0.61,0.766,-0.223,1.403,-3.112,0.122,1
4.305139,0.619,0.76,-0.229,0.732,-3.051,0.305,1
4.312,0.612,0.759,-0.224,0.061,-2.929,0.366,1
4.320185,0.614,0.76,-0.219,0.244,-2.99,0.366,1
4.328845,0.62,0.764,-0.215,0.549,-2.99,0.0,1
4.336052,0.624,0.758,-0.21,0.0,-2.868,0.122,1
4.344295,0.628,0.757,-0.205,-0.732,-2.441,0.244,1
4.351913,0.624,0.759,-0.206,-1.037,-2.319,0.183,1
4.360953,0.625,0.754,-0.207,-1.342,-2.014,0.0,1
4.36751,0.627,0.757,-0.206,-1.159,-1.77,0.122,1
4.375652,0.624,0.76,-0.205,-0.976,-1.647,0.122,1
4.383669,0.627,0.758,-0.202,-0.183,-1.525,0.122,1
4.392132,0.628,0.759,-0.195,0.549,-1.342,0.122,1
4.398881,0.63,0.754,-0.195,0.915,-1.281,0.061,1
4.406973,0.629,0.754,-0.197,0.0,-0.854,0.122,1
4.41542,0.628,0.756,-0.194,-0.671,-0.427,-0.183,1
4.424299,0.625,0.759,-0.196,-1.342,0.061,-0.122,1
4.433027,0.628,0.763,-0.202,-1.647,0.122,-0.061,1
4.439966,0.622,0.763,-0.201,-1.525,0.305,0.0,1
4.448974,0.623,0.769,-0.204,-1.037,0.671,-0.427,1
4.456154,0.63,0.771,-0.199,0.427,0.671,-0.793,1
4.464224,0.628,0.769,-0.199,2.014,0.732,-0.732,1
4.471783,0.627,0.765,-0.198,2.38,0.915,-0.671,1
4.480548,0.629,0.762,-0.195,1.953,1.159,-0.61,1
4.488608,0.625,0.761,-0.192,1.464,1.647,-0.854,1
4.495483,0.624,0.756,-0.195,0.793,2.075,-0.671,1
4.504756,0.623,0.756,-0.193,0.183,2.258,-0.488,1
4.511906,0.622,0.749,-0.197,0.122,2.38,-0.671,1
4.52091,0.617,0.749,-0.203,0.183,2.563,-0.61,1
4.527767,0.619,0.752,-0.2,1.037,2.746,-0.854,1
4.536623,0.622,0.746,-0.201,1.098,2.99,-0.549,1
4.543604,0.619,0.743,-0.2,1.708,3.173,-0.671,1
4.552917,0.617,0.736,-0.199,1.586,3.356,-0.305,1
4.559895,0.613,0.732,-0.2,0.671,3.845,-0.244,1
4.568848,0.618,0.736,-0.201,0.122,4.211,0.244,1
4.57649,0.611,0.734,-0.211,-0.488,4.577,0.183,1
4.584367,0.61,0.738,-0.215,-0.732,4.76,0.427,1
4.592194,0.614,0.744,-0.227,-0.549,4.943,0.427,1
4.599268,0.615,0.739,-0.237,-0.061,4.638,0.427,1
4.606828,0.609,0.739,-0.246,0.61,4.516,0.427,1
4.615503,0.616,0.734,-0.258,1.22,4.455,0.732,1
4.622854,0.615,0.728,-0.262,1.037,4.333,0.61,1
4.631992,0.614,0.726,-0.272,-0.122,4.516,0.976,1
4.638949,0.624,0.721,-0.28,-1.281,4.455,1.037,1
4.646652,0.62,0.72,-0.296,-2.502,4.455,1.159,1
4.654647,0.614,0.726,-0.314,-3.601,4.211,1.281,1
4.662674,0.615,0.733,-0.321,-4.089,3.662,1.525,1
4.670383,0.62,0.728,-0.331,-4.882,2.99,1.708,1
4.679226,0.627,0.728,-0.333,-4.516,2.319,2.319,1
4.68641,0.627,0.726,-0.333,-2.807,1.464,2.319,1
4.694622,0.624,0.718,-0.316,-0.366,0.671,2.502,1
4.70289,0.601,0.712,-0.314,-0.854,0.366,2.99,1
4.709189,0.604,0.714,-0.314,-3.234,0.183,3.234,1
4.716925,0.606,0.722,-0.305,-4.211,-0.183,3.662,1
4.72562,0.61,0.723,-0.292,-3.723,-0.366,3.784,1
4.732552,0.612,0.73,-0.285,-2.868,-1.037,4.089,1
4.741048,0.605,0.731,-0.273,-1.953,-1.037,4.211,1
4.750101,0.605,0.735,-0.261,-1.098,-1.525,4.516,1
4.757664,0.604,0.738,-0.256,-0.549,-1.342,4.638,1
4.766173,0.608,0.74,-0.251,-0.488,-1.403,4.638,1
4.774062,0.612,0.748,-0.252,-0.488,-1.892,4.455,1
4.78169,0.602,0.757,-0.232,-0.366,-1.831,4.333,1
4.789439,0.607,0.764,-0.227,-0.305,-1.525,4.272,1
4.798386,0.606,0.764,-0.223,-0.122,-1.281,4.15,1
4.80681,0.608,0.775,-0.219,0.305,-1.22,4.028,1
4.813812,0.612,0.784,-0.22,0.61,-1.098,4.028,1
4.822586,0.615,0.791,-0.218,0.976,-0.915,3.845,1
4.830586,0.613,0.793,-0.215,0.793,-0.671,3.845,1
4.837838,0.615,0.803,-0.216,0.732,-0.427,3.662,1
4.847128,0.61,0.808,-0.214,0.488,0.0,3.417,1
4.853889,0.607,0.813,-0.218,0.488,0.366,3.417,1
4.861651,0.611,0.817,-0.22,0.366,0.671,2.99,1
4.86938,0.618,0.821,-0.219,-0.061,0.854,2.38,1
4.878182,0.624,0.822,-0.228,-0.732,0.915,2.075,1
4.886511,0.622,0.827,-0.229,-0.244,1.22,1.525,1
4.893506,0.623,0.823,-0.23,0.488,1.098,1.22,1
4.902164,0.623,0.824,-0.228,0.732,1.22,0.793,1
4.909464,0.62,0.822,-0.232,-0.122,1.342,0.122,1
4.918245,0.621,0.825,-0.23,-0.671,1.708,-0.305,1
4.925967,0.617,0.825,-0.231,-1.342,1.77,-0.366,1
4.933791,0.611,0.822,-0.232,-0.854,2.014,-0.854,1
4.942792,0.611,0.825,-0.231,0.366,2.014,-1.586,1
4.950635,0.617,0.815,-0.234,1.464,1.831,-1.708,1
4.957725,0.613,0.802,-0.236,1.831,1.892,-1.953,1
4.966785,0.613,0.789,-0.237,1.281,2.38,-2.258,1
4.973669,0.621,0.781,-0.24,0.793,2.38,-2.319,1
4.981554,0.611,0.772,-0.241,0.488,2.441,-2.258,1
4.990409,0.608,0.767,-0.241,0.183,2.563,-2.563,1
4.998836,0.604,0.769,-0.239,-0.183,2.685,-2.441,1
5.006505,0.598,0.769,-0.246,-0.549,2.624,-2.502,1
5.01555,0.599,0.757,-0.246,-0.549,2.746,-2.685,1
5.022594,0.601,0.754,-0.249,-0.122,2.563,-2.563,1
5.032098,0.598,0.746,-0.255,0.366,2.685,-2.441,1
5.039836,0.6,0.739,-0.259,0.61,2.502,-2.258,1
5.046745,0.598,0.735,-0.261,0.732,2.38,-2.014,1
5.054197,0.604,0.727,-0.264,0.305,2.441,-1.892,1
5.061311,0.603,0.721,-0.268,0.549,2.441,-1.647,1
5.070486,0.603,0.717,-0.27,0.976,2.136,-1.586,1
5.076846,0.607,0.703,-0.268,1.281,2.136,-1.098,1
5.085937,0.604,0.698,-0.271,1.464,1.953,-0.61,1
5.093784,0.604,0.692,-0.274,1.342,1.953,-0.061,1
5.101616,0.6,0.689,-0.278,1.159,1.77,0.183,1
5.108285,0.6,0.686,-0.278,0.488,1.647,1.098,1
5.117365,0.596,0.679,-0.284,-0.244,1.708,1.403,1
5.125477,0.592,0.677,-0.292,-1.403,1.953,1.953,1
5.132124,0.593,0.671,-0.3,-2.136,1.708,2.441,1
5.141306,0.592,0.667,-0.315,-2.563,1.342,2.929,1
5.14815,0.592,0.664,-0.326,-2.014,0.976,3.723,1
5.155598,0.575,0.651,-0.334,-1.403,0.427,4.455,1
5.16348,0.574,0.643,-0.35,-1.892,0.793,5.126,1
5.171646,0.556,0.641,-0.378,-3.784,0.061,6.042,1
5.179866,0.551,0.638,-0.384,-5.798,-0.366,7.08,1
5.188415,0.549,0.642,-0.41,-6.591,-0.61,8.056,1
5.194563,0.541,0.647,-0.424,-6.53,-1.464,9.46,1
5.20297,0.541,0.65,-0.451,-6.53,-2.441,9.765,1
5.211468,0.536,0.649,-0.477,-6.958,-3.356,10.559,1
5.219957,0.524,0.652,-0.503,-7.751,-4.577,11.291,1
5.226656,0.528,0.644,-0.536,-9.033,-5.92,12.023,1
5.235069,0.542,0.637,-0.563,-11.108,-7.568,12.695,1
5.242327,0.532,0.634,-0.579,-15.441,-9.399,13.793,1
5.250492,0.535,0.653,-0.596,-15.808,-10.681,14.465,1
5.259422,0.54,0.654,-0.619,-16.479,-12.939,15.136,1
5.266656,0.541,0.662,-0.637,-16.601,-14.77,16.052,1
5.274156,0.54,0.679,-0.662,-17.333,-17.333,16.845,1
5.283271,0.538,0.693,-0.676,-18.615,-19.409,17.456,1
5.290544,0.531,0.708,-0.692,-19.714,-21.728,17.883,1
5.299643,0.532,0.72,-0.721,-20.812,-24.963,18.432,1
5.307591,0.522,0.734,-0.732,-21.85,-27.832,18.798,1
5.314596,0.536,0.742,-0.738,-22.033,-30.273,19.165,1
5.323598,0.516,0.763,-0.752,-21.85,-33.691,19.287,1
5.33049,0.512,0.776,-0.763,-21.545,-36.315,19.775,1
5.338415,0.499,0.787,-0.778,-21.85,-39.184,19.897,1
5.345962,0.495,0.792,-0.784,-22.399,-42.358,19.836,1
5.35525,0.488,0.796,-0.792,-23.925,-45.227,19.714,1
5.362362,0.477,0.795,-0.799,-25.146,-48.095,19.653,1
5.370321,0.466,0.796,-0.807,-27.526,-50.781,19.897,1
5.377503,0.457,0.794,-0.813,-28.625,-53.405,19.958,1
5.386903,0.453,0.798,-0.822,-29.357,-57.128,20.202,1
5.394135,0.439,0.792,-0.833,-29.907,-60.424,20.08,1
5.401949,0.426,0.79,-0.829,-30.334,-64.025,20.69,1
5.410514,0.415,0.794,-0.836,-31.188,-67.565,20.996,1
5.418222,0.402,0.795,-0.834,-31.982,-70.983,21.484,1
5.427513,0.389,0.806,-0.827,-33.813,-75.073,22.094,1
5.434449,0.383,0.813,-0.819,-35.461,-78.43,22.827,1
5.442085,0.375,0.827,-0.81,-36.193,-81.604,23.254,1
5.451194,0.372,0.842,-0.797,-36.193,-85.266,23.62,1
5.458185,0.37,0.847,-0.796,-36.56,-88.256,23.925,1
5.467104,0.354,0.865,-0.796,-37.841,-91.247,24.108,1
5.474905,0.344,0.883,-0.798,-38.696,-94.97,24.23,1
5.483626,0.332,0.896,-0.8,-40.283,-98.693,24.291,1
5.49172,0.321,0.909,-0.797,-40.283,-102.294,24.23,1
5.499011,0.309,0.922,-0.807,-41.015,-105.529,23.925,1
5.508475,0.299,0.935,-0.797,-41.503,-109.374,23.742,1
5.515377,0.29,0.943,-0.798,-42.846,-113.464,23.742,1
5.523727,0.273,0.952,-0.786,-44.25,-117.37,23.437,1
5.530952,0.265,0.97,-0.77,-43.762,-120.971,23.193,1
5.540045,0.25,0.974,-0.765,-43.09,-125.427,22.827,1
5.54708,0.238,0.988,-0.735,-42.114,-129.333,22.46,1
5.556546,0.22,1.0,-0.703,-40.039,-133.728,22.155,1
5.563092,0.208,1.007,-0.678,-39.001,-137.207,21.423,1
5.571641,0.187,1.022,-0.645,-37.902,-141.418,20.812,1
5.579337,0.182,1.035,-0.606,-35.766,-144.531,20.324,1
5.588027,0.158,1.043,-0.569,-33.752,-147.644,19.47,1
5.595532,0.137,1.056,-0.531,-31.188,-151.0,18.31,1
5.603146,0.117,1.058,-0.495,-31.677,-153.686,17.395,1
5.612957,0.097,1.068,-0.447,-34.179,-155.7,16.296,1
5.620342,0.092,1.07,-0.38,-35.705,-157.775,14.831,1
5.62851,0.092,1.064,-0.321,-35.583,-159.118,13.61,1
5.635798,0.093,1.053,-0.259,-34.24,-160.888,12.573,1
5.645037,0.087,1.042,-0.189,-32.165,-162.353,11.474,1
5.652114,0.07,1.028,-0.127,-31.127,-163.391,10.62,1
5.659604,0.029,1.033,-0.03,-34.729,-164.123,10.07,1
5.668862,0.012,1.05,0.068,-39.916,-163.513,9.277,1
5.676616,0.002,1.076,0.17,-42.846,-161.743,8.544,1
5.684655,0.0,1.112,0.299,-42.968,-158.996,7.324,1
5.693208,0.022,1.13,0.388,-41.442,-154.357,5.92,1
5.700897,0.046,1.13,0.44,-39.001,-149.963,4.76,1
5.708063,0.046,1.131,0.477,-35.827,-145.446,3.723,1
5.71498,0.064,1.128,0.493,-34.301,-141.357,2.624,1
5.722941,0.094,1.109,0.493,-35.095,-136.779,1.403,1
5.732159,0.125,1.093,0.472,-39.306,-132.446,0.61,1
5.739951,0.146,1.087,0.447,-44.799,-129.089,-0.122,1
5.747138,0.161,1.111,0.448,-47.668,-126.831,-0.671,1
5.756146,0.167,1.139,0.476,-43.762,-124.511,-1.525,1
5.76449,0.213,1.148,0.503,-38.757,-122.375,-2.685,1
5.77133,0.259,1.149,0.515,-33.63,-119.384,-4.272,1
5.78025,0.282,1.14,0.507,-33.935,-116.271,-5.615,1
5.787988,0.311,1.141,0.484,-37.902,-112.548,-7.324,1
5.795765,0.335,1.139,0.455,-41.381,-110.29,-8.544,1
5.804673,0.348,1.142,0.417,-44.006,-108.154,-10.009,1
5.812998,0.359,1.153,0.39,-46.447,-106.018,-11.779,1
5.821709,0.387,1.151,0.372,-47.424,-104.492,-13.305,1
5.828804,0.404,1.159,0.357,-46.142,-103.088,-15.075,1
5.836899,0.412,1.156,0.341,-43.457,-101.867,-16.967,1
5.846744,0.42,1.14,0.318,-40.283,-100.585,-18.92,1
5.855068,0.428,1.121,0.295,-37.78,-99.487,-21.179,1
5.862817,0.437,1.099,0.267,-35.278,-98.632,-22.705,1
5.870755,0.433,1.074,0.246,-34.79,-97.9,-24.047,1
5.877583,0.431,1.048,0.217,-38.391,-97.045,-25.512,1
5.885977,0.432,1.027,0.182,-42.297,-96.008,-26.123,1
5.893719,0.441,0.998,0.145,-45.898,-95.825,-26.855,1
5.900758,0.433,0.977,0.107,-48.339,-96.374,-27.16,1
5.908296,0.393,0.992,0.105,-47.241,-98.205,-27.77,1
5.91804,0.354,1.004,0.147,-41.564,-99.365,-28.32,1
5.924366,0.357,0.991,0.191,-35.705,-100.158,-28.869,1
5.932563,0.374,0.983,0.237,-32.592,-100.097,-29.663,1
5.940886,0.375,0.977,0.27,-33.203,-99.121,-30.212,1
5.949432,0.375,0.987,0.27,-36.499,-98.205,-30.7,1
5.956504,0.37,1.007,0.261,-39.733,-97.106,-31.433,1
5.96551,0.372,1.01,0.243,-41.748,-96.191,-32.409,1
5.972451,0.386,1.008,0.22,-42.541,-96.008,-33.447,1
5.980665,0.388,0.989,0.18,-43.334,-95.947,-34.057,1
5.988969,0.375,0.958,0.155,-44.189,-96.618,-35.095,1
5.997224,0.349,0.949,0.159,-42.846,-98.022,-35.888,1
6.003891,0.338,0.94,0.18,-40.161,-98.632,-36.804,1
6.011582,0.357,0.924,0.196,-37.78,-99.304,-37.597,1
6.026944,0.354,0.905,0.219,-35.583,-100.28,-38.146,1
6.026976,0.354,0.912,0.27,-33.447,-100.585,-38.757,1
6.033241,0.35,0.908,0.317,-30.822,-100.097,-39.306,1
6.040922,0.367,0.903,0.359,-28.259,-99.548,-39.55,1
6.047983,0.383,0.884,0.382,-26.794,-98.144,-40.161,1
6.056113,0.392,0.868,0.393,-28.442,-96.74,-40.466,1
6.062959,0.399,0.857,0.394,-31.433,-95.153,-40.649,1
6.070806,0.4,0.841,0.402,-34.24,-94.299,-40.71,1
6.077293,0.408,0.83,0.418,-35.4,-93.383,-40.71,1
6.085193,0.413,0.817,0.444,-35.949,-92.529,-40.71,1
6.092954,0.428,0.806,0.479,-36.071,-91.308,-40.954,1
6.099379,0.445,0.789,0.521,-34.362,-90.087,-40.832,1
6.106928,0.444,0.78,0.563,-30.7,-89.05,-40.954,1
6.115543,0.451,0.76,0.613,-26.611,-87.585,-40.893,1
6.121653,0.461,0.734,0.647,-25.024,-85.571,-40.588,1
6.130011,0.479,0.715,0.677,-24.841,-83.068,-40.344,1
6.136627,0.48,0.684,0.699,-25.817,-80.566,-39.855,1
6.145345,0.499,0.666,0.729,-26.977,-77.453,-39.062,1
6.156426,0.503,0.644,0.761,-25.573,-75.134,-38.696,1
6.160702,0.514,0.614,0.791,-22.949,-72.143,-37.78,1
6.168181,0.524,0.584,0.82,-21.606,-69.152,-36.682,1
6.174801,0.53,0.562,0.849,-20.751,-65.856,-35.583,1
6.182783,0.535,0.55,0.874,-20.08,-62.866,-34.118,1
6.191046,0.539,0.535,0.906,-19.165,-59.204,-32.897,1
6.199215,0.557,0.508,0.926,-17.7,-54.748,-31.311,1
6.205705,0.564,0.487,0.941,-16.723,-50.903,-29.785,1
6.213801,0.576,0.468,0.939,-17.089,-46.691,-27.893,1
6.222262,0.588,0.448,0.933,-18.615,-43.029,-26.123,1
6.229326,0.595,0.438,0.936,-20.019,-39.428,-24.353,1
6.238187,0.598,0.429,0.939,-19.348,-35.705,-22.399,1
6.246342,0.607,0.417,0.923,-17.7,-31.921,-20.446,1
6.253215,0.613,0.412,0.897,-16.479,-28.32,-18.31,1
6.262335,0.616,0.419,0.879,-15.136,-25.146,-16.113,1
6.26922,0.608,0.421,0.86,-12.023,-21.545,-14.099,1
6.278149,0.611,0.426,0.836,-10.192,-18.676,-12.268,1
6.28524,0.622,0.424,0.817,-9.643,-16.052,-10.314,1
6.292203,0.642,0.429,0.797,-9.765,-13.122,-8.544,1
6.300237,0.647,0.437,0.775,-8.789,-10.437,-6.896,1
6.307597,0.663,0.447,0.739,-8.239,-8.117,-5.615,1
6.316506,0.67,0.451,0.703,-9.216,-5.371,-4.089,1
6.323452,0.676,0.459,0.656,-12.023,-2.624,-2.502,1
6.332205,0.683,0.485,0.611,-13.061,-0.976,-1.22,1
6.339547,0.681,0.516,0.57,-11.535,0.793,-0.366,1
6.346856,0.675,0.533,0.526,-9.399,1.525,0.183,1
6.356381,0.673,0.544,0.485,-7.202,2.319,0.854,1
6.363193,0.676,0.555,0.439,-5.187,3.234,1.281,1
6.371217,0.673,0.57,0.414,-4.577,3.173,2.075,1
6.380134,0.674,0.578,0.391,-3.906,3.54,2.319,1
6.385961,0.687,0.578,0.379,-3.173,3.906,2.929,1
6.395287,0.688,0.576,0.36,-2.685,4.211,3.417,1
6.402561,0.691,0.58,0.368,-1.525,3.845,4.333,1
6.409995,0.686,0.582,0.373,-1.403,4.211,4.882,1
6.41728,0.691,0.591,0.38,-1.464,4.699,5.371,1
6.426489,0.691,0.604,0.385,-1.281,4.882,5.981,1
6.433501,0.686,0.617,0.386,-1.647,5.92,6.652,1
6.442148,0.682,0.639,0.371,-4.15,6.53,7.08,1
6.44887,0.683,0.665,0.358,-5.676,6.835,7.446,1
6.45766,0.676,0.683,0.339,-5.798,7.385,7.263,1
6.464668,0.67,0.7,0.325,-4.516,7.507,7.202,1
6.472178,0.671,0.705,0.297,-3.723,7.324,6.958,1
6.479904,0.679,0.712,0.275,-4.272,7.446,6.408,1
6.488585,0.679,0.722,0.256,-5.004,7.08,6.103,1
6.495985,0.673,0.723,0.244,-4.516,6.591,5.798,1
6.503145,0.668,0.732,0.247,-3.234,6.286,5.676,1
6.510935,0.681,0.733,0.245,-1.77,5.859,5.187,1
6.519297,0.679,0.73,0.241,-1.281,5.676,5.432,1
6.526859,0.684,0.728,0.242,-1.22,5.249,5.371,1
6.534999,0.674,0.735,0.246,-0.854,4.882,5.31,1
6.542611,0.662,0.741,0.255,0.0,4.577,5.554,1
6.549695,0.662,0.745,0.255,0.61,4.455,5.187,1
6.558964,0.669,0.753,0.251,0.305,4.394,5.187,1
6.566816,0.661,0.759,0.247,-0.183,4.333,4.882,1
6.574567,0.66,0.76,0.239,0.732,4.089,4.577,1
6.581567,0.661,0.77,0.23,1.464,3.906,4.089,1
6.588958,0.654,0.76,0.222,0.732,3.356,3.723,1
6.596537,0.653,0.763,0.229,0.671,2.929,3.356,1
6.604162,0.654,0.757,0.244,1.464,2.685,3.051,1
6.612542,0.662,0.753,0.262,2.502,2.441,2.99,1
6.619715,0.663,0.754,0.28,2.746,2.746,2.441,1
6.628411,0.665,0.752,0.291,2.746,2.807,2.624,1
6.636426,0.669,0.753,0.293,2.563,3.112,2.136,1
6.643555,0.668,0.756,0.287,1.953,3.662,2.136,1
6.651711,0.667,0.76,0.277,0.854,4.089,1.77,1
6.658683,0.667,0.766,0.257,-0.061,4.272,1.586,1
6.666842,0.665,0.77,0.237,-1.464,4.272,0.915,1
6.673943,0.666,0.772,0.22,-1.953,3.845,0.671,1
6.683292,0.668,0.77,0.205,-0.427,3.417,0.305,1
6.69027,0.675,0.758,0.187,1.098,2.685,-0.549,1
6.699538,0.673,0.743,0.175,1.708,1.831,-0.854,1
6.70696,0.675,0.724,0.165,2.502,0.976,-1.22,1
6.714748,0.671,0.709,0.163,2.807,0.122,-1.22,1
6.721438,0.668,0.703,0.168,3.234,-0.976,-1.098,1
6.73112,0.664,0.692,0.182,3.967,-1.892,-0.793,1
6.739386,0.657,0.69,0.193,3.54,-2.38,-0.671,1
6.746597,0.651,0.69,0.215,2.746,-3.051,-0.366,1
6.7544,0.654,0.693,0.234,2.38,-3.234,-0.183,1
6.762463,0.658,0.696,0.255,2.38,-3.417,0.122,1
6.769491,0.658,0.697,0.261,2.075,-3.295,0.183,1
6.777215,0.653,0.694,0.253,0.854,-3.356,-0.061,1
6.786689,0.655,0.692,0.253,-0.488,-3.662,0.122,1
6.793751,0.663,0.687,0.256,-1.22,-3.356,-0.122,1
6.80248,0.666,0.679,0.248,-0.61,-3.906,0.0,1
6.809685,0.669,0.681,0.253,-0.427,-4.272,0.183,1
6.818306,0.673,0.676,0.261,-0.061,-4.15,0.366,1
6.825464,0.68,0.672,0.271,0.0,-4.394,0.244,1
6.834175,0.681,0.672,0.281,0.183,-4.15,0.366,1
6.842285,0.685,0.672,0.289,0.915,-4.089,0.732,1
6.850482,0.685,0.674,0.297,1.586,-4.272,1.159,1
6.858345,0.676,0.681,0.3,1.953,-4.089,1.342,1
6.865696,0.677,0.679,0.306,1.586,-3.906,1.586,1
6.872946,0.673,0.692,0.309,0.854,-3.54,1.953,1
6.881878,0.679,0.696,0.317,0.976,-3.112,2.136,1
6.889318,0.675,0.703,0.317,0.305,-2.99,2.319,1
6.897723,0.671,0.712,0.315,-0.061,-2.685,2.319,1
6.905282,0.674,0.718,0.317,0.183,-2.502,2.258,1
6.912397,0.671,0.722,0.314,0.488,-2.136,2.075,1
6.921556,0.667,0.722,0.32,0.0,-2.258,2.014,1
6.928538,0.659,0.727,0.333,-0.061,-2.014,1.831,1
6.936057,0.656,0.725,0.344,0.122,-1.647,1.464,1
6.943716,0.656,0.72,0.354,0.0,-1.647,1.159,1
6.953127,0.651,0.715,0.364,-0.122,-1.098,1.647,1
6.960076,0.664,0.707,0.376,-0.732,-0.366,1.403,1
6.968883,0.664,0.707,0.393,-1.281,0.122,1.464,1
6.975403,0.665,0.712,0.395,-1.464,1.037,1.22,1
6.983485,0.665,0.725,0.395,-1.647,2.014,1.342,1
6.990423,0.667,0.729,0.385,-2.136,2.624,1.464,1
6.998947,0.661,0.748,0.379,-2.258,3.234,1.281,1
7.006969,0.658,0.759,0.371,-1.647,3.784,0.671,1
7.015117,0.66,0.76,0.358,-0.671,4.028,0.61,1
7.022625,0.668,0.766,0.339,0.0,4.577,0.183,1
7.029526,0.669,0.768,0.33,0.122,4.638,-0.427,1
7.038479,0.666,0.766,0.312,0.61,4.882,-0.854,1
7.046435,0.674,0.765,0.298,0.671,4.821,-1.342,1
7.052964,0.678,0.763,0.28,1.22,4.882,-1.953,1
7.060937,0.678,0.757,0.274,2.807,4.455,-2.319,1
7.069696,0.681,0.743,0.265,5.004,4.15,-2.441,1
7.076765,0.685,0.725,0.257,5.92,3.784,-2.502,1
7.085372,0.685,0.71,0.254,6.103,3.54,-2.38,1
7.0931,0.688,0.694,0.252,5.065,3.295,-2.38,1
7.099526,0.68,0.687,0.251,4.638,3.234,-2.197,1
7.108219,0.672,0.685,0.245,4.455,3.051,-1.892,1
7.11597,0.666,0.679,0.239,3.479,2.441,-1.708,1
7.123457,0.654,0.687,0.24,2.563,2.197,-1.586,1
7.132087,0.655,0.689,0.245,2.563,2.136,-1.281,1
7.140518,0.655,0.68,0.244,2.38,1.831,-1.403,1
7.147758,0.647,0.678,0.247,1.831,1.281,-1.22,1
7.155079,0.644,0.664,0.25,1.464,1.281,-0.976,1
7.163654,0.644,0.663,0.25,0.61,1.281,-0.671,1
7.172137,0.645,0.662,0.25,-0.61,1.22,-0.427,1
7.17897,0.65,0.663,0.25,-1.22,1.22,-0.183,1
7.187029,0.654,0.659,0.251,-0.976,0.61,0.427,1
7.195433,0.656,0.661,0.25,-0.183,0.366,0.671,1
7.202729,0.652,0.662,0.258,0.244,0.061,1.037,1
7.211174,0.654,0.668,0.254,-0.671,0.671,1.647,1
7.217859,0.655,0.684,0.245,-2.502,0.305,1.831,1
7.225259,0.661,0.691,0.247,-2.197,0.061,1.953,1
7.233902,0.669,0.698,0.24,-1.159,0.0,2.014,1
7.240848,0.671,0.693,0.242,-0.976,-0.305,1.892,1
7.24838,0.674,0.696,0.239,-1.403,-0.305,1.892,1
7.256825,0.669,0.701,0.234,-2.197,-0.488,2.014,1
7.266311,0.674,0.7,0.234,-2.136,-0.976,2.136,1
7.273378,0.672,0.7,0.239,-1.22,-1.403,2.197,1
7.281133,0.67,0.704,0.244,-0.793,-1.647,2.258,1
7.290572,0.669,0.702,0.256,-0.976,-1.892,2.38,1
7.297488,0.666,0.71,0.259,-0.793,-2.258,2.563,1
7.305206,0.658,0.718,0.265,-0.671,-2.136,2.197,1
7.313475,0.659,0.724,0.272,-0.732,-2.014,2.319,1
7.322613,0.666,0.725,0.271,-0.854,-2.136,2.197,1
7.329606,0.661,0.728,0.266,-1.342,-2.014,2.014,1
7.338251,0.657,0.728,0.266,-2.075,-1.892,2.014,1
7.346219,0.662,0.732,0.275,-2.319,-2.319,1.708,1
7.354653,0.666,0.729,0.274,-2.075,-2.136,1.403,1
7.361523,0.67,0.731,0.28,-1.77,-2.624,1.464,1
7.369841,0.675,0.73,0.28,-1.464,-2.319,1.037,1
7.377927,0.673,0.728,0.283,-1.22,-2.441,1.098,1
7.384987,0.675,0.732,0.275,-1.159,-2.441,0.976,1
7.392682,0.672,0.737,0.268,-1.159,-2.38,0.854,1
7.401557,0.669,0.733,0.264,-0.366,-2.624,0.671,1
7.410606,0.668,0.741,0.263,0.427,-2.685,0.549,1
7.417883,0.667,0.738,0.26,1.586,-3.173,0.488,1
7.425456,0.67,0.735,0.265,2.441,-3.479,0.366,1
7.432942,0.667,0.731,0.263,2.99,-3.54,0.305,1
7.441855,0.669,0.725,0.264,2.563,-3.906,0.061,1
7.448739,0.669,0.725,0.268,1.953,-3.967,0.305,1
7.45603,0.661,0.724,0.28,1.525,-4.15,0.0,1
7.46368,0.66,0.726,0.287,1.098,-4.15,0.183,1
7.471433,0.655,0.729,0.295,0.549,-3.723,-0.061,1
7.480427,0.654,0.728,0.297,0.549,-3.662,-0.061,1
7.487704,0.648,0.723,0.294,0.854,-3.234,-0.061,1
7.497164,0.65,0.711,0.292,1.464,-3.295,-0.244,1
7.504589,0.651,0.708,0.292,1.647,-3.417,-0.244,1
7.512764,0.652,0.707,0.3,2.014,-3.479,-0.366,1
7.52076,0.652,0.703,0.298,1.77,-3.417,-0.305,1
7.527991,0.653,0.706,0.298,1.525,-3.173,-0.305,1
7.536875,0.649,0.712,0.297,1.403,-3.112,0.0,1
7.543856,0.652,0.714,0.29,1.159,-3.295,-0.183,1
7.552978,0.659,0.715,0.288,1.098,-3.295,-0.183,1
7.560409,0.66,0.719,0.284,0.061,-3.173,-0.183,1
7.56779,0.658,0.723,0.286,-0.305,-3.417,-0.305,1
7.575184,0.656,0.72,0.289,0.061,-3.173,0.0,1
7.582815,0.66,0.718,0.298,0.183,-3.173,0.0,1
7.591657,0.662,0.72,0.301,0.549,-3.234,-0.122,1
7.598567,0.663,0.716,0.306,0.732,-2.929,-0.427,1
7.607562,0.659,0.711,0.306,0.915,-2.99,-0.122,1
7.614535,0.661,0.707,0.303,1.037,-2.929,-0.244,1
7.622039,0.655,0.71,0.299,1.953,-3.112,-0.061,1
7.630022,0.659,0.704,0.296,1.953,-2.99,-0.305,1
7.638676,0.653,0.699,0.299,2.014,-3.173,-0.244,1
7.64607,0.649,0.695,0.301,1.037,-2.929,0.0,1
7.655183,0.649,0.696,0.308,0.122,-3.173,0.122,1
7.662832,0.653,0.695,0.319,-0.061,-2.746,0.366,1
7.670286,0.655,0.692,0.322,0.0,-2.502,0.61,1
7.678464,0.657,0.689,0.324,-0.061,-2.258,0.671,1
7.686285,0.657,0.695,0.319,-0.427,-1.831,0.915,1
7.694647,0.657,0.698,0.315,-0.427,-1.647,0.854,1
7.701353,0.653,0.706,0.309,0.061,-1.525,1.037,1
7.710152,0.652,0.709,0.3,0.122,-1.77,1.098,1
7.717389,0.655,0.716,0.295,-0.366,-1.647,0.915,1
7.726698,0.656,0.711,0.291,-0.305,-1.77,0.915,1
7.734713,0.653,0.716,0.286,-0.244,-1.831,0.793,1
7.742564,0.651,0.715,0.287,-0.305,-2.258,0.854,1
7.749231,0.654,0.716,0.29,-0.122,-2.258,0.854,1
7.757157,0.655,0.71,0.291,-0.427,-2.38,0.976,1
7.766233,0.654,0.713,0.302,-0.793,-2.258,0.793,1
7.772338,0.651,0.717,0.312,-0.366,-2.441,1.037,1
7.781227,0.654,0.714,0.317,0.122,-2.136,1.098,1
7.788406,0.654,0.713,0.325,0.427,-2.014,1.037,1
7.797492,0.649,0.716,0.327,0.244,-1.708,1.037,1
7.80563,0.649,0.718,0.321,-0.427,-1.281,1.098,1
7.813048,0.643,0.725,0.315,-0.183,-1.464,0.976,1
7.819883,0.641,0.726,0.311,-0.122,-1.342,1.098,1
7.829228,0.642,0.726,0.314,0.183,-1.281,1.037,1
7.836009,0.647,0.725,0.315,-0.061,-1.098,0.732,1
7.843511,0.649,0.731,0.313,-0.488,-0.793,0.854,1
7.850973,0.651,0.73,0.314,-0.732,-0.732,0.793,1
7.859701,0.649,0.727,0.309,-0.366,-0.793,0.61,1
7.866412,0.654,0.726,0.309,0.061,-0.793,0.61,1
7.874411,0.657,0.721,0.309,-0.427,-0.732,0.427,1
7.881676,0.655,0.719,0.312,-0.549,-0.549,0.61,1
7.890196,0.657,0.723,0.311,-0.244,-0.366,0.549,1
7.897086,0.661,0.728,0.308,-0.061,-0.244,0.61,1
7.904856,0.657,0.729,0.303,0.061,-0.366,0.366,1
7.912524,0.657,0.732,0.296,0.488,-0.488,0.305,1
7.920388,0.653,0.733,0.293,1.281,-0.671,0.183,1
7.929241,0.656,0.729,0.294,1.953,-0.793,0.061,1
7.936319,0.652,0.73,0.285,1.342,-0.793,-0.061,1
7.943858,0.656,0.725,0.291,0.549,-0.915,-0.061,1
7.951812,0.656,0.721,0.296,0.366,-0.976,-0.244,1
7.960502,0.652,0.712,0.302,0.244,-1.281,-0.427,1
7.968029,0.656,0.712,0.299,-0.366,-1.037,-0.183,1
7.977251,0.657,0.713,0.304,-1.098,-0.854,-0.061,1
7.986156,0.661,0.717,0.304,-0.549,-1.159,-0.061,1
7.993611,0.662,0.716,0.302,-0.366,-0.488,-0.122,1
8.001043,0.658,0.714,0.299,0.0,-0.732,-0.244,1
8.008796,0.654,0.716,0.297,0.061,-0.854,0.0,1
8.017237,0.653,0.717,0.295,0.488,-1.037,-0.366,1
8.02552,0.655,0.713,0.296,0.854,-1.159,-0.183,1
8.032342,0.649,0.707,0.293,0.549,-1.22,-0.122,1
8.041641,0.649,0.706,0.301,-0.183,-1.22,-0.305,1
8.048606,0.649,0.702,0.299,-0.366,-1.159,0.061,1
8.056115,0.653,0.702,0.305,-0.61,-1.159,-0.061,1
8.065052,0.651,0.698,0.311,-0.61,-1.159,0.122,1
8.072222,0.653,0.701,0.305,-0.244,-0.915,0.183,1
8.081413,0.647,0.705,0.302,-0.915,-0.732,0.244,1
8.088438,0.642,0.7,0.304,-0.244,-0.976,0.427,1
8.09706,0.645,0.706,0.306,0.122,-0.854,0.61,1
8.103983,0.645,0.704,0.305,0.305,-0.854,0.793,1
8.112667,0.649,0.705,0.302,0.366,-0.61,0.854,1
8.11987,0.646,0.708,0.299,0.183,-0.671,0.732,1
8.128991,0.644,0.705,0.302,0.244,-0.854,0.854,1
8.136174,0.648,0.709,0.294,-0.122,-0.732,0.793,1
8.145184,0.647,0.716,0.294,-0.671,-0.732,0.793,1
8.153291,0.65,0.717,0.294,-0.732,-0.671,0.793,1
8.161178,0.655,0.716,0.295,-0.549,-0.61,0.854,1
8.169482,0.654,0.714,0.289,-0.427,-0.732,0.793,1
8.176373,0.657,0.711,0.291,-0.488,-0.915,0.793,1
8.183915,0.655,0.708,0.293,-0.061,-0.915,0.915,1
8.191458,0.657,0.71,0.288,0.183,-1.037,0.915,1
8.200342,0.656,0.714,0.289,-0.244,-1.159,0.915,1
8.207634,0.659,0.724,0.286,-0.549,-1.464,1.098,1
8.215428,0.655,0.728,0.29,-0.366,-1.525,1.037,1
8.224017,0.652,0.73,0.292,-0.183,-1.525,0.854,1
8.230978,0.648,0.725,0.294,0.183,-1.525,0.732,1
8.240186,0.651,0.724,0.291,-0.366,-1.464,0.732,1
8.247092,0.653,0.722,0.291,-0.427,-1.647,0.671,1
8.254886,0.649,0.717,0.295,-0.061,-1.403,0.488,1
8.26329,0.651,0.718,0.301,0.549,-1.892,0.732,1
8.271111,0.65,0.715,0.307,0.793,-1.892,0.671,1
8.279217,0.65,0.713,0.316,0.793,-1.647,0.732,1
8.287526,0.652,0.714,0.312,0.366,-1.586,0.793,1
8.294962,0.649,0.714,0.312,-0.061,-1.525,0.793,1
8.303163,0.652,0.721,0.312,-0.122,-1.403,0.61,1
8.310352,0.654,0.722,0.317,0.366,-1.586,0.793,1
8.318923,0.651,0.717,0.316,0.671,-1.464,0.793,1
8.32631,0.648,0.712,0.322,1.037,-1.403,0.732,1
8.335393,0.647,0.708,0.326,1.708,-1.464,0.488,1
8.342473,0.646,0.696,0.335,2.075,-1.22,0.549,1
8.349594,0.644,0.689,0.345,2.502,-1.22,0.732,1
8.357528,0.639,0.683,0.352,2.868,-1.037,0.854,1
8.365411,0.634,0.679,0.364,3.54,-0.61,1.159,1
8.374764,0.637,0.672,0.374,4.272,-0.427,1.403,1
8.380813,0.638,0.665,0.382,4.577,0.183,1.708,1
8.388576,0.637,0.662,0.395,4.516,0.915,2.136,1
8.397474,0.642,0.656,0.406,4.15,1.159,2.441,1
8.40459,0.642,0.647,0.416,4.272,1.464,2.746,1
8.412016,0.644,0.632,0.436,5.493,2.258,3.295,1
8.420898,0.644,0.615,0.457,6.591,2.563,3.784,1
8.428225,0.643,0.599,0.485,8.605,2.746,4.272,1
8.434921,0.637,0.575,0.523,10.437,3.173,5.493,1
8.443602,0.636,0.553,0.562,11.962,4.028,6.042,1
8.452349,0.631,0.532,0.61,13.366,5.187,7.08,1
8.459345,0.622,0.512,0.662,14.648,6.469,8.361,1
8.467811,0.605,0.496,0.727,16.235,8.422,9.826,1
8.475219,0.599,0.479,0.782,17.517,10.864,10.986,1
8.482066,0.599,0.464,0.826,17.944,13.488,12.451,1
8.490809,0.597,0.455,0.871,18.249,16.235,14.282,1
8.497523,0.582,0.45,0.914,18.981,19.348,16.113,1
8.506204,0.562,0.456,0.965,20.08,22.521,17.944,1
8.513213,0.543,0.452,1.0,21.362,26.794,20.019,1
8.521519,0.529,0.453,1.036,22.094,30.334,21.85,1
8.52849,0.514,0.457,1.07,23.315,34.362,23.559,1
8.535832,0.501,0.461,1.098,24.841,38.635,25.329,1
8.544381,0.499,0.458,1.119,26.428,43.273,26.733,1
8.551607,0.497,0.464,1.134,27.954,47.302,28.564,1
8.558826,0.49,0.465,1.148,29.357,52.124,30.334,1
8.567755,0.478,0.474,1.155,30.456,56.945,32.226,1
8.575755,0.477,0.483,1.154,30.517,61.645,34.118,1
8.582265,0.465,0.494,1.154,31.311,66.589,36.132,1
8.591036,0.456,0.507,1.145,32.836,71.228,37.963,1
8.598155,0.446,0.519,1.126,33.996,75.744,39.733,1
8.605204,0.421,0.538,1.107,35.034,80.322,41.442,1
8.61248,0.402,0.58,1.078,37.597,84.838,43.212,1
8.620252,0.378,0.624,1.053,41.809,88.378,44.86,1
8.628863,0.354,0.672,1.028,48.706,91.674,46.264,1
8.635725,0.34,0.727,1.021,59.02,94.665,47.607,1
8.643423,0.328,0.783,0.996,68.847,98.083,48.706,1
8.651705,0.319,0.812,0.953,72.509,101.44,49.377,1
8.658088,0.305,0.851,0.909,69.702,105.651,50.17,1
8.665564,0.281,0.883,0.847,63.537,109.374,50.476,1
8.674983,0.268,0.918,0.796,55.725,112.792,50.231,1
8.682515,0.26,0.95,0.747,48.034,116.394,49.316,1
8.690644,0.238,0.986,0.696,41.931,118.957,48.278,1
8.697532,0.23,1.013,0.664,40.039,120.91,47.119,1
8.705008,0.213,1.043,0.637,42.175,122.497,45.959,1
8.712321,0.201,1.053,0.618,45.898,123.779,44.799,1
8.721657,0.184,1.071,0.601,49.56,125.061,43.823,1
8.728565,0.173,1.083,0.585,52.246,126.77,42.846,1
8.736579,0.161,1.1,0.564,54.87,128.54,42.114,1
8.743493,0.147,1.116,0.548,56.03,129.76,41.259,1
8.750876,0.131,1.137,0.54,56.091,131.164,40.405,1
8.758148,0.125,1.161,0.539,56.823,132.934,39.367,1
8.766128,0.121,1.172,0.533,58.532,134.582,38.513,1
8.773479,0.113,1.178,0.524,60.485,136.169,37.536,1
8.7817,0.11,1.186,0.515,61.95,137.329,36.804,1
8.788395,0.112,1.185,0.508,62.744,138.916,35.827,1
8.796105,0.104,1.187,0.508,64.208,140.563,34.79,1
8.803551,0.1,1.185,0.495,62.927,142.089,34.179,1
8.811843,0.088,1.192,0.486,59.204,144.104,32.958,1
8.818252,0.083,1.207,0.482,55.969,146.301,31.86,1
8.826504,0.081,1.228,0.471,54.809,147.766,30.578,1
8.833066,0.066,1.256,0.462,56.518,149.23,28.93,1
8.841967,0.059,1.264,0.45,58.044,150.817,27.343,1
8.848912,0.051,1.268,0.444,58.654,152.832,25.878,1
8.857435,0.048,1.276,0.427,58.044,154.174,24.658,1
8.863064,0.033,1.28,0.404,57.006,156.311,22.583,1
8.870656,0.03,1.284,0.389,57.312,157.775,20.935,1
8.878324,0.015,1.289,0.376,57.983,158.874,19.653,1
8.885628,0.003,1.293,0.357,59.265,160.4,18.005,1
8.894916,-0.002,1.297,0.342,60.607,161.376,16.296,1
8.902535,-0.01,1.294,0.329,62.744,162.475,14.587,1
8.909882,-0.015,1.296,0.33,62.805,163.635,12.817,1
8.918475,-0.021,1.288,0.331,62.744,165.344,11.108,1
8.925506,-0.026,1.288,0.319,60.913,167.236,9.826,1
8.934673,-0.046,1.303,0.302,57.8,169.311,7.69,1
8.941635,-0.059,1.319,0.282,57.25,170.593,5.92,1
8.950139,-0.063,1.33,0.253,58.349,171.997,4.15,1
8.956745,-0.073,1.337,0.236,63.903,173.156,2.075,1
8.966163,-0.082,1.348,0.206,68.847,174.133,0.366,1
8.97296,-0.083,1.344,0.166,69.885,174.987,-1.281,1
8.981865,-0.086,1.338,0.128,67.749,176.391,-2.929,1
8.989321,-0.089,1.333,0.092,64.208,177.551,-5.31,1
8.99854,-0.087,1.325,0.062,63.415,178.161,-6.774,1
9.006808,-0.08,1.313,0.027,63.415,178.649,-9.216,1
9.014044,-0.073,1.292,0.0,63.659,178.588,-10.62,1
9.02216,-0.063,1.269,-0.031,64.697,178.894,-12.207,1
9.029152,-0.073,1.245,-0.076,63.537,179.016,-13.549,1
9.038146,-0.078,1.238,-0.11,60.241,179.321,-14.526,1
9.046537,-0.08,1.234,-0.156,57.922,179.138,-15.502,1
9.053496,-0.093,1.24,-0.203,57.678,178.588,-17.089,1
9.061017,-0.09,1.226,-0.249,58.227,177.551,-18.249,1
9.069429,-0.096,1.207,-0.288,58.959,176.33,-19.226,1
9.078621,-0.086,1.188,-0.329,61.95,174.865,-20.202,1
9.085429,-0.082,1.163,-0.363,63.659,173.156,-21.057,1
9.093386,-0.076,1.139,-0.398,64.147,171.63,-21.728,1
9.101561,-0.064,1.111,-0.436,62.072,170.471,-22.46,1
9.110808,-0.057,1.093,-0.469,59.082,168.884,-22.705,1
9.117824,-0.056,1.074,-0.508,55.297,167.358,-23.315,1
9.126757,-0.054,1.054,-0.544,51.757,165.161,-23.925,1
9.133583,-0.04,1.043,-0.584,51.147,163.146,-24.658,1
9.142718,-0.015,1.024,-0.643,50.903,160.644,-25.085,1
9.149265,0.0,1.004,-0.702,50.72,157.104,-25.268,1
9.158143,0.016,0.978,-0.755,49.072,153.747,-25.329,1
9.165256,0.024,0.952,-0.795,46.386,150.634,-25.573,1
9.174456,0.051,0.912,-0.846,42.846,147.705,-25.573,1
9.181266,0.077,0.887,-0.906,35.583,143.676,-25.573,1
9.190266,0.105,0.864,-0.958,28.991,140.075,-25.268,1
9.198367,0.125,0.842,-1.016,23.498,135.131,-25.329,1
9.205668,0.17,0.822,-1.063,20.263,130.798,-24.963,1
9.214348,0.207,0.81,-1.118,17.883,125.366,-24.658,1
9.221851,0.224,0.789,-1.16,17.15,119.75,-24.169,1
9.230129,0.268,0.773,-1.201,18.432,113.952,-23.742,1
9.238661,0.308,0.756,-1.248,20.812,106.445,-22.949,1
9.245922,0.336,0.728,-1.27,19.653,100.158,-22.46,1
9.254275,0.366,0.711,-1.292,17.028,94.543,-21.911,1
9.262804,0.377,0.695,-1.297,16.357,88.317,-21.667,1
9.270127,0.413,0.668,-1.299,16.54,80.993,-20.629,1
9.277145,0.421,0.635,-1.293,15.563,74.951,-19.653,1
9.286293,0.431,0.61,-1.279,13.427,69.091,-18.676,1
9.292859,0.45,0.579,-1.254,12.573,62.805,-17.15,1
9.301037,0.456,0.568,-1.236,14.038,56.274,-15.075,1
9.310318,0.458,0.562,-1.223,14.953,50.476,-13.366,1
9.317123,0.454,0.559,-1.203,14.038,44.982,-11.474,1
9.324874,0.464,0.556,-1.188,12.207,38.085,-9.46,1
9.333974,0.462,0.565,-1.149,11.901,32.653,-7.873,1
9.340655,0.469,0.571,-1.109,12.084,27.404,-6.469,1
9.348446,0.476,0.57,-1.066,11.779,22.888,-5.249,1
9.357366,0.489,0.574,-1.023,10.986,17.761,-3.967,1
9.36604,0.5,0.576,-0.992,10.131,13.488,-3.112,1
9.37258,0.509,0.58,-0.959,8.544,9.643,-2.258,1
9.380606,0.522,0.593,-0.918,6.53,6.042,-1.525,1
9.388134,0.543,0.603,-0.87,5.187,2.868,-0.915,1
9.397302,0.563,0.61,-0.836,4.089,-0.671,-0.183,1
9.404437,0.568,0.625,-0.806,2.746,-3.417,0.427,1
9.411739,0.574,0.629,-0.778,0.183,-6.103,0.915,1
9.420687,0.594,0.639,-0.736,-2.197,-8.605,1.586,1
9.427375,0.599,0.645,-0.7,-3.601,-10.62,1.708,1
9.436099,0.604,0.655,-0.659,-3.784,-12.512,2.624,1
9.442441,0.603,0.665,-0.631,-3.295,-14.282,2.929,1
9.450615,0.604,0.671,-0.602,-2.502,-15.686,3.662,1
9.457877,0.598,0.677,-0.568,-2.197,-17.089,4.333,1
9.466366,0.596,0.68,-0.542,-2.502,-18.249,5.065,1
9.473981,0.582,0.693,-0.505,-3.54,-19.226,5.737,1
9.483452,0.576,0.705,-0.479,-5.004,-20.507,6.103,1
9.490496,0.566,0.71,-0.453,-5.981,-21.301,6.53,1
9.498147,0.554,0.723,-0.415,-6.164,-22.155,6.774,1
9.507268,0.558,0.732,-0.385,-5.554,-22.888,7.08,1
9.515303,0.549,0.737,-0.364,-4.394,-23.193,7.08,1
9.52324,0.542,0.742,-0.341,-4.943,-23.559,7.324,1
9.530841,0.536,0.75,-0.322,-5.615,-23.986,7.263,1
9.538634,0.538,0.755,-0.298,-6.103,-23.986,7.385,1
9.5478,0.541,0.764,-0.277,-5.615,-24.169,7.385,1
9.556494,0.549,0.77,-0.257,-4.394,-23.986,7.08,1
9.56344,0.559,0.775,-0.235,-1.892,-23.986,7.019,1
9.572771,0.571,0.774,-0.221,-1.464,-23.681,7.141,1
9.5812,0.565,0.783,-0.211,-2.624,-23.071,7.019,1
9.588127,0.569,0.792,-0.197,-3.723,-22.338,6.774,1
9.597059,0.578,0.804,-0.193,-4.516,-21.484,6.591,1
9.605271,0.583,0.809,-0.185,-4.76,-20.812,6.286,1
9.612419,0.585,0.809,-0.182,-5.004,-19.958,5.554,1
9.621661,0.601,0.811,-0.172,-3.906,-19.165,5.432,1
9.628501,0.619,0.805,-0.166,-2.929,-18.615,5.126,1
9.637503,0.63,0.803,-0.158,-1.77,-18.127,4.76,1
9.644846,0.633,0.81,-0.149,-0.549,-17.395,4.882,1
9.653903,0.63,0.813,-0.144,-0.183,-16.418,4.577,1
9.661554,0.629,0.831,-0.138,-0.488,-15.441,4.272,1
9.670512,0.625,0.838,-0.139,-1.22,-14.404,4.028,1
9.679271,0.612,0.854,-0.14,-2.563,-13.244,3.54,1
9.686662,0.604,0.864,-0.145,-2.868,-12.573,2.807,1
9.694263,0.599,0.876,-0.153,-1.953,-11.535,2.197,1
9.701835,0.594,0.876,-0.15,-1.037,-11.108,1.281,1
9.710911,0.595,0.867,-0.149,0.366,-10.864,0.427,1
9.718583,0.599,0.854,-0.147,1.281,-10.437,-0.183,1
9.727493,0.596,0.846,-0.137,0.915,-9.582,-0.976,1
9.735297,0.595,0.842,-0.134,-0.183,-8.789,-1.647,1
9.74327,0.601,0.835,-0.135,-0.671,-7.873,-2.014,1
9.75218,0.6,0.834,-0.137,-0.732,-6.896,-2.38,1
9.760033,0.602,0.832,-0.148,-1.037,-6.286,-2.807,1
9.76736,0.606,0.836,-0.164,-0.732,-5.737,-3.112,1
9.77651,0.603,0.829,-0.169,0.122,-5.493,-3.723,1
9.785245,0.61,0.816,-0.176,-0.061,-5.249,-3.845,1
9.792404,0.613,0.808,-0.17,-0.183,-4.394,-4.272,1
9.800354,0.615,0.789,-0.17,-0.732,-4.272,-4.333,1
9.808775,0.62,0.783,-0.169,-1.708,-3.479,-4.455,1
9.817134,0.618,0.776,-0.165,-2.624,-2.868,-4.516,1
9.826261,0.617,0.778,-0.173,-4.028,-2.014,-4.699,1
9.834429,0.618,0.792,-0.175,-3.601,-1.708,-4.516,1
9.841508,0.618,0.797,-0.185,-2.014,-1.159,-4.882,1
9.849881,0.622,0.794,-0.189,-1.098,-0.976,-4.882,1
9.859242,0.623,0.795,-0.201,0.061,-0.549,-5.249,1
9.866263,0.626,0.791,-0.21,0.366,-0.244,-5.615,1
9.875609,0.625,0.786,-0.217,-0.427,-0.183,-5.859,1
9.883277,0.625,0.774,-0.217,-0.976,0.122,-6.286,1
9.891771,0.622,0.766,-0.219,-1.708,0.305,-6.469,1
9.899841,0.619,0.751,-0.218,-2.258,0.305,-6.53,1
9.907882,0.619,0.745,-0.212,-2.624,0.732,-6.713,1
9.915204,0.616,0.739,-0.211,-2.38,1.159,-6.53,1
9.924205,0.613,0.735,-0.214,-2.014,1.281,-6.286,1
9.931537,0.608,0.731,-0.219,-1.708,1.525,-6.225,1
9.940851,0.607,0.73,-0.226,-1.403,1.708,-5.737,1
9.948134,0.606,0.729,-0.234,-1.098,1.892,-5.615,1
9.956769,0.606,0.728,-0.245,-0.793,1.708,-5.187,1
9.963814,0.61,0.721,-0.243,-0.854,1.77,-5.249,1
9.972618,0.608,0.716,-0.242,-1.464,1.708,-4.943,1
9.979715,0.616,0.713,-0.238,-1.647,1.831,-4.76,1
9.987072,0.612,0.711,-0.245,-1.22,2.136,-4.394,1
9.996191,0.611,0.705,-0.245,-1.037,2.075,-3.967,1
